time,ax,ay,az,wx,wy,wz,Bx,By,Bz,Unnamed: 10,label
0.055077,0.0,0.0,0.0,0.0,0.0,0.0,-30.975,-29.325,3.675,,adl
0.071713,0.0,0.0,0.0,0.0,0.0,0.0,-30.975,-29.325,3.675,,adl
0.073156,0.0018,0.0549,0.1607,0.0,0.0,0.0,-30.975,-29.325,3.675,,adl
0.096467,0.0018,0.0549,0.1607,0.0,0.0,0.0,-30.975,-29.325,3.675,,adl
0.098175,0.0643,-0.0176,0.3321,0.0,0.0,0.0,-30.975,-29.325,3.675,,adl
0.104804,0.0643,-0.0176,0.3321,-0.0202,-0.018,-0.0092,-30.975,-29.325,3.675,,adl
0.117632,0.0643,-0.0176,0.3321,-0.0202,-0.018,-0.0092,-30.975,-29.325,3.675,,adl
0.119266,0.0236,0.0221,0.035,-0.0202,-0.018,-0.0092,-30.975,-29.325,3.675,,adl
0.126001,0.0236,0.0221,0.035,-0.0202,-0.018,-0.0092,-32.025,-29.925,2.25,,adl
0.135907,0.0236,0.0221,0.035,-0.0202,-0.018,-0.0092,-32.025,-29.925,2.25,,adl
0.137535,0.0034,0.0617,0.0779,-0.0202,-0.018,-0.0092,-32.025,-29.925,2.25,,adl
0.155153,0.0034,0.0617,0.0779,-0.0202,-0.018,-0.0092,-32.025,-29.925,2.25,,adl
0.157751,0.0426,0.0515,0.2384,-0.0202,-0.018,-0.0092,-32.025,-29.925,2.25,,adl
0.168793,0.0426,0.0515,0.2384,-0.0166,-0.0136,-0.0133,-32.025,-29.925,2.25,,adl
0.173849,0.0426,0.0515,0.2384,-0.0166,-0.0136,-0.0133,-32.025,-29.925,2.25,,adl
0.176199,0.0596,0.0341,0.2161,-0.0166,-0.0136,-0.0133,-32.025,-29.925,2.25,,adl
0.192974,0.0596,0.0341,0.2161,-0.0166,-0.0136,-0.0133,-32.025,-29.925,2.25,,adl
0.19546,0.0825,0.03,0.1867,-0.0166,-0.0136,-0.0133,-32.025,-29.925,2.25,,adl
0.197087,0.0825,0.03,0.1867,-0.0166,-0.0136,-0.0133,-32.625,-30.45,1.95,,adl
0.211908,0.0825,0.03,0.1867,-0.0166,-0.0136,-0.0133,-32.625,-30.45,1.95,,adl
0.214063,0.0928,0.0622,0.1694,-0.0166,-0.0136,-0.0133,-32.625,-30.45,1.95,,adl
0.232469,0.0928,0.0622,0.1694,-0.0166,-0.0136,-0.0133,-32.625,-30.45,1.95,,adl
0.235876,0.0576,0.1275,0.1421,-0.0166,-0.0136,-0.0133,-32.625,-30.45,1.95,,adl
0.238246,0.0576,0.1275,0.1421,0.0008,0.0026,0.0032,-32.625,-30.45,1.95,,adl
0.251691,0.0576,0.1275,0.1421,0.0008,0.0026,0.0032,-32.625,-30.45,1.95,,adl
0.254364,0.1045,0.1165,0.1282,0.0008,0.0026,0.0032,-32.625,-30.45,1.95,,adl
0.265591,0.1045,0.1165,0.1282,0.0008,0.0026,0.0032,-32.775,-30.45,2.25,,adl
0.272007,0.1045,0.1165,0.1282,0.0008,0.0026,0.0032,-32.775,-30.45,2.25,,adl
0.274449,0.1044,0.0413,0.1209,0.0008,0.0026,0.0032,-32.775,-30.45,2.25,,adl
0.291052,0.1044,0.0413,0.1209,0.0008,0.0026,0.0032,-32.775,-30.45,2.25,,adl
0.293734,0.0349,0.0616,0.1181,0.0008,0.0026,0.0032,-32.775,-30.45,2.25,,adl
0.306558,0.0349,0.0616,0.1181,0.004,0.0113,0.0041,-32.775,-30.45,2.25,,adl
0.311522,0.0349,0.0616,0.1181,0.004,0.0113,0.0041,-32.775,-30.45,2.25,,adl
0.312405,0.0897,0.0783,0.1397,0.004,0.0113,0.0041,-32.775,-30.45,2.25,,adl
0.325855,0.0897,0.0783,0.1397,0.004,0.0113,0.0041,-32.775,-30.45,2.25,,adl
0.327307,0.0604,0.0693,0.1501,0.004,0.0113,0.0041,-32.775,-30.45,2.25,,adl
0.344775,0.0604,0.0693,0.1501,0.004,0.0113,0.0041,-32.25,-30.075,2.025,,adl
0.355596,0.0604,0.0693,0.1501,0.004,0.0113,0.0041,-32.25,-30.075,2.025,,adl
0.356738,0.0701,0.033,0.155,0.004,0.0113,0.0041,-32.25,-30.075,2.025,,adl
0.374534,0.0701,0.033,0.155,0.004,0.0113,0.0041,-32.25,-30.075,2.025,,adl
0.375686,0.0971,0.0227,0.176,0.004,0.0113,0.0041,-32.25,-30.075,2.025,,adl
0.380148,0.0971,0.0227,0.176,0.0018,0.0005,0.0009,-32.25,-30.075,2.025,,adl
0.394679,0.0971,0.0227,0.176,0.0018,0.0005,0.0009,-32.25,-30.075,2.025,,adl
0.398064,0.104,0.0121,0.1945,0.0018,0.0005,0.0009,-32.25,-30.075,2.025,,adl
0.404137,0.104,0.0121,0.1945,0.0018,0.0005,0.0009,-31.725,-30.375,2.025,,adl
0.413038,0.104,0.0121,0.1945,0.0018,0.0005,0.0009,-31.725,-30.375,2.025,,adl
0.4147,0.0866,0.027,0.1917,0.0018,0.0005,0.0009,-31.725,-30.375,2.025,,adl
0.432388,0.0866,0.027,0.1917,0.0018,0.0005,0.0009,-31.725,-30.375,2.025,,adl
0.43522,0.0584,0.0592,0.176,0.0018,0.0005,0.0009,-31.725,-30.375,2.025,,adl
0.448619,0.0584,0.0592,0.176,0.0041,0.0027,-0.0075,-31.725,-30.375,2.025,,adl
0.452053,0.0584,0.0592,0.176,0.0041,0.0027,-0.0075,-31.725,-30.375,2.025,,adl
0.453653,0.0344,0.0714,0.1416,0.0041,0.0027,-0.0075,-31.725,-30.375,2.025,,adl
0.472591,0.0344,0.0714,0.1416,0.0041,0.0027,-0.0075,-31.725,-30.375,2.025,,adl
0.475186,0.0611,0.0714,0.1163,0.0041,0.0027,-0.0075,-31.725,-30.375,2.025,,adl
0.476915,0.0611,0.0714,0.1163,0.0041,0.0027,-0.0075,-33.0,-30.45,2.25,,adl
0.492088,0.0611,0.0714,0.1163,0.0041,0.0027,-0.0075,-33.0,-30.45,2.25,,adl
0.495361,0.0804,0.0587,0.1339,0.0041,0.0027,-0.0075,-33.0,-30.45,2.25,,adl
0.511396,0.0804,0.0587,0.1339,0.0041,0.0027,-0.0075,-33.0,-30.45,2.25,,adl
0.51459,0.045,0.0284,0.2279,0.0041,0.0027,-0.0075,-33.0,-30.45,2.25,,adl
0.52106,0.045,0.0284,0.2279,-0.0052,-0.0002,0.004,-33.0,-30.45,2.25,,adl
0.525461,0.045,0.0284,0.2279,-0.0052,-0.0002,0.004,-33.0,-30.45,2.25,,adl
0.527725,0.0218,0.0179,0.186,-0.0052,-0.0002,0.004,-33.0,-30.45,2.25,,adl
0.543559,0.0218,0.0179,0.186,-0.0052,-0.0002,0.004,-32.4,-30.15,2.25,,adl
0.551101,0.0218,0.0179,0.186,-0.0052,-0.0002,0.004,-32.4,-30.15,2.25,,adl
0.552798,0.1165,0.0865,0.1272,-0.0052,-0.0002,0.004,-32.4,-30.15,2.25,,adl
0.569514,0.1165,0.0865,0.1272,-0.0052,-0.0002,0.004,-32.4,-30.15,2.25,,adl
0.571479,0.1111,0.0814,0.1435,-0.0052,-0.0002,0.004,-32.4,-30.15,2.25,,adl
0.589094,0.1111,0.0814,0.1435,-0.0024,-0.0047,0.0026,-32.4,-30.15,2.25,,adl
0.594156,0.1111,0.0814,0.1435,-0.0024,-0.0047,0.0026,-32.4,-30.15,2.25,,adl
0.59637,0.0308,0.0527,0.135,-0.0024,-0.0047,0.0026,-32.4,-30.15,2.25,,adl
0.615197,0.0308,0.0527,0.135,-0.0024,-0.0047,0.0026,-32.4,-30.15,2.25,,adl
0.618609,-0.0369,0.0942,0.2343,-0.0024,-0.0047,0.0026,-32.4,-30.15,2.25,,adl
0.622198,-0.0369,0.0942,0.2343,-0.0024,-0.0047,0.0026,-32.25,-30.15,2.55,,adl
0.637864,-0.0369,0.0942,0.2343,-0.0024,-0.0047,0.0026,-32.25,-30.15,2.55,,adl
0.640482,0.0796,0.1219,-0.0086,-0.0024,-0.0047,0.0026,-32.25,-30.15,2.55,,adl
0.652276,0.0796,0.1219,-0.0086,-0.0024,-0.0047,0.0026,-32.25,-30.15,2.55,,adl
0.654458,0.0487,0.0814,0.067,-0.0024,-0.0047,0.0026,-32.25,-30.15,2.55,,adl
0.657861,0.0487,0.0814,0.067,0.0027,0.0212,0.0011,-32.25,-30.15,2.55,,adl
0.672133,0.0487,0.0814,0.067,0.0027,0.0212,0.0011,-32.25,-30.15,2.55,,adl
0.673806,0.0408,-0.0421,0.3317,0.0027,0.0212,0.0011,-32.25,-30.15,2.55,,adl
0.683949,0.0408,-0.0421,0.3317,0.0027,0.0212,0.0011,-32.175,-30.225,1.725,,adl
0.691825,0.0408,-0.0421,0.3317,0.0027,0.0212,0.0011,-32.175,-30.225,1.725,,adl
0.693559,0.1153,-0.0842,0.352,0.0027,0.0212,0.0011,-32.175,-30.225,1.725,,adl
0.711591,0.1153,-0.0842,0.352,0.0027,0.0212,0.0011,-32.175,-30.225,1.725,,adl
0.713633,0.1195,-0.0375,0.1594,0.0027,0.0212,0.0011,-32.175,-30.225,1.725,,adl
0.725472,0.1195,-0.0375,0.1594,0.0235,-0.0174,0.0021,-32.175,-30.225,1.725,,adl
0.734577,0.1195,-0.0375,0.1594,0.0235,-0.0174,0.0021,-32.175,-30.225,1.725,,adl
0.737072,0.0811,0.0681,0.0881,0.0235,-0.0174,0.0021,-32.175,-30.225,1.725,,adl
0.751755,0.0811,0.0681,0.0881,0.0235,-0.0174,0.0021,-32.175,-30.225,1.725,,adl
0.753818,0.0865,0.1392,0.1486,0.0235,-0.0174,0.0021,-32.175,-30.225,1.725,,adl
0.755298,0.0865,0.1392,0.1486,0.0235,-0.0174,0.0021,-32.7,-30.45,1.725,,adl
0.770353,0.0865,0.1392,0.1486,0.0235,-0.0174,0.0021,-32.7,-30.45,1.725,,adl
0.773999,0.0656,0.0996,0.1667,0.0235,-0.0174,0.0021,-32.7,-30.45,1.725,,adl
0.789652,0.0656,0.0996,0.1667,0.0235,-0.0174,0.0021,-32.7,-30.45,1.725,,adl
0.792301,0.0455,0.0192,0.1675,0.0235,-0.0174,0.0021,-32.7,-30.45,1.725,,adl
0.794608,0.0455,0.0192,0.1675,-0.0006,-0.0078,-0.0011,-32.7,-30.45,1.725,,adl
0.809052,0.0455,0.0192,0.1675,-0.0006,-0.0078,-0.0011,-32.7,-30.45,1.725,,adl
0.810112,0.0614,0.0051,0.199,-0.0006,-0.0078,-0.0011,-32.7,-30.45,1.725,,adl
0.823789,0.0614,0.0051,0.199,-0.0006,-0.0078,-0.0011,-32.85,-30.15,1.95,,adl
0.824761,0.0614,0.0051,0.199,-0.0006,-0.0078,-0.0011,-32.85,-30.15,1.95,,adl
0.825602,0.0523,0.0391,0.1974,-0.0006,-0.0078,-0.0011,-32.85,-30.15,1.95,,adl
0.852968,0.0523,0.0391,0.1974,-0.0006,-0.0078,-0.0011,-32.85,-30.15,1.95,,adl
0.854126,0.0401,0.0623,0.1662,-0.0006,-0.0078,-0.0011,-32.85,-30.15,1.95,,adl
0.868672,0.0401,0.0623,0.1662,0.0027,-0.0038,-0.0023,-32.85,-30.15,1.95,,adl
0.873285,0.0401,0.0623,0.1662,0.0027,-0.0038,-0.0023,-32.85,-30.15,1.95,,adl
0.874554,0.042,0.0293,0.1427,0.0027,-0.0038,-0.0023,-32.85,-30.15,1.95,,adl
0.893269,0.042,0.0293,0.1427,0.0027,-0.0038,-0.0023,-32.85,-30.15,1.95,,adl
0.894727,0.0218,0.0055,0.2414,0.0027,-0.0038,-0.0023,-32.85,-30.15,1.95,,adl
0.895988,0.0218,0.0055,0.2414,0.0027,-0.0038,-0.0023,-31.875,-30.75,1.95,,adl
0.91259,0.0218,0.0055,0.2414,0.0027,-0.0038,-0.0023,-31.875,-30.75,1.95,,adl
0.914097,0.029,0.048,0.1521,0.0027,-0.0038,-0.0023,-31.875,-30.75,1.95,,adl
0.934569,0.029,0.048,0.1521,0.0027,-0.0038,-0.0023,-31.875,-30.75,1.95,,adl
0.939951,0.0041,0.0934,0.0247,0.0027,-0.0038,-0.0023,-31.875,-30.75,1.95,,adl
0.943896,0.0041,0.0934,0.0247,0.006,-0.0017,0.0044,-31.875,-30.75,1.95,,adl
0.953323,0.0041,0.0934,0.0247,0.006,-0.0017,0.0044,-31.875,-30.75,1.95,,adl
0.956743,0.0448,0.0602,0.177,0.006,-0.0017,0.0044,-31.875,-30.75,1.95,,adl
0.965347,0.0448,0.0602,0.177,0.006,-0.0017,0.0044,-32.25,-30.525,1.725,,adl
0.971007,0.0448,0.0602,0.177,0.006,-0.0017,0.0044,-32.25,-30.525,1.725,,adl
0.972786,0.0589,-0.0231,0.3273,0.006,-0.0017,0.0044,-32.25,-30.525,1.725,,adl
0.990069,0.0589,-0.0231,0.3273,0.006,-0.0017,0.0044,-32.25,-30.525,1.725,,adl
0.992183,0.0491,-0.0551,0.2076,0.006,-0.0017,0.0044,-32.25,-30.525,1.725,,adl
1.00466,0.0491,-0.0551,0.2076,0.0073,0.0005,-0.0018,-32.25,-30.525,1.725,,adl
1.009379,0.0491,-0.0551,0.2076,0.0073,0.0005,-0.0018,-32.25,-30.525,1.725,,adl
1.011126,0.0753,0.0011,0.1271,0.0073,0.0005,-0.0018,-32.25,-30.525,1.725,,adl
1.024689,0.0753,0.0011,0.1271,0.0073,0.0005,-0.0018,-32.25,-30.525,1.725,,adl
1.026756,0.0303,0.1001,0.1617,0.0073,0.0005,-0.0018,-32.25,-30.525,1.725,,adl
1.033131,0.0303,0.1001,0.1617,0.0073,0.0005,-0.0018,-32.25,-30.375,2.025,,adl
1.049617,0.0303,0.1001,0.1617,0.0073,0.0005,-0.0018,-32.25,-30.375,2.025,,adl
1.051527,0.0419,0.1384,0.1745,0.0073,0.0005,-0.0018,-32.25,-30.375,2.025,,adl
1.068114,0.0419,0.1384,0.1745,0.0073,0.0005,-0.0018,-32.25,-30.375,2.025,,adl
1.070272,0.0737,0.0997,0.1085,0.0073,0.0005,-0.0018,-32.25,-30.375,2.025,,adl
1.072802,0.0737,0.0997,0.1085,0.0136,0.0078,0.0078,-32.25,-30.375,2.025,,adl
1.087922,0.0737,0.0997,0.1085,0.0136,0.0078,0.0078,-32.25,-30.375,2.025,,adl
1.090293,0.0977,0.0548,0.153,0.0136,0.0078,0.0078,-32.25,-30.375,2.025,,adl
1.103286,0.0977,0.0548,0.153,0.0136,0.0078,0.0078,-32.25,-30.375,2.025,,adl
1.105511,0.1206,0.0349,0.1844,0.0136,0.0078,0.0078,-32.25,-30.375,2.025,,adl
1.107185,0.1206,0.0349,0.1844,0.0136,0.0078,0.0078,-32.7,-30.675,1.65,,adl
1.124815,0.1206,0.0349,0.1844,0.0136,0.0078,0.0078,-32.7,-30.675,1.65,,adl
1.12709,0.1199,0.067,0.1531,0.0136,0.0078,0.0078,-32.7,-30.675,1.65,,adl
1.148301,0.1199,0.067,0.1531,0.0359,0.0082,-0.0099,-32.7,-30.675,1.65,,adl
1.152256,0.1199,0.067,0.1531,0.0359,0.0082,-0.0099,-32.7,-30.675,1.65,,adl
1.154299,0.0417,0.0889,0.1349,0.0359,0.0082,-0.0099,-32.7,-30.675,1.65,,adl
1.171575,0.0417,0.0889,0.1349,0.0359,0.0082,-0.0099,-32.7,-30.675,1.65,,adl
1.175154,-0.0652,0.0701,0.208,0.0359,0.0082,-0.0099,-32.7,-30.675,1.65,,adl
1.178308,-0.0652,0.0701,0.208,0.0359,0.0082,-0.0099,-32.85,-30.225,2.025,,adl
1.190732,-0.0652,0.0701,0.208,0.0359,0.0082,-0.0099,-32.85,-30.225,2.025,,adl
1.192752,0.0234,0.0666,0.283,0.0359,0.0082,-0.0099,-32.85,-30.225,2.025,,adl
1.210093,0.0234,0.0666,0.283,0.0359,0.0082,-0.0099,-32.85,-30.225,2.025,,adl
1.211856,0.1208,0.0276,0.212,0.0359,0.0082,-0.0099,-32.85,-30.225,2.025,,adl
1.216325,0.1208,0.0276,0.212,0.0809,0.0176,0.0017,-32.85,-30.225,2.025,,adl
1.224935,0.1208,0.0276,0.212,0.0809,0.0176,0.0017,-32.85,-30.225,2.025,,adl
1.22631,0.0353,-0.059,0.1595,0.0809,0.0176,0.0017,-32.85,-30.225,2.025,,adl
1.243189,0.0353,-0.059,0.1595,0.0809,0.0176,0.0017,-32.55,-29.925,1.725,,adl
1.249314,0.0353,-0.059,0.1595,0.0809,0.0176,0.0017,-32.55,-29.925,1.725,,adl
1.2511,0.0313,-0.0814,0.2385,0.0809,0.0176,0.0017,-32.55,-29.925,1.725,,adl
1.269711,0.0313,-0.0814,0.2385,0.0809,0.0176,0.0017,-32.55,-29.925,1.725,,adl
1.272133,0.0852,-0.0575,0.197,0.0809,0.0176,0.0017,-32.55,-29.925,1.725,,adl
1.284042,0.0852,-0.0575,0.197,0.0924,0.0188,0.0006,-32.55,-29.925,1.725,,adl
1.288344,0.0852,-0.0575,0.197,0.0924,0.0188,0.0006,-32.55,-29.925,1.725,,adl
1.290236,0.0209,0.003,0.1078,0.0924,0.0188,0.0006,-32.55,-29.925,1.725,,adl
1.307917,0.0209,0.003,0.1078,0.0924,0.0188,0.0006,-32.55,-29.925,1.725,,adl
1.309796,-0.0355,0.0538,0.1959,0.0924,0.0188,0.0006,-32.55,-29.925,1.725,,adl
1.318009,-0.0355,0.0538,0.1959,0.0924,0.0188,0.0006,-32.175,-30.075,2.175,,adl
1.325027,-0.0355,0.0538,0.1959,0.0924,0.0188,0.0006,-32.175,-30.075,2.175,,adl
1.326796,-0.0051,0.0421,0.193,0.0924,0.0188,0.0006,-32.175,-30.075,2.175,,adl
1.350514,-0.0051,0.0421,0.193,0.0924,0.0188,0.0006,-32.175,-30.075,2.175,,adl
1.354153,0.0244,0.1019,0.0502,0.0924,0.0188,0.0006,-32.175,-30.075,2.175,,adl
1.356047,0.0244,0.1019,0.0502,0.0919,0.0276,0.0116,-32.175,-30.075,2.175,,adl
1.370483,0.0244,0.1019,0.0502,0.0919,0.0276,0.0116,-32.175,-30.075,2.175,,adl
1.372175,0.041,0.1895,-0.0823,0.0919,0.0276,0.0116,-32.175,-30.075,2.175,,adl
1.385959,0.041,0.1895,-0.0823,0.0919,0.0276,0.0116,-32.025,-30.225,2.85,,adl
1.387868,0.041,0.1895,-0.0823,0.0919,0.0276,0.0116,-32.025,-30.225,2.85,,adl
1.389288,-0.0248,0.1886,0.0345,0.0919,0.0276,0.0116,-32.025,-30.225,2.85,,adl
1.406335,-0.0248,0.1886,0.0345,0.0919,0.0276,0.0116,-32.025,-30.225,2.85,,adl
1.408308,-0.0137,0.1188,0.1425,0.0919,0.0276,0.0116,-32.025,-30.225,2.85,,adl
1.420979,-0.0137,0.1188,0.1425,0.018,-0.006,0.0002,-32.025,-30.225,2.85,,adl
1.425049,-0.0137,0.1188,0.1425,0.018,-0.006,0.0002,-32.025,-30.225,2.85,,adl
1.42687,0.03,0.0809,0.0918,0.018,-0.006,0.0002,-32.025,-30.225,2.85,,adl
1.445031,0.03,0.0809,0.0918,0.018,-0.006,0.0002,-32.025,-30.225,2.85,,adl
1.447181,0.0319,0.0246,0.0091,0.018,-0.006,0.0002,-32.025,-30.225,2.85,,adl
1.453175,0.0319,0.0246,0.0091,0.018,-0.006,0.0002,-32.1,-30.45,3.45,,adl
1.471384,0.0319,0.0246,0.0091,0.018,-0.006,0.0002,-32.1,-30.45,3.45,,adl
1.473935,0.0725,-0.0456,0.2436,0.018,-0.006,0.0002,-32.1,-30.45,3.45,,adl
1.488891,0.0725,-0.0456,0.2436,0.018,-0.006,0.0002,-32.1,-30.45,3.45,,adl
1.491133,0.1013,-0.0359,0.2952,0.018,-0.006,0.0002,-32.1,-30.45,3.45,,adl
1.493612,0.1013,-0.0359,0.2952,-0.0066,0.0049,0.0087,-32.1,-30.45,3.45,,adl
1.508963,0.1013,-0.0359,0.2952,-0.0066,0.0049,0.0087,-32.1,-30.45,3.45,,adl
1.511831,0.1242,0.0633,-0.0565,-0.0066,0.0049,0.0087,-32.1,-30.45,3.45,,adl
1.523713,0.1242,0.0633,-0.0565,-0.0066,0.0049,0.0087,-32.1,-30.45,3.45,,adl
1.526368,0.0426,0.0818,0.1418,-0.0066,0.0049,0.0087,-32.1,-30.45,3.45,,adl
1.528714,0.0426,0.0818,0.1418,-0.0066,0.0049,0.0087,-32.775,-30.375,3.375,,adl
1.548144,0.0426,0.0818,0.1418,-0.0066,0.0049,0.0087,-32.775,-30.375,3.375,,adl
1.550499,0.0191,-0.0179,0.3692,-0.0066,0.0049,0.0087,-32.775,-30.375,3.375,,adl
1.562622,0.0191,-0.0179,0.3692,-0.0046,-0.0118,-0.0015,-32.775,-30.375,3.375,,adl
1.572826,0.0191,-0.0179,0.3692,-0.0046,-0.0118,-0.0015,-32.775,-30.375,3.375,,adl
1.574901,0.0406,-0.0597,0.2693,-0.0046,-0.0118,-0.0015,-32.775,-30.375,3.375,,adl
1.586656,0.0406,-0.0597,0.2693,-0.0046,-0.0118,-0.0015,-32.775,-30.375,3.375,,adl
1.58877,0.0434,-0.0245,0.1002,-0.0046,-0.0118,-0.0015,-32.775,-30.375,3.375,,adl
1.59038,0.0434,-0.0245,0.1002,-0.0046,-0.0118,-0.0015,-32.475,-29.925,2.475,,adl
1.606691,0.0434,-0.0245,0.1002,-0.0046,-0.0118,-0.0015,-32.475,-29.925,2.475,,adl
1.608942,0.0237,0.0431,0.1494,-0.0046,-0.0118,-0.0015,-32.475,-29.925,2.475,,adl
1.625145,0.0237,0.0431,0.1494,-0.0046,-0.0118,-0.0015,-32.475,-29.925,2.475,,adl
1.62695,0.0079,0.0604,0.1412,-0.0046,-0.0118,-0.0015,-32.475,-29.925,2.475,,adl
1.632067,0.0079,0.0604,0.1412,0.0365,-0.0024,-0.0012,-32.475,-29.925,2.475,,adl
1.645573,0.0079,0.0604,0.1412,0.0365,-0.0024,-0.0012,-32.475,-29.925,2.475,,adl
1.64755,-0.0125,0.0367,0.1382,0.0365,-0.0024,-0.0012,-32.475,-29.925,2.475,,adl
1.656397,-0.0125,0.0367,0.1382,0.0365,-0.0024,-0.0012,-31.95,-29.925,2.925,,adl
1.668154,-0.0125,0.0367,0.1382,0.0365,-0.0024,-0.0012,-31.95,-29.925,2.925,,adl
1.670409,-0.0084,0.0668,0.1561,0.0365,-0.0024,-0.0012,-31.95,-29.925,2.925,,adl
1.684808,-0.0084,0.0668,0.1561,0.0365,-0.0024,-0.0012,-31.95,-29.925,2.925,,adl
1.687358,0.0321,0.1555,0.0943,0.0365,-0.0024,-0.0012,-31.95,-29.925,2.925,,adl
1.704158,0.0321,0.1555,0.0943,0.0195,0.0092,0.0118,-31.95,-29.925,2.925,,adl
1.706183,0.0321,0.1555,0.0943,0.0195,0.0092,0.0118,-31.95,-29.925,2.925,,adl
1.707446,0.0949,0.1834,0.0575,0.0195,0.0092,0.0118,-31.95,-29.925,2.925,,adl
1.723754,0.0949,0.1834,0.0575,0.0195,0.0092,0.0118,-31.95,-29.925,2.925,,adl
1.725595,0.0682,0.1032,0.0928,0.0195,0.0092,0.0118,-31.95,-29.925,2.925,,adl
1.726884,0.0682,0.1032,0.0928,0.0195,0.0092,0.0118,-32.775,-30.45,2.55,,adl
1.750061,0.0682,0.1032,0.0928,0.0195,0.0092,0.0118,-32.775,-30.45,2.55,,adl
1.752241,0.0475,-0.0052,0.1582,0.0195,0.0092,0.0118,-32.775,-30.45,2.55,,adl
1.770381,0.0475,-0.0052,0.1582,0.0195,0.0092,0.0118,-32.775,-30.45,2.55,,adl
1.773631,0.014,-0.0401,0.2762,0.0195,0.0092,0.0118,-32.775,-30.45,2.55,,adl
1.7753,0.014,-0.0401,0.2762,-0.0076,-0.0021,-0.0024,-32.775,-30.45,2.55,,adl
1.787186,0.014,-0.0401,0.2762,-0.0076,-0.0021,-0.0024,-32.775,-30.45,2.55,,adl
1.789398,-0.0008,0.0272,0.0979,-0.0076,-0.0021,-0.0024,-32.775,-30.45,2.55,,adl
1.802077,-0.0008,0.0272,0.0979,-0.0076,-0.0021,-0.0024,-32.7,-29.925,3.075,,adl
1.806693,-0.0008,0.0272,0.0979,-0.0076,-0.0021,-0.0024,-32.7,-29.925,3.075,,adl
1.807922,-0.0299,0.0653,0.0212,-0.0076,-0.0021,-0.0024,-32.7,-29.925,3.075,,adl
1.824576,-0.0299,0.0653,0.0212,-0.0076,-0.0021,-0.0024,-32.7,-29.925,3.075,,adl
1.826293,0.0593,-0.0218,0.2329,-0.0076,-0.0021,-0.0024,-32.7,-29.925,3.075,,adl
1.840872,0.0593,-0.0218,0.2329,-0.0153,-0.004,-0.0023,-32.7,-29.925,3.075,,adl
1.85054,0.0593,-0.0218,0.2329,-0.0153,-0.004,-0.0023,-32.7,-29.925,3.075,,adl
1.853122,0.0686,-0.1034,0.3405,-0.0153,-0.004,-0.0023,-32.7,-29.925,3.075,,adl
1.865919,0.0686,-0.1034,0.3405,-0.0153,-0.004,-0.0023,-32.7,-29.925,3.075,,adl
1.86843,0.0081,-0.0645,0.2313,-0.0153,-0.004,-0.0023,-32.7,-29.925,3.075,,adl
1.870326,0.0081,-0.0645,0.2313,-0.0153,-0.004,-0.0023,-32.025,-30.675,2.625,,adl
1.884796,0.0081,-0.0645,0.2313,-0.0153,-0.004,-0.0023,-32.025,-30.675,2.625,,adl
1.886669,-0.0066,0.0488,0.1306,-0.0153,-0.004,-0.0023,-32.025,-30.675,2.625,,adl
1.904638,-0.0066,0.0488,0.1306,-0.0153,-0.004,-0.0023,-32.025,-30.675,2.625,,adl
1.907124,0.0295,0.1415,0.1308,-0.0153,-0.004,-0.0023,-32.025,-30.675,2.625,,adl
1.909755,0.0295,0.1415,0.1308,0.0159,0.0115,0.0035,-32.025,-30.675,2.625,,adl
1.924436,0.0295,0.1415,0.1308,0.0159,0.0115,0.0035,-32.025,-30.675,2.625,,adl
1.925328,0.061,0.1416,0.1399,0.0159,0.0115,0.0035,-32.025,-30.675,2.625,,adl
1.934584,0.061,0.1416,0.1399,0.0159,0.0115,0.0035,-32.25,-30.075,2.25,,adl
1.943769,0.061,0.1416,0.1399,0.0159,0.0115,0.0035,-32.25,-30.075,2.25,,adl
1.945479,0.0293,0.073,0.1271,0.0159,0.0115,0.0035,-32.25,-30.075,2.25,,adl
1.962887,0.0293,0.073,0.1271,0.0159,0.0115,0.0035,-32.25,-30.075,2.25,,adl
1.964698,0.0255,0.0187,0.1403,0.0159,0.0115,0.0035,-32.25,-30.075,2.25,,adl
1.97811,0.0255,0.0187,0.1403,0.017,0.0076,-0.0024,-32.25,-30.075,2.25,,adl
1.989424,0.0255,0.0187,0.1403,0.017,0.0076,-0.0024,-32.25,-30.075,2.25,,adl
1.991987,0.0462,0.04,0.1294,0.017,0.0076,-0.0024,-32.25,-30.075,2.25,,adl
2.004419,0.0462,0.04,0.1294,0.017,0.0076,-0.0024,-32.25,-30.075,2.25,,adl
2.006563,-0.0091,0.0854,0.1053,0.017,0.0076,-0.0024,-32.25,-30.075,2.25,,adl
2.008203,-0.0091,0.0854,0.1053,0.017,0.0076,-0.0024,-32.25,-29.85,1.725,,adl
2.021942,-0.0091,0.0854,0.1053,0.017,0.0076,-0.0024,-32.25,-29.85,1.725,,adl
2.024163,-0.0194,0.1096,0.0669,0.017,0.0076,-0.0024,-32.25,-29.85,1.725,,adl
2.041508,-0.0194,0.1096,0.0669,0.017,0.0076,-0.0024,-32.25,-29.85,1.725,,adl
2.043574,0.0081,0.0623,0.0798,0.017,0.0076,-0.0024,-32.25,-29.85,1.725,,adl
2.046135,0.0081,0.0623,0.0798,0.0052,-0.0027,0.002,-32.25,-29.85,1.725,,adl
2.061036,0.0081,0.0623,0.0798,0.0052,-0.0027,0.002,-32.25,-29.85,1.725,,adl
2.06328,0.036,0.0148,0.1423,0.0052,-0.0027,0.002,-32.25,-29.85,1.725,,adl
2.073105,0.036,0.0148,0.1423,0.0052,-0.0027,0.002,-32.325,-29.775,2.475,,adl
2.086088,0.036,0.0148,0.1423,0.0052,-0.0027,0.002,-32.325,-29.775,2.475,,adl
2.088132,0.0412,-0.0085,0.153,0.0052,-0.0027,0.002,-32.325,-29.775,2.475,,adl
2.10516,0.0412,-0.0085,0.153,0.0052,-0.0027,0.002,-32.325,-29.775,2.475,,adl
2.107364,0.0331,-0.0011,0.1368,0.0052,-0.0027,0.002,-32.325,-29.775,2.475,,adl
2.119467,0.0331,-0.0011,0.1368,-0.0243,-0.0133,-0.0041,-32.325,-29.775,2.475,,adl
2.124482,0.0331,-0.0011,0.1368,-0.0243,-0.0133,-0.0041,-32.325,-29.775,2.475,,adl
2.125779,0.0159,0.023,0.1282,-0.0243,-0.0133,-0.0041,-32.325,-29.775,2.475,,adl
2.144086,0.0159,0.023,0.1282,-0.0243,-0.0133,-0.0041,-32.325,-29.775,2.475,,adl
2.146208,0.0022,0.0409,0.0813,-0.0243,-0.0133,-0.0041,-32.325,-29.775,2.475,,adl
2.147742,0.0022,0.0409,0.0813,-0.0243,-0.0133,-0.0041,-32.775,-30.075,2.85,,adl
2.164476,0.0022,0.0409,0.0813,-0.0243,-0.0133,-0.0041,-32.775,-30.075,2.85,,adl
2.166585,-0.0201,0.0569,0.1046,-0.0243,-0.0133,-0.0041,-32.775,-30.075,2.85,,adl
2.188083,-0.0201,0.0569,0.1046,-0.0243,-0.0133,-0.0041,-32.775,-30.075,2.85,,adl
2.191436,-0.0143,0.0932,0.153,-0.0243,-0.0133,-0.0041,-32.775,-30.075,2.85,,adl
2.194001,-0.0143,0.0932,0.153,-0.0643,-0.0318,-0.0066,-32.775,-30.075,2.85,,adl
2.202642,-0.0143,0.0932,0.153,-0.0643,-0.0318,-0.0066,-32.775,-30.075,2.85,,adl
2.205409,0.0204,0.1008,0.1499,-0.0643,-0.0318,-0.0066,-32.775,-30.075,2.85,,adl
2.220383,0.0204,0.1008,0.1499,-0.0643,-0.0318,-0.0066,-32.25,-30.825,2.85,,adl
2.223462,0.0204,0.1008,0.1499,-0.0643,-0.0318,-0.0066,-32.25,-30.825,2.85,,adl
2.225638,0.0507,0.0488,0.1315,-0.0643,-0.0318,-0.0066,-32.25,-30.825,2.85,,adl
2.242169,0.0507,0.0488,0.1315,-0.0643,-0.0318,-0.0066,-32.25,-30.825,2.85,,adl
2.244976,0.0562,-0.0133,0.2411,-0.0643,-0.0318,-0.0066,-32.25,-30.825,2.85,,adl
2.256453,0.0562,-0.0133,0.2411,-0.058,-0.0319,-0.0003,-32.25,-30.825,2.85,,adl
2.261119,0.0562,-0.0133,0.2411,-0.058,-0.0319,-0.0003,-32.25,-30.825,2.85,,adl
2.262419,0.0226,-0.0333,0.297,-0.058,-0.0319,-0.0003,-32.25,-30.825,2.85,,adl
2.281631,0.0226,-0.0333,0.297,-0.058,-0.0319,-0.0003,-32.25,-30.825,2.85,,adl
2.285946,0.0674,0.007,0.104,-0.058,-0.0319,-0.0003,-32.25,-30.825,2.85,,adl
2.288736,0.0674,0.007,0.104,-0.058,-0.0319,-0.0003,-32.625,-30.825,2.175,,adl
2.305497,0.0674,0.007,0.104,-0.058,-0.0319,-0.0003,-32.625,-30.825,2.175,,adl
2.308037,0.0625,0.0614,0.0317,-0.058,-0.0319,-0.0003,-32.625,-30.825,2.175,,adl
2.320814,0.0625,0.0614,0.0317,-0.058,-0.0319,-0.0003,-32.625,-30.825,2.175,,adl
2.322801,0.0211,0.0639,0.0617,-0.058,-0.0319,-0.0003,-32.625,-30.825,2.175,,adl
2.324808,0.0211,0.0639,0.0617,-0.0467,-0.0125,0.0035,-32.625,-30.825,2.175,,adl
2.339632,0.0211,0.0639,0.0617,-0.0467,-0.0125,0.0035,-32.625,-30.825,2.175,,adl
2.341629,-0.0013,0.1182,0.3693,-0.0467,-0.0125,0.0035,-32.625,-30.825,2.175,,adl
2.353929,-0.0013,0.1182,0.3693,-0.0467,-0.0125,0.0035,-32.475,-30.75,2.55,,adl
2.359419,-0.0013,0.1182,0.3693,-0.0467,-0.0125,0.0035,-32.475,-30.75,2.55,,adl
2.360956,0.0465,0.1452,0.1869,-0.0467,-0.0125,0.0035,-32.475,-30.75,2.55,,adl
2.385004,0.0465,0.1452,0.1869,-0.0467,-0.0125,0.0035,-32.475,-30.75,2.55,,adl
2.38802,0.0239,0.0905,0.0692,-0.0467,-0.0125,0.0035,-32.475,-30.75,2.55,,adl
2.399573,0.0239,0.0905,0.0692,-0.0221,-0.0009,-0.005,-32.475,-30.75,2.55,,adl
2.403087,0.0239,0.0905,0.0692,-0.0221,-0.0009,-0.005,-32.475,-30.75,2.55,,adl
2.404697,-0.0663,-0.075,0.3016,-0.0221,-0.0009,-0.005,-32.475,-30.75,2.55,,adl
2.422682,-0.0663,-0.075,0.3016,-0.0221,-0.0009,-0.005,-32.475,-30.75,2.55,,adl
2.424912,0.0055,-0.1154,0.2522,-0.0221,-0.0009,-0.005,-32.475,-30.75,2.55,,adl
2.426513,0.0055,-0.1154,0.2522,-0.0221,-0.0009,-0.005,-32.175,-30.675,2.325,,adl
2.442398,0.0055,-0.1154,0.2522,-0.0221,-0.0009,-0.005,-32.175,-30.675,2.325,,adl
2.444619,0.1002,-0.0212,0.0285,-0.0221,-0.0009,-0.005,-32.175,-30.675,2.325,,adl
2.46238,0.1002,-0.0212,0.0285,-0.0221,-0.0009,-0.005,-32.175,-30.675,2.325,,adl
2.464809,0.0477,0.0916,0.0546,-0.0221,-0.0009,-0.005,-32.175,-30.675,2.325,,adl
2.467206,0.0477,0.0916,0.0546,0.015,-0.0292,-0.0144,-32.175,-30.675,2.325,,adl
2.482629,0.0477,0.0916,0.0546,0.015,-0.0292,-0.0144,-32.175,-30.675,2.325,,adl
2.484669,-0.0019,0.1203,0.166,0.015,-0.0292,-0.0144,-32.175,-30.675,2.325,,adl
2.492883,-0.0019,0.1203,0.166,0.015,-0.0292,-0.0144,-32.325,-30.45,2.85,,adl
2.501942,-0.0019,0.1203,0.166,0.015,-0.0292,-0.0144,-32.325,-30.45,2.85,,adl
2.503924,-0.0204,0.0574,0.2027,0.015,-0.0292,-0.0144,-32.325,-30.45,2.85,,adl
2.520763,-0.0204,0.0574,0.2027,0.015,-0.0292,-0.0144,-32.325,-30.45,2.85,,adl
2.522849,-0.015,-0.0014,0.1669,0.015,-0.0292,-0.0144,-32.325,-30.45,2.85,,adl
2.536318,-0.015,-0.0014,0.1669,-0.0243,-0.0157,-0.0122,-32.325,-30.45,2.85,,adl
2.540844,-0.015,-0.0014,0.1669,-0.0243,-0.0157,-0.0122,-32.325,-30.45,2.85,,adl
2.5427,0.022,0.0177,0.1252,-0.0243,-0.0157,-0.0122,-32.325,-30.45,2.85,,adl
2.559828,0.022,0.0177,0.1252,-0.0243,-0.0157,-0.0122,-32.325,-30.45,2.85,,adl
2.562488,0.0437,0.1002,0.0803,-0.0243,-0.0157,-0.0122,-32.325,-30.45,2.85,,adl
2.564514,0.0437,0.1002,0.0803,-0.0243,-0.0157,-0.0122,-32.4,-29.775,2.325,,adl
2.574727,0.0437,0.1002,0.0803,-0.0243,-0.0157,-0.0122,-32.4,-29.775,2.325,,adl
2.57647,0.023,0.1579,0.0734,-0.0243,-0.0157,-0.0122,-32.4,-29.775,2.325,,adl
2.599675,0.023,0.1579,0.0734,-0.0243,-0.0157,-0.0122,-32.4,-29.775,2.325,,adl
2.602933,-0.0197,0.1283,0.1787,-0.0243,-0.0157,-0.0122,-32.4,-29.775,2.325,,adl
2.605738,-0.0197,0.1283,0.1787,-0.0283,-0.0035,-0.0078,-32.4,-29.775,2.325,,adl
2.620511,-0.0197,0.1283,0.1787,-0.0283,-0.0035,-0.0078,-32.4,-29.775,2.325,,adl
2.622956,-0.0225,0.0542,0.2144,-0.0283,-0.0035,-0.0078,-32.4,-29.775,2.325,,adl
2.63376,-0.0225,0.0542,0.2144,-0.0283,-0.0035,-0.0078,-32.7,-29.775,2.25,,adl
2.636114,-0.0225,0.0542,0.2144,-0.0283,-0.0035,-0.0078,-32.7,-29.775,2.25,,adl
2.638321,0.0148,0.0081,0.1808,-0.0283,-0.0035,-0.0078,-32.7,-29.775,2.25,,adl
2.662662,0.0148,0.0081,0.1808,-0.0283,-0.0035,-0.0078,-32.7,-29.775,2.25,,adl
2.665336,-0.0089,0.0398,0.001,-0.0283,-0.0035,-0.0078,-32.7,-29.775,2.25,,adl
2.677089,-0.0089,0.0398,0.001,-0.0232,0.0035,0.0003,-32.7,-29.775,2.25,,adl
2.68207,-0.0089,0.0398,0.001,-0.0232,0.0035,0.0003,-32.7,-29.775,2.25,,adl
2.684105,0.0129,0.0286,0.1071,-0.0232,0.0035,0.0003,-32.7,-29.775,2.25,,adl
2.704414,0.0129,0.0286,0.1071,-0.0232,0.0035,0.0003,-32.7,-29.775,2.25,,adl
2.70674,0.0325,0.0024,0.186,-0.0232,0.0035,0.0003,-32.7,-29.775,2.25,,adl
2.70827,0.0325,0.0024,0.186,-0.0232,0.0035,0.0003,-32.55,-29.925,2.175,,adl
2.722694,0.0325,0.0024,0.186,-0.0232,0.0035,0.0003,-32.55,-29.925,2.175,,adl
2.724788,-0.0094,0.0174,0.1392,-0.0232,0.0035,0.0003,-32.55,-29.925,2.175,,adl
2.740978,-0.0094,0.0174,0.1392,-0.0232,0.0035,0.0003,-32.55,-29.925,2.175,,adl
2.743267,0.0072,0.0438,0.1153,-0.0232,0.0035,0.0003,-32.55,-29.925,2.175,,adl
2.745512,0.0072,0.0438,0.1153,-0.0344,-0.0015,-0.0018,-32.55,-29.925,2.175,,adl
2.76005,0.0072,0.0438,0.1153,-0.0344,-0.0015,-0.0018,-32.55,-29.925,2.175,,adl
2.762126,0.0131,0.0639,0.1071,-0.0344,-0.0015,-0.0018,-32.55,-29.925,2.175,,adl
2.773097,0.0131,0.0639,0.1071,-0.0344,-0.0015,-0.0018,-32.1,-30.225,2.475,,adl
2.775881,0.0131,0.0639,0.1071,-0.0344,-0.0015,-0.0018,-32.1,-30.225,2.475,,adl
2.777888,0.0046,0.0678,0.0974,-0.0344,-0.0015,-0.0018,-32.1,-30.225,2.475,,adl
2.801431,0.0046,0.0678,0.0974,-0.0344,-0.0015,-0.0018,-32.1,-30.225,2.475,,adl
2.805144,0.0232,0.0631,0.1787,-0.0344,-0.0015,-0.0018,-32.1,-30.225,2.475,,adl
2.816257,0.0232,0.0631,0.1787,-0.0605,0.005,0.0002,-32.1,-30.225,2.475,,adl
2.820089,0.0232,0.0631,0.1787,-0.0605,0.005,0.0002,-32.1,-30.225,2.475,,adl
2.822835,0.0303,0.0273,0.2999,-0.0605,0.005,0.0002,-32.1,-30.225,2.475,,adl
2.839084,0.0303,0.0273,0.2999,-0.0605,0.005,0.0002,-32.1,-30.225,2.475,,adl
2.841479,0.0145,0.0042,0.2974,-0.0605,0.005,0.0002,-32.1,-30.225,2.475,,adl
2.843766,0.0145,0.0042,0.2974,-0.0605,0.005,0.0002,-32.4,-30.75,1.65,,adl
2.858554,0.0145,0.0042,0.2974,-0.0605,0.005,0.0002,-32.4,-30.75,1.65,,adl
2.860832,0.016,0.0095,0.2201,-0.0605,0.005,0.0002,-32.4,-30.75,1.65,,adl
2.87516,0.016,0.0095,0.2201,-0.0605,0.005,0.0002,-32.4,-30.75,1.65,,adl
2.877821,0.0079,0.0236,0.1161,-0.0605,0.005,0.0002,-32.4,-30.75,1.65,,adl
2.883255,0.0079,0.0236,0.1161,-0.0104,0.0127,0.002,-32.4,-30.75,1.65,,adl
2.904089,0.0079,0.0236,0.1161,-0.0104,0.0127,0.002,-32.4,-30.75,1.65,,adl
2.907054,-0.0046,0.0532,0.0029,-0.0104,0.0127,0.002,-32.4,-30.75,1.65,,adl
2.920378,-0.0046,0.0532,0.0029,-0.0104,0.0127,0.002,-32.625,-30.45,1.95,,adl
2.923125,-0.0046,0.0532,0.0029,-0.0104,0.0127,0.002,-32.625,-30.45,1.95,,adl
2.924829,0.02,0.1193,0.0558,-0.0104,0.0127,0.002,-32.625,-30.45,1.95,,adl
2.941678,0.02,0.1193,0.0558,-0.0104,0.0127,0.002,-32.625,-30.45,1.95,,adl
2.943446,0.0294,0.1262,0.1323,-0.0104,0.0127,0.002,-32.625,-30.45,1.95,,adl
2.955844,0.0294,0.1262,0.1323,-0.0099,0.0029,-0.0023,-32.625,-30.45,1.95,,adl
2.960753,0.0294,0.1262,0.1323,-0.0099,0.0029,-0.0023,-32.625,-30.45,1.95,,adl
2.962285,0.0155,0.0871,0.1184,-0.0099,0.0029,-0.0023,-32.625,-30.45,1.95,,adl
2.980978,0.0155,0.0871,0.1184,-0.0099,0.0029,-0.0023,-32.625,-30.45,1.95,,adl
2.982703,0.015,0.0683,0.148,-0.0099,0.0029,-0.0023,-32.625,-30.45,1.95,,adl
2.987085,0.015,0.0683,0.148,-0.0099,0.0029,-0.0023,-32.775,-30.375,2.175,,adl
3.002932,0.015,0.0683,0.148,-0.0099,0.0029,-0.0023,-32.775,-30.375,2.175,,adl
3.004423,0.0123,0.0523,0.1413,-0.0099,0.0029,-0.0023,-32.775,-30.375,2.175,,adl
3.020768,0.0123,0.0523,0.1413,-0.0099,0.0029,-0.0023,-32.775,-30.375,2.175,,adl
3.022395,0.0212,0.0531,0.0936,-0.0099,0.0029,-0.0023,-32.775,-30.375,2.175,,adl
3.025737,0.0212,0.0531,0.0936,-0.0027,0.0034,-0.0011,-32.775,-30.375,2.175,,adl
3.040143,0.0212,0.0531,0.0936,-0.0027,0.0034,-0.0011,-32.775,-30.375,2.175,,adl
3.041579,0.0129,0.0647,0.0539,-0.0027,0.0034,-0.0011,-32.775,-30.375,2.175,,adl
3.054407,0.0129,0.0647,0.0539,-0.0027,0.0034,-0.0011,-32.325,-30.675,2.175,,adl
3.058598,0.0129,0.0647,0.0539,-0.0027,0.0034,-0.0011,-32.325,-30.675,2.175,,adl
3.060284,-0.0074,0.0554,0.1493,-0.0027,0.0034,-0.0011,-32.325,-30.675,2.175,,adl
3.07466,-0.0074,0.0554,0.1493,-0.0027,0.0034,-0.0011,-32.325,-30.675,2.175,,adl
3.076664,-0.0098,0.0327,0.2045,-0.0027,0.0034,-0.0011,-32.325,-30.675,2.175,,adl
3.092712,-0.0098,0.0327,0.2045,-0.0012,-0.0023,0.0021,-32.325,-30.675,2.175,,adl
3.103617,-0.0098,0.0327,0.2045,-0.0012,-0.0023,0.0021,-32.325,-30.675,2.175,,adl
3.105707,0.0395,0.039,0.148,-0.0012,-0.0023,0.0021,-32.325,-30.675,2.175,,adl
3.120844,0.0395,0.039,0.148,-0.0012,-0.0023,0.0021,-32.325,-30.675,2.175,,adl
3.122895,0.0215,0.0228,0.1225,-0.0012,-0.0023,0.0021,-32.325,-30.675,2.175,,adl
3.124292,0.0215,0.0228,0.1225,-0.0012,-0.0023,0.0021,-32.25,-30.075,2.85,,adl
3.137103,0.0215,0.0228,0.1225,-0.0012,-0.0023,0.0021,-32.25,-30.075,2.85,,adl
3.1393,0.0076,-0.0049,0.0514,-0.0012,-0.0023,0.0021,-32.25,-30.075,2.85,,adl
3.157455,0.0076,-0.0049,0.0514,-0.0012,-0.0023,0.0021,-32.25,-30.075,2.85,,adl
3.159212,-0.0366,0.0705,0.2634,-0.0012,-0.0023,0.0021,-32.25,-30.075,2.85,,adl
3.162668,-0.0366,0.0705,0.2634,-0.0035,0.0104,-0.0008,-32.25,-30.075,2.85,,adl
3.176088,-0.0366,0.0705,0.2634,-0.0035,0.0104,-0.0008,-32.25,-30.075,2.85,,adl
3.177801,-0.037,0.1012,0.1488,-0.0035,0.0104,-0.0008,-32.25,-30.075,2.85,,adl
3.194036,-0.037,0.1012,0.1488,-0.0035,0.0104,-0.0008,-32.25,-30.075,2.85,,adl
3.195601,0.0447,0.1203,0.0014,-0.0035,0.0104,-0.0008,-32.25,-30.075,2.85,,adl
3.196722,0.0447,0.1203,0.0014,-0.0035,0.0104,-0.0008,-32.1,-30.75,2.25,,adl
3.216152,0.0447,0.1203,0.0014,-0.0035,0.0104,-0.0008,-32.1,-30.75,2.25,,adl
3.219169,-0.0201,0.0305,0.1109,-0.0035,0.0104,-0.0008,-32.1,-30.75,2.25,,adl
3.229892,-0.0201,0.0305,0.1109,0.004,-0.0076,0.0002,-32.1,-30.75,2.25,,adl
3.239548,-0.0201,0.0305,0.1109,0.004,-0.0076,0.0002,-32.1,-30.75,2.25,,adl
3.241781,0.0175,-0.0363,0.2642,0.004,-0.0076,0.0002,-32.1,-30.75,2.25,,adl
3.255117,0.0175,-0.0363,0.2642,0.004,-0.0076,0.0002,-32.1,-30.75,2.25,,adl
3.25758,0.0734,0.0012,0.1864,0.004,-0.0076,0.0002,-32.1,-30.75,2.25,,adl
3.269736,0.0734,0.0012,0.1864,0.004,-0.0076,0.0002,-32.1,-30.225,2.025,,adl
3.27495,0.0734,0.0012,0.1864,0.004,-0.0076,0.0002,-32.1,-30.225,2.025,,adl
3.276523,0.0562,0.0429,0.0872,0.004,-0.0076,0.0002,-32.1,-30.225,2.025,,adl
3.299322,0.0562,0.0429,0.0872,0.004,-0.0076,0.0002,-32.1,-30.225,2.025,,adl
3.302324,-0.0039,0.0658,0.1313,0.004,-0.0076,0.0002,-32.1,-30.225,2.025,,adl
3.304056,-0.0039,0.0658,0.1313,0.0115,-0.0087,0.0005,-32.1,-30.225,2.025,,adl
3.320428,-0.0039,0.0658,0.1313,0.0115,-0.0087,0.0005,-32.1,-30.225,2.025,,adl
3.322814,-0.0217,0.0558,0.147,0.0115,-0.0087,0.0005,-32.1,-30.225,2.025,,adl
3.32863,-0.0217,0.0558,0.147,0.0115,-0.0087,0.0005,-32.625,-29.775,2.175,,adl
3.338144,-0.0217,0.0558,0.147,0.0115,-0.0087,0.0005,-32.625,-29.775,2.175,,adl
3.340253,-0.0027,0.0357,0.1391,0.0115,-0.0087,0.0005,-32.625,-29.775,2.175,,adl
3.357968,-0.0027,0.0357,0.1391,0.0115,-0.0087,0.0005,-32.625,-29.775,2.175,,adl
3.35955,0.0093,0.0368,0.1725,0.0115,-0.0087,0.0005,-32.625,-29.775,2.175,,adl
3.372424,0.0093,0.0368,0.1725,0.0021,0.0014,0.0014,-32.625,-29.775,2.175,,adl
3.375691,0.0093,0.0368,0.1725,0.0021,0.0014,0.0014,-32.625,-29.775,2.175,,adl
3.376491,0.0137,0.045,0.1633,0.0021,0.0014,0.0014,-32.625,-29.775,2.175,,adl
3.396906,0.0137,0.045,0.1633,0.0021,0.0014,0.0014,-32.625,-29.775,2.175,,adl
3.398222,0.0316,0.0743,0.086,0.0021,0.0014,0.0014,-32.625,-29.775,2.175,,adl
3.401057,0.0316,0.0743,0.086,0.0021,0.0014,0.0014,-32.55,-30.45,2.325,,adl
3.421332,0.0316,0.0743,0.086,0.0021,0.0014,0.0014,-32.55,-30.45,2.325,,adl
3.423608,0.0065,0.0757,0.0778,0.0021,0.0014,0.0014,-32.55,-30.45,2.325,,adl
3.436565,0.0065,0.0757,0.0778,0.0021,0.0014,0.0014,-32.55,-30.45,2.325,,adl
3.439614,0.0073,0.0463,0.1526,0.0021,0.0014,0.0014,-32.55,-30.45,2.325,,adl
3.44255,0.0073,0.0463,0.1526,-0.0012,0.0026,-0.0009,-32.55,-30.45,2.325,,adl
3.455637,0.0073,0.0463,0.1526,-0.0012,0.0026,-0.0009,-32.55,-30.45,2.325,,adl
3.458526,0.021,0.0147,0.2514,-0.0012,0.0026,-0.0009,-32.55,-30.45,2.325,,adl
3.465325,0.021,0.0147,0.2514,-0.0012,0.0026,-0.0009,-32.625,-30.825,2.025,,adl
3.474302,0.021,0.0147,0.2514,-0.0012,0.0026,-0.0009,-32.625,-30.825,2.025,,adl
3.476212,0.01,0.0325,0.0467,-0.0012,0.0026,-0.0009,-32.625,-30.825,2.025,,adl
3.493541,0.01,0.0325,0.0467,-0.0012,0.0026,-0.0009,-32.625,-30.825,2.025,,adl
3.495648,-0.0234,0.0488,0.0558,-0.0012,0.0026,-0.0009,-32.625,-30.825,2.025,,adl
3.508367,-0.0234,0.0488,0.0558,-0.0069,0.0014,-0.0012,-32.625,-30.825,2.025,,adl
3.519074,-0.0234,0.0488,0.0558,-0.0069,0.0014,-0.0012,-32.625,-30.825,2.025,,adl
3.521069,-0.0043,0.0086,0.2144,-0.0069,0.0014,-0.0012,-32.625,-30.825,2.025,,adl
3.538375,-0.0043,0.0086,0.2144,-0.0069,0.0014,-0.0012,-32.625,-30.825,2.025,,adl
3.54081,0.0087,-0.0297,0.221,-0.0069,0.0014,-0.0012,-32.625,-30.825,2.025,,adl
3.543449,0.0087,-0.0297,0.221,-0.0069,0.0014,-0.0012,-32.4,-29.925,1.65,,adl
3.557371,0.0087,-0.0297,0.221,-0.0069,0.0014,-0.0012,-32.4,-29.925,1.65,,adl
3.559338,0.006,-0.0069,0.1475,-0.0069,0.0014,-0.0012,-32.4,-29.925,1.65,,adl
3.574968,0.006,-0.0069,0.1475,-0.0069,0.0014,-0.0012,-32.4,-29.925,1.65,,adl
3.57776,0.0054,0.0365,0.156,-0.0069,0.0014,-0.0012,-32.4,-29.925,1.65,,adl
3.586101,0.0054,0.0365,0.156,-0.0038,0.009,0.0035,-32.4,-29.925,1.65,,adl
3.601489,0.0054,0.0365,0.156,-0.0038,0.009,0.0035,-32.4,-29.925,1.65,,adl
3.603298,0.0051,0.0694,0.1896,-0.0038,0.009,0.0035,-32.4,-29.925,1.65,,adl
3.606914,0.0051,0.0694,0.1896,-0.0038,0.009,0.0035,-32.175,-30.45,2.25,,adl
3.618313,0.0051,0.0694,0.1896,-0.0038,0.009,0.0035,-32.175,-30.45,2.25,,adl
3.62025,0.019,0.0624,0.1344,-0.0038,0.009,0.0035,-32.175,-30.45,2.25,,adl
3.635652,0.019,0.0624,0.1344,-0.0038,0.009,0.0035,-32.175,-30.45,2.25,,adl
3.638291,0.004,0.0496,0.1181,-0.0038,0.009,0.0035,-32.175,-30.45,2.25,,adl
3.650741,0.004,0.0496,0.1181,0.0005,0.0038,0.0024,-32.175,-30.45,2.25,,adl
3.655452,0.004,0.0496,0.1181,0.0005,0.0038,0.0024,-32.175,-30.45,2.25,,adl
3.657881,0.02,0.0476,0.1466,0.0005,0.0038,0.0024,-32.175,-30.45,2.25,,adl
3.675663,0.02,0.0476,0.1466,0.0005,0.0038,0.0024,-32.175,-30.45,2.25,,adl
3.678834,0.0039,0.0706,0.1099,0.0005,0.0038,0.0024,-32.175,-30.45,2.25,,adl
3.680732,0.0039,0.0706,0.1099,0.0005,0.0038,0.0024,-32.25,-31.05,2.175,,adl
3.694801,0.0039,0.0706,0.1099,0.0005,0.0038,0.0024,-32.25,-31.05,2.175,,adl
3.696895,-0.0103,0.0721,0.0873,0.0005,0.0038,0.0024,-32.25,-31.05,2.175,,adl
3.714582,-0.0103,0.0721,0.0873,0.0005,0.0038,0.0024,-32.25,-31.05,2.175,,adl
3.71918,0.0312,0.0597,0.1418,0.0005,0.0038,0.0024,-32.25,-31.05,2.175,,adl
3.722444,0.0312,0.0597,0.1418,-0.0034,-0.0023,-0.0009,-32.25,-31.05,2.175,,adl
3.735795,0.0312,0.0597,0.1418,-0.0034,-0.0023,-0.0009,-32.25,-31.05,2.175,,adl
3.738128,0.0377,0.0435,0.1859,-0.0034,-0.0023,-0.0009,-32.25,-31.05,2.175,,adl
3.743647,0.0377,0.0435,0.1859,-0.0034,-0.0023,-0.0009,-32.55,-30.45,1.95,,adl
3.752829,0.0377,0.0435,0.1859,-0.0034,-0.0023,-0.0009,-32.55,-30.45,1.95,,adl
3.754859,0.0223,0.0272,0.1716,-0.0034,-0.0023,-0.0009,-32.55,-30.45,1.95,,adl
3.774715,0.0223,0.0272,0.1716,-0.0034,-0.0023,-0.0009,-32.55,-30.45,1.95,,adl
3.77697,0.0024,0.0312,0.1501,-0.0034,-0.0023,-0.0009,-32.55,-30.45,1.95,,adl
3.792467,0.0024,0.0312,0.1501,0.0024,0.0035,-0.0006,-32.55,-30.45,1.95,,adl
3.798619,0.0024,0.0312,0.1501,0.0024,0.0035,-0.0006,-32.55,-30.45,1.95,,adl
3.800819,0.0082,0.038,0.1556,0.0024,0.0035,-0.0006,-32.55,-30.45,1.95,,adl
3.816853,0.0082,0.038,0.1556,0.0024,0.0035,-0.0006,-32.55,-30.45,1.95,,adl
3.820334,0.0057,0.051,0.1517,0.0024,0.0035,-0.0006,-32.55,-30.45,1.95,,adl
3.822592,0.0057,0.051,0.1517,0.0024,0.0035,-0.0006,-32.475,-30.75,2.55,,adl
3.83671,0.0057,0.051,0.1517,0.0024,0.0035,-0.0006,-32.475,-30.75,2.55,,adl
3.839077,-0.0094,0.0476,0.158,0.0024,0.0035,-0.0006,-32.475,-30.75,2.55,,adl
3.856246,-0.0094,0.0476,0.158,0.0024,0.0035,-0.0006,-32.475,-30.75,2.55,,adl
3.859121,-0.0147,0.0575,0.1253,0.0024,0.0035,-0.0006,-32.475,-30.75,2.55,,adl
3.861815,-0.0147,0.0575,0.1253,0.0032,0.007,-0.0005,-32.475,-30.75,2.55,,adl
3.875246,-0.0147,0.0575,0.1253,0.0032,0.007,-0.0005,-32.475,-30.75,2.55,,adl
3.878077,-0.006,0.0417,0.1244,0.0032,0.007,-0.0005,-32.475,-30.75,2.55,,adl
3.885856,-0.006,0.0417,0.1244,0.0032,0.007,-0.0005,-32.775,-30.675,2.475,,adl
3.894843,-0.006,0.0417,0.1244,0.0032,0.007,-0.0005,-32.775,-30.675,2.475,,adl
3.897667,0.0205,0.0234,0.1451,0.0032,0.007,-0.0005,-32.775,-30.675,2.475,,adl
3.914284,0.0205,0.0234,0.1451,0.0032,0.007,-0.0005,-32.775,-30.675,2.475,,adl
3.917126,-0.0166,0.0002,0.2385,0.0032,0.007,-0.0005,-32.775,-30.675,2.475,,adl
3.928616,-0.0166,0.0002,0.2385,-0.0002,0.0002,0.0011,-32.775,-30.675,2.475,,adl
3.936712,-0.0166,0.0002,0.2385,-0.0002,0.0002,0.0011,-32.775,-30.675,2.475,,adl
3.938611,-0.0016,0.0074,0.1819,-0.0002,0.0002,0.0011,-32.775,-30.675,2.475,,adl
3.953697,-0.0016,0.0074,0.1819,-0.0002,0.0002,0.0011,-32.775,-30.675,2.475,,adl
3.956046,0.0571,0.0664,0.0729,-0.0002,0.0002,0.0011,-32.775,-30.675,2.475,,adl
3.957667,0.0571,0.0664,0.0729,-0.0002,0.0002,0.0011,-31.575,-30.375,1.95,,adl
3.973398,0.0571,0.0664,0.0729,-0.0002,0.0002,0.0011,-31.575,-30.375,1.95,,adl
3.975751,0.012,0.0833,0.0341,-0.0002,0.0002,0.0011,-31.575,-30.375,1.95,,adl
3.993315,0.012,0.0833,0.0341,-0.0002,0.0002,0.0011,-31.575,-30.375,1.95,,adl
3.995948,-0.0038,0.0639,0.1388,-0.0002,0.0002,0.0011,-31.575,-30.375,1.95,,adl
3.998117,-0.0038,0.0639,0.1388,-0.0026,-0.0011,-0.0012,-31.575,-30.375,1.95,,adl
4.012484,-0.0038,0.0639,0.1388,-0.0026,-0.0011,-0.0012,-31.575,-30.375,1.95,,adl
4.015131,-0.0291,0.0888,0.2518,-0.0026,-0.0011,-0.0012,-31.575,-30.375,1.95,,adl
4.023309,-0.0291,0.0888,0.2518,-0.0026,-0.0011,-0.0012,-32.25,-30.45,1.95,,adl
4.036282,-0.0291,0.0888,0.2518,-0.0026,-0.0011,-0.0012,-32.25,-30.45,1.95,,adl
4.038482,0.053,0.1261,-0.0392,-0.0026,-0.0011,-0.0012,-32.25,-30.45,1.95,,adl
4.051224,0.053,0.1261,-0.0392,-0.0026,-0.0011,-0.0012,-32.25,-30.45,1.95,,adl
4.053357,0.0131,0.0927,0.0496,-0.0026,-0.0011,-0.0012,-32.25,-30.45,1.95,,adl
4.072007,0.0131,0.0927,0.0496,-0.0136,0.0017,-0.0018,-32.25,-30.45,1.95,,adl
4.074684,0.0131,0.0927,0.0496,-0.0136,0.0017,-0.0018,-32.25,-30.45,1.95,,adl
4.076103,-0.029,-0.0722,0.3744,-0.0136,0.0017,-0.0018,-32.25,-30.45,1.95,,adl
4.095294,-0.029,-0.0722,0.3744,-0.0136,0.0017,-0.0018,-32.25,-30.45,1.95,,adl
4.097926,0.0255,-0.123,0.2876,-0.0136,0.0017,-0.0018,-32.25,-30.45,1.95,,adl
4.0999,0.0255,-0.123,0.2876,-0.0136,0.0017,-0.0018,-32.625,-29.85,2.325,,adl
4.117554,0.0255,-0.123,0.2876,-0.0136,0.0017,-0.0018,-32.625,-29.85,2.325,,adl
4.118589,0.0592,-0.029,0.0364,-0.0136,0.0017,-0.0018,-32.625,-29.85,2.325,,adl
4.137162,0.0592,-0.029,0.0364,-0.0136,0.0017,-0.0018,-32.625,-29.85,2.325,,adl
4.138505,0.0031,0.1116,0.0905,-0.0136,0.0017,-0.0018,-32.625,-29.85,2.325,,adl
4.140897,0.0031,0.1116,0.0905,0.0215,-0.0188,-0.0038,-32.625,-29.85,2.325,,adl
4.154509,0.0031,0.1116,0.0905,0.0215,-0.0188,-0.0038,-32.625,-29.85,2.325,,adl
4.155231,-0.0152,0.1449,0.1572,0.0215,-0.0188,-0.0038,-32.625,-29.85,2.325,,adl
4.165933,-0.0152,0.1449,0.1572,0.0215,-0.0188,-0.0038,-31.95,-30.15,2.175,,adl
4.174634,-0.0152,0.1449,0.1572,0.0215,-0.0188,-0.0038,-31.95,-30.15,2.175,,adl
4.175359,-0.0133,0.0759,0.1395,0.0215,-0.0188,-0.0038,-31.95,-30.15,2.175,,adl
4.193715,-0.0133,0.0759,0.1395,0.0215,-0.0188,-0.0038,-31.95,-30.15,2.175,,adl
4.195113,0.0107,0.0004,0.1539,0.0215,-0.0188,-0.0038,-31.95,-30.15,2.175,,adl
4.208305,0.0107,0.0004,0.1539,-0.0115,-0.009,-0.0017,-31.95,-30.15,2.175,,adl
4.213714,0.0107,0.0004,0.1539,-0.0115,-0.009,-0.0017,-31.95,-30.15,2.175,,adl
4.214981,0.0254,-0.0031,0.1874,-0.0115,-0.009,-0.0017,-31.95,-30.15,2.175,,adl
4.232926,0.0254,-0.0031,0.1874,-0.0115,-0.009,-0.0017,-31.95,-30.15,2.175,,adl
4.234896,0.0097,0.0492,0.1325,-0.0115,-0.009,-0.0017,-31.95,-30.15,2.175,,adl
4.236309,0.0097,0.0492,0.1325,-0.0115,-0.009,-0.0017,-32.1,-31.125,2.85,,adl
4.252505,0.0097,0.0492,0.1325,-0.0115,-0.009,-0.0017,-32.1,-31.125,2.85,,adl
4.254071,-0.0096,0.1,0.1088,-0.0115,-0.009,-0.0017,-32.1,-31.125,2.85,,adl
4.271681,-0.0096,0.1,0.1088,-0.0115,-0.009,-0.0017,-32.1,-31.125,2.85,,adl
4.274159,-0.012,0.091,0.1452,-0.0115,-0.009,-0.0017,-32.1,-31.125,2.85,,adl
4.276052,-0.012,0.091,0.1452,-0.0142,-0.0053,-0.0052,-32.1,-31.125,2.85,,adl
4.291051,-0.012,0.091,0.1452,-0.0142,-0.0053,-0.0052,-32.1,-31.125,2.85,,adl
4.293889,-0.0046,0.0204,0.1915,-0.0142,-0.0053,-0.0052,-32.1,-31.125,2.85,,adl
4.303519,-0.0046,0.0204,0.1915,-0.0142,-0.0053,-0.0052,-32.4,-30.825,1.575,,adl
4.310891,-0.0046,0.0204,0.1915,-0.0142,-0.0053,-0.0052,-32.4,-30.825,1.575,,adl
4.313142,0.0037,-0.0048,0.1998,-0.0142,-0.0053,-0.0052,-32.4,-30.825,1.575,,adl
4.335187,0.0037,-0.0048,0.1998,-0.0142,-0.0053,-0.0052,-32.4,-30.825,1.575,,adl
4.338142,-0.0261,0.0365,0.0488,-0.0142,-0.0053,-0.0052,-32.4,-30.825,1.575,,adl
4.354183,-0.0261,0.0365,0.0488,-0.0145,-0.0014,-0.002,-32.4,-30.825,1.575,,adl
4.356092,-0.0261,0.0365,0.0488,-0.0145,-0.0014,-0.002,-32.4,-30.825,1.575,,adl
4.357559,0.0006,0.0279,0.1741,-0.0145,-0.0014,-0.002,-32.4,-30.825,1.575,,adl
4.374131,0.0006,0.0279,0.1741,-0.0145,-0.0014,-0.002,-32.4,-30.825,1.575,,adl
4.375997,0.0201,-0.0056,0.2351,-0.0145,-0.0014,-0.002,-32.4,-30.825,1.575,,adl
4.378206,0.0201,-0.0056,0.2351,-0.0145,-0.0014,-0.002,-32.25,-30.375,1.35,,adl
4.393907,0.0201,-0.0056,0.2351,-0.0145,-0.0014,-0.002,-32.25,-30.375,1.35,,adl
4.39644,0.0005,-0.018,0.1563,-0.0145,-0.0014,-0.002,-32.25,-30.375,1.35,,adl
4.413591,0.0005,-0.018,0.1563,-0.0145,-0.0014,-0.002,-32.25,-30.375,1.35,,adl
4.417101,0.0033,0.0108,0.1532,-0.0145,-0.0014,-0.002,-32.25,-30.375,1.35,,adl
4.419571,0.0033,0.0108,0.1532,-0.0075,0.0008,-0.0018,-32.25,-30.375,1.35,,adl
4.440285,0.0033,0.0108,0.1532,-0.0075,0.0008,-0.0018,-32.25,-30.375,1.35,,adl
4.443087,-0.0104,0.0671,0.1374,-0.0075,0.0008,-0.0018,-32.25,-30.375,1.35,,adl
4.445285,-0.0104,0.0671,0.1374,-0.0075,0.0008,-0.0018,-32.4,-30.45,1.725,,adl
4.454417,-0.0104,0.0671,0.1374,-0.0075,0.0008,-0.0018,-32.4,-30.45,1.725,,adl
4.45677,0.0003,0.0918,0.1325,-0.0075,0.0008,-0.0018,-32.4,-30.45,1.725,,adl
4.472745,0.0003,0.0918,0.1325,-0.0075,0.0008,-0.0018,-32.4,-30.45,1.725,,adl
4.474733,0.0187,0.0817,0.1213,-0.0075,0.0008,-0.0018,-32.4,-30.45,1.725,,adl
4.486743,0.0187,0.0817,0.1213,-0.0153,0.0055,0.0005,-32.4,-30.45,1.725,,adl
4.492199,0.0187,0.0817,0.1213,-0.0153,0.0055,0.0005,-32.4,-30.45,1.725,,adl
4.494096,0.0254,0.0408,0.1367,-0.0153,0.0055,0.0005,-32.4,-30.45,1.725,,adl
4.511206,0.0254,0.0408,0.1367,-0.0153,0.0055,0.0005,-32.4,-30.45,1.725,,adl
4.514559,0.009,0.0399,0.1477,-0.0153,0.0055,0.0005,-32.4,-30.45,1.725,,adl
4.517393,0.009,0.0399,0.1477,-0.0153,0.0055,0.0005,-32.175,-29.925,2.175,,adl
4.531364,0.009,0.0399,0.1477,-0.0153,0.0055,0.0005,-32.175,-29.925,2.175,,adl
4.534452,-0.0252,0.0414,0.1412,-0.0153,0.0055,0.0005,-32.175,-29.925,2.175,,adl
4.554378,-0.0252,0.0414,0.1412,-0.0153,0.0055,0.0005,-32.175,-29.925,2.175,,adl
4.556449,-0.0209,0.0594,0.1246,-0.0153,0.0055,0.0005,-32.175,-29.925,2.175,,adl
4.558511,-0.0209,0.0594,0.1246,-0.0113,-0.0018,-0.0031,-32.175,-29.925,2.175,,adl
4.570599,-0.0209,0.0594,0.1246,-0.0113,-0.0018,-0.0031,-32.175,-29.925,2.175,,adl
4.573546,0.0121,0.0559,0.1408,-0.0113,-0.0018,-0.0031,-32.175,-29.925,2.175,,adl
4.586842,0.0121,0.0559,0.1408,-0.0113,-0.0018,-0.0031,-31.875,-29.85,2.025,,adl
4.590061,0.0121,0.0559,0.1408,-0.0113,-0.0018,-0.0031,-31.875,-29.85,2.025,,adl
4.591548,0.0454,0.0466,0.1249,-0.0113,-0.0018,-0.0031,-31.875,-29.85,2.025,,adl
4.614104,0.0454,0.0466,0.1249,-0.0113,-0.0018,-0.0031,-31.875,-29.85,2.025,,adl
4.617946,0.0723,0.027,0.1414,-0.0113,-0.0018,-0.0031,-31.875,-29.85,2.025,,adl
4.628399,0.0723,0.027,0.1414,-0.016,-0.0027,-0.0067,-31.875,-29.85,2.025,,adl
4.633435,0.0723,0.027,0.1414,-0.016,-0.0027,-0.0067,-31.875,-29.85,2.025,,adl
4.63545,0.0295,-0.0028,0.184,-0.016,-0.0027,-0.0067,-31.875,-29.85,2.025,,adl
4.654187,0.0295,-0.0028,0.184,-0.016,-0.0027,-0.0067,-31.875,-29.85,2.025,,adl
4.656718,-0.0898,-0.0039,0.1437,-0.016,-0.0027,-0.0067,-31.875,-29.85,2.025,,adl
4.658631,-0.0898,-0.0039,0.1437,-0.016,-0.0027,-0.0067,-31.65,-30.375,2.55,,adl
4.67239,-0.0898,-0.0039,0.1437,-0.016,-0.0027,-0.0067,-31.65,-30.375,2.55,,adl
4.67503,-0.1588,0.0695,0.135,-0.016,-0.0027,-0.0067,-31.65,-30.375,2.55,,adl
4.691845,-0.1588,0.0695,0.135,-0.016,-0.0027,-0.0067,-31.65,-30.375,2.55,,adl
4.693873,-0.151,0.1304,0.1644,-0.016,-0.0027,-0.0067,-31.65,-30.375,2.55,,adl
4.701621,-0.151,0.1304,0.1644,-0.014,-0.0241,-0.0319,-31.65,-30.375,2.55,,adl
4.711366,-0.151,0.1304,0.1644,-0.014,-0.0241,-0.0319,-31.65,-30.375,2.55,,adl
4.712855,-0.1046,0.1174,0.1059,-0.014,-0.0241,-0.0319,-31.65,-30.375,2.55,,adl
4.72396,-0.1046,0.1174,0.1059,-0.014,-0.0241,-0.0319,-32.325,-30.45,2.25,,adl
4.734958,-0.1046,0.1174,0.1059,-0.014,-0.0241,-0.0319,-32.325,-30.45,2.25,,adl
4.736944,0.0296,0.0505,0.0909,-0.014,-0.0241,-0.0319,-32.325,-30.45,2.25,,adl
4.751642,0.0296,0.0505,0.0909,-0.014,-0.0241,-0.0319,-32.325,-30.45,2.25,,adl
4.75389,0.0985,-0.0113,0.1913,-0.014,-0.0241,-0.0319,-32.325,-30.45,2.25,,adl
4.765075,0.0985,-0.0113,0.1913,-0.0058,-0.0096,-0.0264,-32.325,-30.45,2.25,,adl
4.770231,0.0985,-0.0113,0.1913,-0.0058,-0.0096,-0.0264,-32.325,-30.45,2.25,,adl
4.771994,0.0746,-0.0297,0.1863,-0.0058,-0.0096,-0.0264,-32.325,-30.45,2.25,,adl
4.790002,0.0746,-0.0297,0.1863,-0.0058,-0.0096,-0.0264,-32.325,-30.45,2.25,,adl
4.792266,0.09,0.0303,0.098,-0.0058,-0.0096,-0.0264,-32.325,-30.45,2.25,,adl
4.793824,0.09,0.0303,0.098,-0.0058,-0.0096,-0.0264,-32.4,-30.225,2.025,,adl
4.809624,0.09,0.0303,0.098,-0.0058,-0.0096,-0.0264,-32.4,-30.225,2.025,,adl
4.812227,0.1039,0.1079,0.1027,-0.0058,-0.0096,-0.0264,-32.4,-30.225,2.025,,adl
4.824867,0.1039,0.1079,0.1027,-0.0058,-0.0096,-0.0264,-32.4,-30.225,2.025,,adl
4.828518,0.071,0.0799,0.0491,-0.0058,-0.0096,-0.0264,-32.4,-30.225,2.025,,adl
4.833623,0.071,0.0799,0.0491,0.0035,0.0052,0.0176,-32.4,-30.225,2.025,,adl
4.852308,0.071,0.0799,0.0491,0.0035,0.0052,0.0176,-32.4,-30.225,2.025,,adl
4.854754,0.0508,0.0717,0.2243,0.0035,0.0052,0.0176,-32.4,-30.225,2.025,,adl
4.864813,0.0508,0.0717,0.2243,0.0035,0.0052,0.0176,-31.95,-30.825,1.275,,adl
4.872779,0.0508,0.0717,0.2243,0.0035,0.0052,0.0176,-31.95,-30.825,1.275,,adl
4.874528,-0.0031,0.0686,0.1173,0.0035,0.0052,0.0176,-31.95,-30.825,1.275,,adl
4.892794,-0.0031,0.0686,0.1173,0.0035,0.0052,0.0176,-31.95,-30.825,1.275,,adl
4.89505,0.0478,0.085,0.0184,0.0035,0.0052,0.0176,-31.95,-30.825,1.275,,adl
4.907231,0.0478,0.085,0.0184,-0.0023,0.0092,-0.0035,-31.95,-30.825,1.275,,adl
4.91202,0.0478,0.085,0.0184,-0.0023,0.0092,-0.0035,-31.95,-30.825,1.275,,adl
4.913589,-0.013,0.0129,0.2309,-0.0023,0.0092,-0.0035,-31.95,-30.825,1.275,,adl
4.932823,-0.013,0.0129,0.2309,-0.0023,0.0092,-0.0035,-31.95,-30.825,1.275,,adl
4.936131,-0.0316,-0.0473,0.3038,-0.0023,0.0092,-0.0035,-31.95,-30.825,1.275,,adl
4.938342,-0.0316,-0.0473,0.3038,-0.0023,0.0092,-0.0035,-32.325,-31.05,1.65,,adl
4.952992,-0.0316,-0.0473,0.3038,-0.0023,0.0092,-0.0035,-32.325,-31.05,1.65,,adl
4.955719,-0.0125,-0.01,0.1403,-0.0023,0.0092,-0.0035,-32.325,-31.05,1.65,,adl
4.97122,-0.0125,-0.01,0.1403,-0.0023,0.0092,-0.0035,-32.325,-31.05,1.65,,adl
4.974127,-0.0252,0.0739,0.0622,-0.0023,0.0092,-0.0035,-32.325,-31.05,1.65,,adl
4.975633,-0.0252,0.0739,0.0622,0.0186,-0.0102,-0.0053,-32.325,-31.05,1.65,,adl
4.990278,-0.0252,0.0739,0.0622,0.0186,-0.0102,-0.0053,-32.325,-31.05,1.65,,adl
4.992099,-0.0677,0.1135,0.1688,0.0186,-0.0102,-0.0053,-32.325,-31.05,1.65,,adl
5.002981,-0.0677,0.1135,0.1688,0.0186,-0.0102,-0.0053,-32.775,-30.75,1.875,,adl
5.009695,-0.0677,0.1135,0.1688,0.0186,-0.0102,-0.0053,-32.775,-30.75,1.875,,adl
5.011139,-0.065,0.0714,0.1599,0.0186,-0.0102,-0.0053,-32.775,-30.75,1.875,,adl
5.025877,-0.065,0.0714,0.1599,0.0186,-0.0102,-0.0053,-32.775,-30.75,1.875,,adl
5.030529,-0.0262,0.0114,0.1278,0.0186,-0.0102,-0.0053,-32.775,-30.75,1.875,,adl
5.045098,-0.0262,0.0114,0.1278,0.007,0.0038,0.0038,-32.775,-30.75,1.875,,adl
5.049926,-0.0262,0.0114,0.1278,0.007,0.0038,0.0038,-32.775,-30.75,1.875,,adl
5.052262,0.0003,-0.0002,0.1703,0.007,0.0038,0.0038,-32.775,-30.75,1.875,,adl
5.074344,0.0003,-0.0002,0.1703,0.007,0.0038,0.0038,-32.775,-30.75,1.875,,adl
5.078228,0.013,0.039,0.1794,0.007,0.0038,0.0038,-32.775,-30.75,1.875,,adl
5.080432,0.013,0.039,0.1794,0.007,0.0038,0.0038,-31.95,-30.75,2.175,,adl
5.09357,0.013,0.039,0.1794,0.007,0.0038,0.0038,-31.95,-30.75,2.175,,adl
5.09751,0.0045,0.1037,0.1034,0.007,0.0038,0.0038,-31.95,-30.75,2.175,,adl
5.108338,0.0045,0.1037,0.1034,0.007,0.0038,0.0038,-31.95,-30.75,2.175,,adl
5.111671,-0.0055,0.142,0.0829,0.007,0.0038,0.0038,-31.95,-30.75,2.175,,adl
5.11397,-0.0055,0.142,0.0829,0.0108,0.0038,0.0105,-31.95,-30.75,2.175,,adl
5.125408,-0.0055,0.142,0.0829,0.0108,0.0038,0.0105,-31.95,-30.75,2.175,,adl
5.127936,0.0059,0.0876,0.1188,0.0108,0.0038,0.0105,-31.95,-30.75,2.175,,adl
5.143439,0.0059,0.0876,0.1188,0.0108,0.0038,0.0105,-32.4,-29.85,2.475,,adl
5.152116,0.0059,0.0876,0.1188,0.0108,0.0038,0.0105,-32.4,-29.85,2.475,,adl
5.154061,0.0675,-0.0356,0.2701,0.0108,0.0038,0.0105,-32.4,-29.85,2.475,,adl
5.17184,0.0675,-0.0356,0.2701,0.0108,0.0038,0.0105,-32.4,-29.85,2.475,,adl
5.174218,0.0599,-0.0555,0.0961,0.0108,0.0038,0.0105,-32.4,-29.85,2.475,,adl
5.186055,0.0599,-0.0555,0.0961,0.0053,0.0107,0.0131,-32.4,-29.85,2.475,,adl
5.191151,0.0599,-0.0555,0.0961,0.0053,0.0107,0.0131,-32.4,-29.85,2.475,,adl
5.19272,-0.0212,0.0101,0.0387,0.0053,0.0107,0.0131,-32.4,-29.85,2.475,,adl
5.210992,-0.0212,0.0101,0.0387,0.0053,0.0107,0.0131,-32.4,-29.85,2.475,,adl
5.213546,0.0062,0.0511,0.1504,0.0053,0.0107,0.0131,-32.4,-29.85,2.475,,adl
5.215012,0.0062,0.0511,0.1504,0.0053,0.0107,0.0131,-32.175,-30.75,2.475,,adl
5.225513,0.0062,0.0511,0.1504,0.0053,0.0107,0.0131,-32.175,-30.75,2.475,,adl
5.227831,-0.0035,0.0412,0.2175,0.0053,0.0107,0.0131,-32.175,-30.75,2.475,,adl
5.250072,-0.0035,0.0412,0.2175,0.0053,0.0107,0.0131,-32.175,-30.75,2.475,,adl
5.252724,-0.0095,0.0194,0.1569,0.0053,0.0107,0.0131,-32.175,-30.75,2.475,,adl
5.254623,-0.0095,0.0194,0.1569,-0.0081,0.0108,0.0047,-32.175,-30.75,2.475,,adl
5.27037,-0.0095,0.0194,0.1569,-0.0081,0.0108,0.0047,-32.175,-30.75,2.475,,adl
5.272446,0.0108,0.0331,0.138,-0.0081,0.0108,0.0047,-32.175,-30.75,2.475,,adl
5.286717,0.0108,0.0331,0.138,-0.0081,0.0108,0.0047,-32.475,-30.225,1.95,,adl
5.289563,0.0108,0.0331,0.138,-0.0081,0.0108,0.0047,-32.475,-30.225,1.95,,adl
5.291055,-0.003,0.0596,0.1849,-0.0081,0.0108,0.0047,-32.475,-30.225,1.95,,adl
5.308982,-0.003,0.0596,0.1849,-0.0081,0.0108,0.0047,-32.475,-30.225,1.95,,adl
5.311303,-0.0151,0.0538,0.178,-0.0081,0.0108,0.0047,-32.475,-30.225,1.95,,adl
5.322887,-0.0151,0.0538,0.178,0.002,0.0089,0.0008,-32.475,-30.225,1.95,,adl
5.324663,-0.0151,0.0538,0.178,0.002,0.0089,0.0008,-32.475,-30.225,1.95,,adl
5.325976,-0.0078,0.0493,0.1111,0.002,0.0089,0.0008,-32.475,-30.225,1.95,,adl
5.349541,-0.0078,0.0493,0.1111,0.002,0.0089,0.0008,-32.475,-30.225,1.95,,adl
5.352637,-0.0159,0.0402,0.1406,0.002,0.0089,0.0008,-32.475,-30.225,1.95,,adl
5.35473,-0.0159,0.0402,0.1406,0.002,0.0089,0.0008,-32.325,-30.525,2.25,,adl
5.367847,-0.0159,0.0402,0.1406,0.002,0.0089,0.0008,-32.325,-30.525,2.25,,adl
5.371133,-0.0123,0.0492,0.153,0.002,0.0089,0.0008,-32.325,-30.525,2.25,,adl
5.387545,-0.0123,0.0492,0.153,0.002,0.0089,0.0008,-32.325,-30.525,2.25,,adl
5.392711,-0.033,0.053,0.1457,0.002,0.0089,0.0008,-32.325,-30.525,2.25,,adl
5.395683,-0.033,0.053,0.1457,0.0061,0.0105,0.0049,-32.325,-30.525,2.25,,adl
5.40665,-0.033,0.053,0.1457,0.0061,0.0105,0.0049,-32.325,-30.525,2.25,,adl
5.408592,-0.0137,0.0377,0.1197,0.0061,0.0105,0.0049,-32.325,-30.525,2.25,,adl
5.423311,-0.0137,0.0377,0.1197,0.0061,0.0105,0.0049,-32.325,-30.525,2.25,,adl
5.425686,0.0451,0.0308,0.1597,0.0061,0.0105,0.0049,-32.325,-30.525,2.25,,adl
5.427159,0.0451,0.0308,0.1597,0.0061,0.0105,0.0049,-32.4,-30.75,2.25,,adl
5.450912,0.0451,0.0308,0.1597,0.0061,0.0105,0.0049,-32.4,-30.75,2.25,,adl
5.453656,0.0547,0.0441,0.1636,0.0061,0.0105,0.0049,-32.4,-30.75,2.25,,adl
5.466227,0.0547,0.0441,0.1636,0.0047,0.0075,0.0093,-32.4,-30.75,2.25,,adl
5.470314,0.0547,0.0441,0.1636,0.0047,0.0075,0.0093,-32.4,-30.75,2.25,,adl
5.471725,0.0258,0.0375,0.1413,0.0047,0.0075,0.0093,-32.4,-30.75,2.25,,adl
5.489522,0.0258,0.0375,0.1413,0.0047,0.0075,0.0093,-32.4,-30.75,2.25,,adl
5.491522,-0.0077,0.0105,0.1628,0.0047,0.0075,0.0093,-32.4,-30.75,2.25,,adl
5.49331,-0.0077,0.0105,0.1628,0.0047,0.0075,0.0093,-32.175,-30.525,2.175,,adl
5.509149,-0.0077,0.0105,0.1628,0.0047,0.0075,0.0093,-32.175,-30.525,2.175,,adl
5.511391,-0.0055,0.0033,0.1883,0.0047,0.0075,0.0093,-32.175,-30.525,2.175,,adl
5.525044,-0.0055,0.0033,0.1883,0.0047,0.0075,0.0093,-32.175,-30.525,2.175,,adl
5.52835,0.0119,0.0301,0.1726,0.0047,0.0075,0.0093,-32.175,-30.525,2.175,,adl
5.535878,0.0119,0.0301,0.1726,0.0082,0.0084,-0.0026,-32.175,-30.525,2.175,,adl
5.550652,0.0119,0.0301,0.1726,0.0082,0.0084,-0.0026,-32.175,-30.525,2.175,,adl
5.553446,0.0015,0.0549,0.1326,0.0082,0.0084,-0.0026,-32.175,-30.525,2.175,,adl
5.564498,0.0015,0.0549,0.1326,0.0082,0.0084,-0.0026,-32.175,-30.525,2.175,,adl
5.567632,0.0063,0.0518,0.1217,0.0082,0.0084,-0.0026,-32.175,-30.525,2.175,,adl
5.568772,0.0063,0.0518,0.1217,0.0082,0.0084,-0.0026,-32.55,-30.45,2.025,,adl
5.588027,0.0063,0.0518,0.1217,0.0082,0.0084,-0.0026,-32.55,-30.45,2.025,,adl
5.589831,-0.0087,0.0318,0.1747,0.0082,0.0084,-0.0026,-32.55,-30.45,2.025,,adl
5.601824,-0.0087,0.0318,0.1747,0.0066,-0.0011,-0.0003,-32.55,-30.45,2.025,,adl
5.606553,-0.0087,0.0318,0.1747,0.0066,-0.0011,-0.0003,-32.55,-30.45,2.025,,adl
5.607814,-0.0087,0.0372,0.1499,0.0066,-0.0011,-0.0003,-32.55,-30.45,2.025,,adl
5.625113,-0.0087,0.0372,0.1499,0.0066,-0.0011,-0.0003,-32.55,-30.45,2.025,,adl
5.627996,0.0368,0.0795,0.0918,0.0066,-0.0011,-0.0003,-32.55,-30.45,2.025,,adl
5.635895,0.0368,0.0795,0.0918,0.0066,-0.0011,-0.0003,-31.125,-30.75,1.575,,adl
5.645681,0.0368,0.0795,0.0918,0.0066,-0.0011,-0.0003,-31.125,-30.75,1.575,,adl
5.647281,0.0119,0.0601,0.1126,0.0066,-0.0011,-0.0003,-31.125,-30.75,1.575,,adl
5.668364,0.0119,0.0601,0.1126,0.0066,-0.0011,-0.0003,-31.125,-30.75,1.575,,adl
5.671766,-0.0146,0.0017,0.1518,0.0066,-0.0011,-0.0003,-31.125,-30.75,1.575,,adl
5.674171,-0.0146,0.0017,0.1518,-0.0089,-0.0041,-0.0008,-31.125,-30.75,1.575,,adl
5.685847,-0.0146,0.0017,0.1518,-0.0089,-0.0041,-0.0008,-31.125,-30.75,1.575,,adl
5.687815,-0.0524,0.0384,0.2803,-0.0089,-0.0041,-0.0008,-31.125,-30.75,1.575,,adl
5.703424,-0.0524,0.0384,0.2803,-0.0089,-0.0041,-0.0008,-31.125,-30.75,1.575,,adl
5.705849,0.013,0.1193,-0.0278,-0.0089,-0.0041,-0.0008,-31.125,-30.75,1.575,,adl
5.707286,0.013,0.1193,-0.0278,-0.0089,-0.0041,-0.0008,-32.325,-30.525,2.25,,adl
5.724797,0.013,0.1193,-0.0278,-0.0089,-0.0041,-0.0008,-32.325,-30.525,2.25,,adl
5.727177,0.0005,0.1162,0.0271,-0.0089,-0.0041,-0.0008,-32.325,-30.525,2.25,,adl
5.743593,0.0005,0.1162,0.0271,-0.0229,0.005,-0.0008,-32.325,-30.525,2.25,,adl
5.748598,0.0005,0.1162,0.0271,-0.0229,0.005,-0.0008,-32.325,-30.525,2.25,,adl
5.750405,-0.0495,-0.064,0.388,-0.0229,0.005,-0.0008,-32.325,-30.525,2.25,,adl
5.769823,-0.0495,-0.064,0.388,-0.0229,0.005,-0.0008,-32.325,-30.525,2.25,,adl
5.772343,0.032,-0.1407,0.3482,-0.0229,0.005,-0.0008,-32.325,-30.525,2.25,,adl
5.774162,0.032,-0.1407,0.3482,-0.0229,0.005,-0.0008,-32.475,-30.525,1.725,,adl
5.787549,0.032,-0.1407,0.3482,-0.0229,0.005,-0.0008,-32.475,-30.525,1.725,,adl
5.789972,0.0652,-0.0513,0.0728,-0.0229,0.005,-0.0008,-32.475,-30.525,1.725,,adl
5.807016,0.0652,-0.0513,0.0728,-0.0229,0.005,-0.0008,-32.475,-30.525,1.725,,adl
5.809114,0.0218,0.0663,0.0654,-0.0229,0.005,-0.0008,-32.475,-30.525,1.725,,adl
5.811777,0.0218,0.0663,0.0654,0.0093,-0.0209,-0.0035,-32.475,-30.525,1.725,,adl
5.825645,0.0218,0.0663,0.0654,0.0093,-0.0209,-0.0035,-32.475,-30.525,1.725,,adl
5.827312,0.0041,0.1357,0.1601,0.0093,-0.0209,-0.0035,-32.475,-30.525,1.725,,adl
5.837884,0.0041,0.1357,0.1601,0.0093,-0.0209,-0.0035,-32.025,-30.825,1.65,,adl
5.849481,0.0041,0.1357,0.1601,0.0093,-0.0209,-0.0035,-32.025,-30.825,1.65,,adl
5.851232,-0.0131,0.097,0.1713,0.0093,-0.0209,-0.0035,-32.025,-30.825,1.65,,adl
5.867171,-0.0131,0.097,0.1713,0.0093,-0.0209,-0.0035,-32.025,-30.825,1.65,,adl
5.86928,-0.0059,0.0389,0.1488,0.0093,-0.0209,-0.0035,-32.025,-30.825,1.65,,adl
5.886896,-0.0059,0.0389,0.1488,-0.0191,-0.0139,-0.0023,-32.025,-30.825,1.65,,adl
5.888582,-0.0059,0.0389,0.1488,-0.0191,-0.0139,-0.0023,-32.025,-30.825,1.65,,adl
5.889894,0.0156,0.0268,0.1698,-0.0191,-0.0139,-0.0023,-32.025,-30.825,1.65,,adl
5.906914,0.0156,0.0268,0.1698,-0.0191,-0.0139,-0.0023,-32.025,-30.825,1.65,,adl
5.908239,0.0137,0.0639,0.1415,-0.0191,-0.0139,-0.0023,-32.025,-30.825,1.65,,adl
5.909312,0.0137,0.0639,0.1415,-0.0191,-0.0139,-0.0023,-32.325,-30.375,2.25,,adl
5.926298,0.0137,0.0639,0.1415,-0.0191,-0.0139,-0.0023,-32.325,-30.375,2.25,,adl
5.929967,-0.0132,0.0727,0.1148,-0.0191,-0.0139,-0.0023,-32.325,-30.375,2.25,,adl
5.944812,-0.0132,0.0727,0.1148,-0.0191,-0.0139,-0.0023,-32.325,-30.375,2.25,,adl
5.947566,-0.0198,0.0637,0.1668,-0.0191,-0.0139,-0.0023,-32.325,-30.375,2.25,,adl
5.950377,-0.0198,0.0637,0.1668,-0.0263,-0.0075,-0.0014,-32.325,-30.375,2.25,,adl
5.963584,-0.0198,0.0637,0.1668,-0.0263,-0.0075,-0.0014,-32.325,-30.375,2.25,,adl
5.966166,-0.0087,0.01,0.1802,-0.0263,-0.0075,-0.0014,-32.325,-30.375,2.25,,adl
5.974168,-0.0087,0.01,0.1802,-0.0263,-0.0075,-0.0014,-31.95,-30.525,1.35,,adl
5.988507,-0.0087,0.01,0.1802,-0.0263,-0.0075,-0.0014,-31.95,-30.525,1.35,,adl
5.990956,0.0116,-0.0053,0.2671,-0.0263,-0.0075,-0.0014,-31.95,-30.525,1.35,,adl
6.008331,0.0116,-0.0053,0.2671,-0.0263,-0.0075,-0.0014,-31.95,-30.525,1.35,,adl
6.01129,-0.0202,0.0412,0.0507,-0.0263,-0.0075,-0.0014,-31.95,-30.525,1.35,,adl
6.022952,-0.0202,0.0412,0.0507,-0.0281,-0.002,0.0005,-31.95,-30.525,1.35,,adl
6.025414,-0.0202,0.0412,0.0507,-0.0281,-0.002,0.0005,-31.95,-30.525,1.35,,adl
6.027536,-0.0217,0.0268,0.1358,-0.0281,-0.002,0.0005,-31.95,-30.525,1.35,,adl
6.051985,-0.0217,0.0268,0.1358,-0.0281,-0.002,0.0005,-31.95,-30.525,1.35,,adl
6.055567,0.0299,-0.0155,0.2389,-0.0281,-0.002,0.0005,-31.95,-30.525,1.35,,adl
6.058018,0.0299,-0.0155,0.2389,-0.0281,-0.002,0.0005,-32.1,-30.525,1.125,,adl
6.071121,0.0299,-0.0155,0.2389,-0.0281,-0.002,0.0005,-32.1,-30.525,1.125,,adl
6.074049,0.0062,-0.0231,0.1919,-0.0281,-0.002,0.0005,-32.1,-30.525,1.125,,adl
6.086963,0.0062,-0.0231,0.1919,-0.0281,-0.002,0.0005,-32.1,-30.525,1.125,,adl
6.09196,-0.0055,0.015,0.143,-0.0281,-0.002,0.0005,-32.1,-30.525,1.125,,adl
6.095463,-0.0055,0.015,0.143,-0.024,-0.0027,-0.0017,-32.1,-30.525,1.125,,adl
6.106194,-0.0055,0.015,0.143,-0.024,-0.0027,-0.0017,-32.1,-30.525,1.125,,adl
6.108357,-0.0089,0.0607,0.1291,-0.024,-0.0027,-0.0017,-32.1,-30.525,1.125,,adl
6.11614,-0.0089,0.0607,0.1291,-0.024,-0.0027,-0.0017,-32.025,-30.375,1.65,,adl
6.125058,-0.0089,0.0607,0.1291,-0.024,-0.0027,-0.0017,-32.025,-30.375,1.65,,adl
6.12706,-0.006,0.1066,0.1689,-0.024,-0.0027,-0.0017,-32.025,-30.375,1.65,,adl
6.144995,-0.006,0.1066,0.1689,-0.024,-0.0027,-0.0017,-32.025,-30.375,1.65,,adl
6.14781,0.0019,0.0936,0.1355,-0.024,-0.0027,-0.0017,-32.025,-30.375,1.65,,adl
6.160093,0.0019,0.0936,0.1355,-0.0215,-0.0006,0.0003,-32.025,-30.375,1.65,,adl
6.172253,0.0019,0.0936,0.1355,-0.0215,-0.0006,0.0003,-32.025,-30.375,1.65,,adl
6.175353,0.0179,0.0737,0.0961,-0.0215,-0.0006,0.0003,-32.025,-30.375,1.65,,adl
6.183445,0.0179,0.0737,0.0961,-0.0215,-0.0006,0.0003,-32.025,-30.375,1.65,,adl
6.185809,0.0207,0.0629,0.1139,-0.0215,-0.0006,0.0003,-32.025,-30.375,1.65,,adl
6.187884,0.0207,0.0629,0.1139,-0.0215,-0.0006,0.0003,-32.25,-30.375,1.875,,adl
6.20358,0.0207,0.0629,0.1139,-0.0215,-0.0006,0.0003,-32.25,-30.375,1.875,,adl
6.20638,-0.0092,0.0719,0.1611,-0.0215,-0.0006,0.0003,-32.25,-30.375,1.875,,adl
6.223251,-0.0092,0.0719,0.1611,-0.0215,-0.0006,0.0003,-32.25,-30.375,1.875,,adl
6.225798,-0.0124,0.0715,0.1463,-0.0215,-0.0006,0.0003,-32.25,-30.375,1.875,,adl
6.227649,-0.0124,0.0715,0.1463,-0.0177,-0.002,-0.0002,-32.25,-30.375,1.875,,adl
6.242465,-0.0124,0.0715,0.1463,-0.0177,-0.002,-0.0002,-32.25,-30.375,1.875,,adl
6.245155,-0.0037,0.0611,0.1295,-0.0177,-0.002,-0.0002,-32.25,-30.375,1.875,,adl
6.253143,-0.0037,0.0611,0.1295,-0.0177,-0.002,-0.0002,-32.475,-30.075,1.65,,adl
6.267997,-0.0037,0.0611,0.1295,-0.0177,-0.002,-0.0002,-32.475,-30.075,1.65,,adl
6.271311,0.0182,0.0307,0.1663,-0.0177,-0.002,-0.0002,-32.475,-30.075,1.65,,adl
6.286594,0.0182,0.0307,0.1663,-0.0177,-0.002,-0.0002,-32.475,-30.075,1.65,,adl
6.288584,0.0062,0.0109,0.1785,-0.0177,-0.002,-0.0002,-32.475,-30.075,1.65,,adl
6.30154,0.0062,0.0109,0.1785,-0.0061,-0.0018,-0.0044,-32.475,-30.075,1.65,,adl
6.306029,0.0062,0.0109,0.1785,-0.0061,-0.0018,-0.0044,-32.475,-30.075,1.65,,adl
6.307752,-0.0099,0.0299,0.1845,-0.0061,-0.0018,-0.0044,-32.475,-30.075,1.65,,adl
6.325362,-0.0099,0.0299,0.1845,-0.0061,-0.0018,-0.0044,-32.475,-30.075,1.65,,adl
6.327828,-0.0124,0.0518,0.1259,-0.0061,-0.0018,-0.0044,-32.475,-30.075,1.65,,adl
6.329705,-0.0124,0.0518,0.1259,-0.0061,-0.0018,-0.0044,-32.7,-30.075,1.35,,adl
6.345867,-0.0124,0.0518,0.1259,-0.0061,-0.0018,-0.0044,-32.7,-30.075,1.35,,adl
6.348497,0.0198,0.067,0.1009,-0.0061,-0.0018,-0.0044,-32.7,-30.075,1.35,,adl
6.370533,0.0198,0.067,0.1009,-0.0061,-0.0018,-0.0044,-32.7,-30.075,1.35,,adl
6.372553,0.0231,0.0448,0.1117,-0.0061,-0.0018,-0.0044,-32.7,-30.075,1.35,,adl
6.374503,0.0231,0.0448,0.1117,0.0078,0.0024,0.0008,-32.7,-30.075,1.35,,adl
6.384515,0.0231,0.0448,0.1117,0.0078,0.0024,0.0008,-32.7,-30.075,1.35,,adl
6.386757,-0.0217,0.0277,0.1938,0.0078,0.0024,0.0008,-32.7,-30.075,1.35,,adl
6.394967,-0.0217,0.0277,0.1938,0.0078,0.0024,0.0008,-32.025,-30.825,1.35,,adl
6.404197,-0.0217,0.0277,0.1938,0.0078,0.0024,0.0008,-32.025,-30.825,1.35,,adl
6.407013,-0.0152,0.0253,0.1852,0.0078,0.0024,0.0008,-32.025,-30.825,1.35,,adl
6.423294,-0.0152,0.0253,0.1852,0.0078,0.0024,0.0008,-32.025,-30.825,1.35,,adl
6.426169,0.0219,0.0689,0.1039,0.0078,0.0024,0.0008,-32.025,-30.825,1.35,,adl
6.43831,0.0219,0.0689,0.1039,0.0076,0.0024,0.0009,-32.025,-30.825,1.35,,adl
6.442509,0.0219,0.0689,0.1039,0.0076,0.0024,0.0009,-32.025,-30.825,1.35,,adl
6.444259,0.0075,0.0518,0.0932,0.0076,0.0024,0.0009,-32.025,-30.825,1.35,,adl
6.462956,0.0075,0.0518,0.0932,0.0076,0.0024,0.0009,-32.025,-30.825,1.35,,adl
6.467068,-0.0251,0.0456,0.1515,0.0076,0.0024,0.0009,-32.025,-30.825,1.35,,adl
6.47029,-0.0251,0.0456,0.1515,0.0076,0.0024,0.0009,-31.875,-30.825,1.95,,adl
6.486962,-0.0251,0.0456,0.1515,0.0076,0.0024,0.0009,-31.875,-30.825,1.95,,adl
6.489172,-0.0722,0.0814,0.2046,0.0076,0.0024,0.0009,-31.875,-30.825,1.95,,adl
6.502221,-0.0722,0.0814,0.2046,0.0076,0.0024,0.0009,-31.875,-30.825,1.95,,adl
6.506211,0.0067,0.0906,0.0559,0.0076,0.0024,0.0009,-31.875,-30.825,1.95,,adl
6.508107,0.0067,0.0906,0.0559,0.0092,0.016,-0.0009,-31.875,-30.825,1.95,,adl
6.521281,0.0067,0.0906,0.0559,0.0092,0.016,-0.0009,-31.875,-30.825,1.95,,adl
6.523309,0.0269,0.0714,0.0723,0.0092,0.016,-0.0009,-31.875,-30.825,1.95,,adl
6.54363,0.0269,0.0714,0.0723,0.0092,0.016,-0.0009,-31.875,-30.825,1.95,,adl
6.547038,-0.0112,-0.0535,0.2808,0.0092,0.016,-0.0009,-31.875,-30.825,1.95,,adl
6.549084,-0.0112,-0.0535,0.2808,0.0092,0.016,-0.0009,-31.8,-31.05,1.725,,adl
6.565123,-0.0112,-0.0535,0.2808,0.0092,0.016,-0.0009,-31.8,-31.05,1.725,,adl
6.567957,0.0417,-0.0733,0.2725,0.0092,0.016,-0.0009,-31.8,-31.05,1.725,,adl
6.58384,0.0417,-0.0733,0.2725,0.0244,-0.0118,0.0006,-31.8,-31.05,1.725,,adl
6.590579,0.0417,-0.0733,0.2725,0.0244,-0.0118,0.0006,-31.8,-31.05,1.725,,adl
6.59294,0.0628,0.0111,0.0862,0.0244,-0.0118,0.0006,-31.8,-31.05,1.725,,adl
6.604786,0.0628,0.0111,0.0862,0.0244,-0.0118,0.0006,-31.8,-31.05,1.725,,adl
6.606907,0.0143,0.0837,0.0905,0.0244,-0.0118,0.0006,-31.8,-31.05,1.725,,adl
6.6082,0.0143,0.0837,0.0905,0.0244,-0.0118,0.0006,-31.875,-30.375,2.025,,adl
6.62402,0.0143,0.0837,0.0905,0.0244,-0.0118,0.0006,-31.875,-30.375,2.025,,adl
6.626657,-0.0015,0.1078,0.1567,0.0244,-0.0118,0.0006,-31.875,-30.375,2.025,,adl
6.643861,-0.0015,0.1078,0.1567,0.0244,-0.0118,0.0006,-31.875,-30.375,2.025,,adl
6.647536,-0.0223,0.0677,0.1417,0.0244,-0.0118,0.0006,-31.875,-30.375,2.025,,adl
6.651759,-0.0223,0.0677,0.1417,0.0124,-0.0029,0.0023,-31.875,-30.375,2.025,,adl
6.670081,-0.0223,0.0677,0.1417,0.0124,-0.0029,0.0023,-31.875,-30.375,2.025,,adl
6.672635,-0.0091,0.0334,0.1436,0.0124,-0.0029,0.0023,-31.875,-30.375,2.025,,adl
6.674739,-0.0091,0.0334,0.1436,0.0124,-0.0029,0.0023,-32.025,-30.975,1.875,,adl
6.683549,-0.0091,0.0334,0.1436,0.0124,-0.0029,0.0023,-32.025,-30.975,1.875,,adl
6.685653,0.0154,0.0414,0.1776,0.0124,-0.0029,0.0023,-32.025,-30.975,1.875,,adl
6.703857,0.0154,0.0414,0.1776,0.0124,-0.0029,0.0023,-32.025,-30.975,1.875,,adl
6.70576,0.0029,0.0605,0.1354,0.0124,-0.0029,0.0023,-32.025,-30.975,1.875,,adl
6.71806,0.0029,0.0605,0.1354,0.0073,0.0029,0.0011,-32.025,-30.975,1.875,,adl
6.721517,0.0029,0.0605,0.1354,0.0073,0.0029,0.0011,-32.025,-30.975,1.875,,adl
6.722818,-0.012,0.08,0.1251,0.0073,0.0029,0.0011,-32.025,-30.975,1.875,,adl
6.741054,-0.012,0.08,0.1251,0.0073,0.0029,0.0011,-32.025,-30.975,1.875,,adl
6.743251,-0.0197,0.0841,0.1444,0.0073,0.0029,0.0011,-32.025,-30.975,1.875,,adl
6.744652,-0.0197,0.0841,0.1444,0.0073,0.0029,0.0011,-32.85,-30.15,1.65,,adl
6.761573,-0.0197,0.0841,0.1444,0.0073,0.0029,0.0011,-32.85,-30.15,1.65,,adl
6.764309,-0.0232,0.0309,0.1646,0.0073,0.0029,0.0011,-32.85,-30.15,1.65,,adl
6.785637,-0.0232,0.0309,0.1646,0.0073,0.0029,0.0011,-32.85,-30.15,1.65,,adl
6.788607,0.0204,-0.0188,0.2106,0.0073,0.0029,0.0011,-32.85,-30.15,1.65,,adl
6.791014,0.0204,-0.0188,0.2106,0.0046,0.0011,0.0012,-32.85,-30.15,1.65,,adl
6.805178,0.0204,-0.0188,0.2106,0.0046,0.0011,0.0012,-32.85,-30.15,1.65,,adl
6.807241,0.008,0.0108,0.0472,0.0046,0.0011,0.0012,-32.85,-30.15,1.65,,adl
6.819042,0.008,0.0108,0.0472,0.0046,0.0011,0.0012,-32.025,-29.85,1.875,,adl
6.82434,0.008,0.0108,0.0472,0.0046,0.0011,0.0012,-32.025,-29.85,1.875,,adl
6.826147,0.0138,0.0193,0.136,0.0046,0.0011,0.0012,-32.025,-29.85,1.875,,adl
6.843561,0.0138,0.0193,0.136,0.0046,0.0011,0.0012,-32.025,-29.85,1.875,,adl
6.845725,0.0213,-0.0049,0.2882,0.0046,0.0011,0.0012,-32.025,-29.85,1.875,,adl
6.859034,0.0213,-0.0049,0.2882,-0.0089,0.0098,0.0052,-32.025,-29.85,1.875,,adl
6.869889,0.0213,-0.0049,0.2882,-0.0089,0.0098,0.0052,-32.025,-29.85,1.875,,adl
6.872118,-0.0001,-0.0206,0.2083,-0.0089,0.0098,0.0052,-32.025,-29.85,1.875,,adl
6.885639,-0.0001,-0.0206,0.2083,-0.0089,0.0098,0.0052,-32.025,-29.85,1.875,,adl
6.887929,-0.0021,0.0167,0.1316,-0.0089,0.0098,0.0052,-32.025,-29.85,1.875,,adl
6.892925,-0.0021,0.0167,0.1316,-0.0089,0.0098,0.0052,-32.1,-29.85,1.65,,adl
6.902471,-0.0021,0.0167,0.1316,-0.0089,0.0098,0.0052,-32.1,-29.85,1.65,,adl
6.904363,-0.0005,0.0724,0.1515,-0.0089,0.0098,0.0052,-32.1,-29.85,1.65,,adl
6.923055,-0.0005,0.0724,0.1515,-0.0089,0.0098,0.0052,-32.1,-29.85,1.65,,adl
6.926066,-0.017,0.0997,0.1759,-0.0089,0.0098,0.0052,-32.1,-29.85,1.65,,adl
6.927446,-0.017,0.0997,0.1759,0.0031,0.0093,0.0052,-32.1,-29.85,1.65,,adl
6.94168,-0.017,0.0997,0.1759,0.0031,0.0093,0.0052,-32.1,-29.85,1.65,,adl
6.943311,-0.0051,0.0813,0.1198,0.0031,0.0093,0.0052,-32.1,-29.85,1.65,,adl
6.953882,-0.0051,0.0813,0.1198,0.0031,0.0093,0.0052,-31.95,-30.075,1.275,,adl
6.9618,-0.0051,0.0813,0.1198,0.0031,0.0093,0.0052,-31.95,-30.075,1.275,,adl
6.964966,0.0026,0.0569,0.1197,0.0031,0.0093,0.0052,-31.95,-30.075,1.275,,adl
6.982078,0.0026,0.0569,0.1197,0.0031,0.0093,0.0052,-31.95,-30.075,1.275,,adl
6.98461,0.0122,0.0458,0.1627,0.0031,0.0093,0.0052,-31.95,-30.075,1.275,,adl
6.995698,0.0122,0.0458,0.1627,0.0017,0.0053,-0.0011,-31.95,-30.075,1.275,,adl
7.00188,0.0122,0.0458,0.1627,0.0017,0.0053,-0.0011,-31.95,-30.075,1.275,,adl
7.006212,0.0049,0.0443,0.1733,0.0017,0.0053,-0.0011,-31.95,-30.075,1.275,,adl
7.020304,0.0049,0.0443,0.1733,0.0017,0.0053,-0.0011,-31.95,-30.075,1.275,,adl
7.022616,-0.0043,0.0435,0.1445,0.0017,0.0053,-0.0011,-31.95,-30.075,1.275,,adl
7.024304,-0.0043,0.0435,0.1445,0.0017,0.0053,-0.0011,-31.95,-30.15,1.575,,adl
7.040193,-0.0043,0.0435,0.1445,0.0017,0.0053,-0.0011,-31.95,-30.15,1.575,,adl
7.042862,0.0203,0.0436,0.1482,0.0017,0.0053,-0.0011,-31.95,-30.15,1.575,,adl
7.064919,0.0203,0.0436,0.1482,0.0017,0.0053,-0.0011,-31.95,-30.15,1.575,,adl
7.068212,0.0285,0.0297,0.1868,0.0017,0.0053,-0.0011,-31.95,-30.15,1.575,,adl
7.070329,0.0285,0.0297,0.1868,0.0063,0.0041,0.0,-31.95,-30.15,1.575,,adl
7.08689,0.0285,0.0297,0.1868,0.0063,0.0041,0.0,-31.95,-30.15,1.575,,adl
7.088998,0.0247,0.033,0.1436,0.0063,0.0041,0.0,-31.95,-30.15,1.575,,adl
7.094568,0.0247,0.033,0.1436,0.0063,0.0041,0.0,-32.25,-30.45,2.25,,adl
7.102957,0.0247,0.033,0.1436,0.0063,0.0041,0.0,-32.25,-30.45,2.25,,adl
7.105016,0.0017,0.0309,0.1437,0.0063,0.0041,0.0,-32.25,-30.45,2.25,,adl
7.122879,0.0017,0.0309,0.1437,0.0063,0.0041,0.0,-32.25,-30.45,2.25,,adl
7.124817,-0.0013,0.038,0.1423,0.0063,0.0041,0.0,-32.25,-30.45,2.25,,adl
7.13708,-0.0013,0.038,0.1423,0.0008,0.0082,0.0008,-32.25,-30.45,2.25,,adl
7.141935,-0.0013,0.038,0.1423,0.0008,0.0082,0.0008,-32.25,-30.45,2.25,,adl
7.143518,0.0083,0.0197,0.1753,0.0008,0.0082,0.0008,-32.25,-30.45,2.25,,adl
7.162911,0.0083,0.0197,0.1753,0.0008,0.0082,0.0008,-32.25,-30.45,2.25,,adl
7.165868,-0.0121,-0.0101,0.2157,0.0008,0.0082,0.0008,-32.25,-30.45,2.25,,adl
7.168842,-0.0121,-0.0101,0.2157,0.0008,0.0082,0.0008,-32.625,-30.525,1.65,,adl
7.181583,-0.0121,-0.0101,0.2157,0.0008,0.0082,0.0008,-32.625,-30.525,1.65,,adl
7.185056,-0.0479,-0.015,0.2211,0.0008,0.0082,0.0008,-32.625,-30.525,1.65,,adl
7.206352,-0.0479,-0.015,0.2211,0.0008,0.0082,0.0008,-32.625,-30.525,1.65,,adl
7.209553,0.0151,0.0367,0.1016,0.0008,0.0082,0.0008,-32.625,-30.525,1.65,,adl
7.21202,0.0151,0.0367,0.1016,0.0066,0.0038,0.0093,-32.625,-30.525,1.65,,adl
7.223382,0.0151,0.0367,0.1016,0.0066,0.0038,0.0093,-32.625,-30.525,1.65,,adl
7.226228,0.0637,0.1004,0.1204,0.0066,0.0038,0.0093,-32.625,-30.525,1.65,,adl
7.233472,0.0637,0.1004,0.1204,0.0066,0.0038,0.0093,-31.725,-30.45,1.35,,adl
7.239884,0.0637,0.1004,0.1204,0.0066,0.0038,0.0093,-31.725,-30.45,1.35,,adl
7.241507,0.0088,0.0773,0.0768,0.0066,0.0038,0.0093,-31.725,-30.45,1.35,,adl
7.259662,0.0088,0.0773,0.0768,0.0066,0.0038,0.0093,-31.725,-30.45,1.35,,adl
7.262598,-0.0272,0.0832,0.2351,0.0066,0.0038,0.0093,-31.725,-30.45,1.35,,adl
7.275419,-0.0272,0.0832,0.2351,-0.0011,0.0127,0.0041,-31.725,-30.45,1.35,,adl
7.277893,-0.0272,0.0832,0.2351,-0.0011,0.0127,0.0041,-31.725,-30.45,1.35,,adl
7.279457,-0.0563,0.1056,0.1712,-0.0011,0.0127,0.0041,-31.725,-30.45,1.35,,adl
7.299887,-0.0563,0.1056,0.1712,-0.0011,0.0127,0.0041,-31.725,-30.45,1.35,,adl
7.304055,0.0422,0.1504,-0.0292,-0.0011,0.0127,0.0041,-31.725,-30.45,1.35,,adl
7.306492,0.0422,0.1504,-0.0292,-0.0011,0.0127,0.0041,-32.7,-30.075,1.875,,adl
7.321054,0.0422,0.1504,-0.0292,-0.0011,0.0127,0.0041,-32.7,-30.075,1.875,,adl
7.323297,-0.0443,0.0814,0.1104,-0.0011,0.0127,0.0041,-32.7,-30.075,1.875,,adl
7.34517,-0.0443,0.0814,0.1104,-0.0011,0.0127,0.0041,-32.7,-30.075,1.875,,adl
7.347728,-0.0169,-0.0885,0.387,-0.0011,0.0127,0.0041,-32.7,-30.075,1.875,,adl
7.35007,-0.0169,-0.0885,0.387,0.0017,-0.0044,-0.0075,-32.7,-30.075,1.875,,adl
7.362894,-0.0169,-0.0885,0.387,0.0017,-0.0044,-0.0075,-32.7,-30.075,1.875,,adl
7.365154,0.0385,-0.1301,0.2978,0.0017,-0.0044,-0.0075,-32.7,-30.075,1.875,,adl
7.373654,0.0385,-0.1301,0.2978,0.0017,-0.0044,-0.0075,-32.025,-30.375,1.425,,adl
7.382999,0.0385,-0.1301,0.2978,0.0017,-0.0044,-0.0075,-32.025,-30.375,1.425,,adl
7.385048,0.0242,-0.0387,0.0877,0.0017,-0.0044,-0.0075,-32.025,-30.375,1.425,,adl
7.403528,0.0242,-0.0387,0.0877,0.0017,-0.0044,-0.0075,-32.025,-30.375,1.425,,adl
7.406003,-0.0041,0.0741,0.1128,0.0017,-0.0044,-0.0075,-32.025,-30.375,1.425,,adl
7.420257,-0.0041,0.0741,0.1128,0.0399,-0.0111,-0.0014,-32.025,-30.375,1.425,,adl
7.423679,-0.0041,0.0741,0.1128,0.0399,-0.0111,-0.0014,-32.025,-30.375,1.425,,adl
7.425416,-0.0184,0.1096,0.1409,0.0399,-0.0111,-0.0014,-32.025,-30.375,1.425,,adl
7.441261,-0.0184,0.1096,0.1409,0.0399,-0.0111,-0.0014,-32.025,-30.375,1.425,,adl
7.444923,0.0154,0.0676,0.1441,0.0399,-0.0111,-0.0014,-32.025,-30.375,1.425,,adl
7.44656,0.0154,0.0676,0.1441,0.0399,-0.0111,-0.0014,-32.475,-30.75,1.65,,adl
7.460802,0.0154,0.0676,0.1441,0.0399,-0.0111,-0.0014,-32.475,-30.75,1.65,,adl
7.463532,0.0611,0.0335,0.194,0.0399,-0.0111,-0.0014,-32.475,-30.75,1.65,,adl
7.475623,0.0611,0.0335,0.194,0.0399,-0.0111,-0.0014,-32.475,-30.75,1.65,,adl
7.47816,0.0672,0.0445,0.1878,0.0399,-0.0111,-0.0014,-32.475,-30.75,1.65,,adl
7.484488,0.0672,0.0445,0.1878,0.014,0.0002,0.007,-32.475,-30.75,1.65,,adl
7.505377,0.0672,0.0445,0.1878,0.014,0.0002,0.007,-32.475,-30.75,1.65,,adl
7.508513,0.0153,0.0654,0.1262,0.014,0.0002,0.007,-32.475,-30.75,1.65,,adl
7.517032,0.0153,0.0654,0.1262,0.014,0.0002,0.007,-32.25,-30.225,2.175,,adl
7.520774,0.0153,0.0654,0.1262,0.014,0.0002,0.007,-32.25,-30.225,2.175,,adl
7.522472,-0.0097,0.0899,0.1292,0.014,0.0002,0.007,-32.25,-30.225,2.175,,adl
7.538785,-0.0097,0.0899,0.1292,0.014,0.0002,0.007,-32.25,-30.225,2.175,,adl
7.540994,-0.0038,0.0692,0.1567,0.014,0.0002,0.007,-32.25,-30.225,2.175,,adl
7.553065,-0.0038,0.0692,0.1567,0.0131,-0.0027,-0.007,-32.25,-30.225,2.175,,adl
7.558455,-0.0038,0.0692,0.1567,0.0131,-0.0027,-0.007,-32.25,-30.225,2.175,,adl
7.560189,-0.0043,0.0215,0.2145,0.0131,-0.0027,-0.007,-32.25,-30.225,2.175,,adl
7.58621,-0.0043,0.0215,0.2145,0.0131,-0.0027,-0.007,-32.25,-30.225,2.175,,adl
7.590842,0.0287,0.0195,0.1516,0.0131,-0.0027,-0.007,-32.25,-30.225,2.175,,adl
7.593702,0.0287,0.0195,0.1516,0.0131,-0.0027,-0.007,-32.175,-30.45,2.025,,adl
7.604996,0.0287,0.0195,0.1516,0.0131,-0.0027,-0.007,-32.175,-30.45,2.025,,adl
7.60786,-0.0391,0.031,0.0783,0.0131,-0.0027,-0.007,-32.175,-30.45,2.025,,adl
7.622265,-0.0391,0.031,0.0783,0.0131,-0.0027,-0.007,-32.175,-30.45,2.025,,adl
7.624568,-0.0081,0.0071,0.1898,0.0131,-0.0027,-0.007,-32.175,-30.45,2.025,,adl
7.62652,-0.0081,0.0071,0.1898,-0.0038,-0.0046,-0.0087,-32.175,-30.45,2.025,,adl
7.641425,-0.0081,0.0071,0.1898,-0.0038,-0.0046,-0.0087,-32.175,-30.45,2.025,,adl
7.64385,-0.0368,-0.0267,0.2367,-0.0038,-0.0046,-0.0087,-32.175,-30.45,2.025,,adl
7.653632,-0.0368,-0.0267,0.2367,-0.0038,-0.0046,-0.0087,-32.025,-30.45,2.175,,adl
7.660851,-0.0368,-0.0267,0.2367,-0.0038,-0.0046,-0.0087,-32.025,-30.45,2.175,,adl
7.662616,-0.0532,-0.0574,0.1996,-0.0038,-0.0046,-0.0087,-32.025,-30.45,2.175,,adl
7.677651,-0.0532,-0.0574,0.1996,-0.0038,-0.0046,-0.0087,-32.025,-30.45,2.175,,adl
7.680436,-0.0184,-0.0238,0.1864,-0.0038,-0.0046,-0.0087,-32.025,-30.45,2.175,,adl
7.695374,-0.0184,-0.0238,0.1864,-0.0024,0.0032,0.0006,-32.025,-30.45,2.175,,adl
7.705292,-0.0184,-0.0238,0.1864,-0.0024,0.0032,0.0006,-32.025,-30.45,2.175,,adl
7.707984,0.0088,0.0483,0.1781,-0.0024,0.0032,0.0006,-32.025,-30.45,2.175,,adl
7.72029,0.0088,0.0483,0.1781,-0.0024,0.0032,0.0006,-32.025,-30.45,2.175,,adl
7.722734,0.0426,0.1053,0.1454,-0.0024,0.0032,0.0006,-32.025,-30.45,2.175,,adl
7.724518,0.0426,0.1053,0.1454,-0.0024,0.0032,0.0006,-32.25,-30.15,1.65,,adl
7.739173,0.0426,0.1053,0.1454,-0.0024,0.0032,0.0006,-32.25,-30.15,1.65,,adl
7.741372,0.0396,0.0975,0.0889,-0.0024,0.0032,0.0006,-32.25,-30.15,1.65,,adl
7.759377,0.0396,0.0975,0.0889,-0.0024,0.0032,0.0006,-32.25,-30.15,1.65,,adl
7.762971,0.0164,0.0884,0.1045,-0.0024,0.0032,0.0006,-32.25,-30.15,1.65,,adl
7.767747,0.0164,0.0884,0.1045,-0.013,0.0061,0.0066,-32.25,-30.15,1.65,,adl
7.774737,0.0164,0.0884,0.1045,-0.013,0.0061,0.0066,-32.25,-30.15,1.65,,adl
7.776428,0.0365,0.0905,0.1608,-0.013,0.0061,0.0066,-32.25,-30.15,1.65,,adl
7.793302,0.0365,0.0905,0.1608,-0.013,0.0061,0.0066,-32.25,-30.15,1.65,,adl
7.795972,0.0609,0.089,0.1639,-0.013,0.0061,0.0066,-32.25,-30.15,1.65,,adl
7.798252,0.0609,0.089,0.1639,-0.013,0.0061,0.0066,-32.025,-29.925,1.65,,adl
7.819227,0.0609,0.089,0.1639,-0.013,0.0061,0.0066,-32.025,-29.925,1.65,,adl
7.822491,0.0327,0.0403,0.1512,-0.013,0.0061,0.0066,-32.025,-29.925,1.65,,adl
7.831633,0.0327,0.0403,0.1512,-0.0231,-0.0005,0.0009,-32.025,-29.925,1.65,,adl
7.836472,0.0327,0.0403,0.1512,-0.0231,-0.0005,0.0009,-32.025,-29.925,1.65,,adl
7.838101,0.0212,0.0054,0.1861,-0.0231,-0.0005,0.0009,-32.025,-29.925,1.65,,adl
7.85618,0.0212,0.0054,0.1861,-0.0231,-0.0005,0.0009,-32.025,-29.925,1.65,,adl
7.856834,-0.013,-0.004,0.2024,-0.0231,-0.0005,0.0009,-32.025,-29.925,1.65,,adl
7.863014,-0.013,-0.004,0.2024,-0.0231,-0.0005,0.0009,-31.95,-30.825,1.95,,adl
7.874452,-0.013,-0.004,0.2024,-0.0231,-0.0005,0.0009,-31.95,-30.825,1.95,,adl
7.87507,0.0028,0.0318,0.1568,-0.0231,-0.0005,0.0009,-31.95,-30.825,1.95,,adl
7.901765,0.0028,0.0318,0.1568,-0.0231,-0.0005,0.0009,-31.95,-30.825,1.95,,adl
7.903444,-0.0093,0.0479,0.1504,-0.0231,-0.0005,0.0009,-31.95,-30.825,1.95,,adl
7.906932,-0.0093,0.0479,0.1504,-0.0154,-0.0075,-0.0134,-31.95,-30.825,1.95,,adl
7.920945,-0.0093,0.0479,0.1504,-0.0154,-0.0075,-0.0134,-31.95,-30.825,1.95,,adl
7.922852,-0.0215,0.0323,0.157,-0.0154,-0.0075,-0.0134,-31.95,-30.825,1.95,,adl
7.934489,-0.0215,0.0323,0.157,-0.0154,-0.0075,-0.0134,-31.8,-30.75,2.25,,adl
7.939642,-0.0215,0.0323,0.157,-0.0154,-0.0075,-0.0134,-31.8,-30.75,2.25,,adl
7.941087,-0.0374,0.0201,0.1864,-0.0154,-0.0075,-0.0134,-31.8,-30.75,2.25,,adl
7.960233,-0.0374,0.0201,0.1864,-0.0154,-0.0075,-0.0134,-31.8,-30.75,2.25,,adl
7.962288,-0.0403,0.0245,0.1721,-0.0154,-0.0075,-0.0134,-31.8,-30.75,2.25,,adl
7.974435,-0.0403,0.0245,0.1721,-0.0154,-0.0015,-0.0055,-31.8,-30.75,2.25,,adl
7.978706,-0.0403,0.0245,0.1721,-0.0154,-0.0015,-0.0055,-31.8,-30.75,2.25,,adl
7.980441,0.0049,0.0428,0.1413,-0.0154,-0.0015,-0.0055,-31.8,-30.75,2.25,,adl
7.99883,0.0049,0.0428,0.1413,-0.0154,-0.0015,-0.0055,-31.8,-30.75,2.25,,adl
8.001885,0.0271,0.0465,0.1465,-0.0154,-0.0015,-0.0055,-31.8,-30.75,2.25,,adl
8.003674,0.0271,0.0465,0.1465,-0.0154,-0.0015,-0.0055,-32.25,-30.15,2.55,,adl
8.018552,0.0271,0.0465,0.1465,-0.0154,-0.0015,-0.0055,-32.25,-30.15,2.55,,adl
8.021573,-0.0101,0.0504,0.1829,-0.0154,-0.0015,-0.0055,-32.25,-30.15,2.55,,adl
8.03806,-0.0101,0.0504,0.1829,-0.0154,-0.0015,-0.0055,-32.25,-30.15,2.55,,adl
8.041708,-0.0012,0.0801,0.1508,-0.0154,-0.0015,-0.0055,-32.25,-30.15,2.55,,adl
8.043878,-0.0012,0.0801,0.1508,-0.0134,-0.0003,0.0027,-32.25,-30.15,2.55,,adl
8.057379,-0.0012,0.0801,0.1508,-0.0134,-0.0003,0.0027,-32.25,-30.15,2.55,,adl
8.059743,0.032,0.1145,0.1383,-0.0134,-0.0003,0.0027,-32.25,-30.15,2.55,,adl
8.073491,0.032,0.1145,0.1383,-0.0134,-0.0003,0.0027,-32.25,-30.15,2.55,,adl
8.075566,0.006,0.0742,0.1491,-0.0134,-0.0003,0.0027,-32.25,-30.15,2.55,,adl
8.076945,0.006,0.0742,0.1491,-0.0134,-0.0003,0.0027,-32.775,-30.975,2.25,,adl
8.095944,0.006,0.0742,0.1491,-0.0134,-0.0003,0.0027,-32.775,-30.975,2.25,,adl
8.098983,-0.0064,0.0438,0.2063,-0.0134,-0.0003,0.0027,-32.775,-30.975,2.25,,adl
8.110709,-0.0064,0.0438,0.2063,-0.0202,0.0182,-0.004,-32.775,-30.975,2.25,,adl
8.120997,-0.0064,0.0438,0.2063,-0.0202,0.0182,-0.004,-32.775,-30.975,2.25,,adl
8.123064,-0.0491,0.0896,0.2064,-0.0202,0.0182,-0.004,-32.775,-30.975,2.25,,adl
8.135242,-0.0491,0.0896,0.2064,-0.0202,0.0182,-0.004,-32.775,-30.975,2.25,,adl
8.137876,0.017,0.1117,0.0346,-0.0202,0.0182,-0.004,-32.775,-30.975,2.25,,adl
8.143109,0.017,0.1117,0.0346,-0.0202,0.0182,-0.004,-32.025,-30.75,1.875,,adl
8.155979,0.017,0.1117,0.0346,-0.0202,0.0182,-0.004,-32.025,-30.75,1.875,,adl
8.158051,-0.0145,0.0526,0.0739,-0.0202,0.0182,-0.004,-32.025,-30.75,1.875,,adl
8.175326,-0.0145,0.0526,0.0739,-0.0202,0.0182,-0.004,-32.025,-30.75,1.875,,adl
8.177741,-0.0321,-0.0953,0.3138,-0.0202,0.0182,-0.004,-32.025,-30.75,1.875,,adl
8.186214,-0.0321,-0.0953,0.3138,-0.0128,-0.0116,-0.0105,-32.025,-30.75,1.875,,adl
8.202243,-0.0321,-0.0953,0.3138,-0.0128,-0.0116,-0.0105,-32.025,-30.75,1.875,,adl
8.204667,0.0827,-0.11,0.2578,-0.0128,-0.0116,-0.0105,-32.025,-30.75,1.875,,adl
8.219291,0.0827,-0.11,0.2578,-0.0128,-0.0116,-0.0105,-32.025,-30.75,1.875,,adl
8.221517,0.0839,0.0244,0.1039,-0.0128,-0.0116,-0.0105,-32.025,-30.75,1.875,,adl
8.223204,0.0839,0.0244,0.1039,-0.0128,-0.0116,-0.0105,-32.55,-30.975,1.35,,adl
8.238579,0.0839,0.0244,0.1039,-0.0128,-0.0116,-0.0105,-32.55,-30.975,1.35,,adl
8.240927,0.0364,0.1427,0.1226,-0.0128,-0.0116,-0.0105,-32.55,-30.975,1.35,,adl
8.252298,0.0364,0.1427,0.1226,0.0092,-0.017,-0.0041,-32.55,-30.975,1.35,,adl
8.257823,0.0364,0.1427,0.1226,0.0092,-0.017,-0.0041,-32.55,-30.975,1.35,,adl
8.25954,-0.0282,0.1849,0.1532,0.0092,-0.017,-0.0041,-32.55,-30.975,1.35,,adl
8.275845,-0.0282,0.1849,0.1532,0.0092,-0.017,-0.0041,-32.55,-30.975,1.35,,adl
8.278387,-0.0926,0.119,0.1174,0.0092,-0.017,-0.0041,-32.55,-30.975,1.35,,adl
8.279907,-0.0926,0.119,0.1174,0.0092,-0.017,-0.0041,-32.325,-31.05,1.725,,adl
8.299144,-0.0926,0.119,0.1174,0.0092,-0.017,-0.0041,-32.325,-31.05,1.725,,adl
8.303649,-0.086,0.0209,0.1573,0.0092,-0.017,-0.0041,-32.325,-31.05,1.725,,adl
8.317689,-0.086,0.0209,0.1573,0.0092,-0.017,-0.0041,-32.325,-31.05,1.725,,adl
8.321147,-0.005,-0.0248,0.1917,0.0092,-0.017,-0.0041,-32.325,-31.05,1.725,,adl
8.324291,-0.005,-0.0248,0.1917,-0.0107,-0.0133,-0.0093,-32.325,-31.05,1.725,,adl
8.338201,-0.005,-0.0248,0.1917,-0.0107,-0.0133,-0.0093,-32.325,-31.05,1.725,,adl
8.340846,0.0201,-0.0039,0.1351,-0.0107,-0.0133,-0.0093,-32.325,-31.05,1.725,,adl
8.345831,0.0201,-0.0039,0.1351,-0.0107,-0.0133,-0.0093,-32.175,-30.825,1.95,,adl
8.355249,0.0201,-0.0039,0.1351,-0.0107,-0.0133,-0.0093,-32.175,-30.825,1.95,,adl
8.357831,-0.0333,0.032,0.153,-0.0107,-0.0133,-0.0093,-32.175,-30.825,1.95,,adl
8.374801,-0.0333,0.032,0.153,-0.0107,-0.0133,-0.0093,-32.175,-30.825,1.95,,adl
8.37702,-0.0472,0.0569,0.2024,-0.0107,-0.0133,-0.0093,-32.175,-30.825,1.95,,adl
8.389481,-0.0472,0.0569,0.2024,-0.0032,-0.0026,0.006,-32.175,-30.825,1.95,,adl
8.394073,-0.0472,0.0569,0.2024,-0.0032,-0.0026,0.006,-32.175,-30.825,1.95,,adl
8.395723,-0.0071,0.0741,0.2314,-0.0032,-0.0026,0.006,-32.175,-30.825,1.95,,adl
8.413861,-0.0071,0.0741,0.2314,-0.0032,-0.0026,0.006,-32.175,-30.825,1.95,,adl
8.417612,0.0287,0.0254,0.2224,-0.0032,-0.0026,0.006,-32.175,-30.825,1.95,,adl
8.419626,0.0287,0.0254,0.2224,-0.0032,-0.0026,0.006,-32.775,-30.525,1.65,,adl
8.439176,0.0287,0.0254,0.2224,-0.0032,-0.0026,0.006,-32.775,-30.525,1.65,,adl
8.441937,0.0135,-0.0412,0.0384,-0.0032,-0.0026,0.006,-32.775,-30.525,1.65,,adl
8.458417,0.0135,-0.0412,0.0384,-0.0032,-0.0026,0.006,-32.775,-30.525,1.65,,adl
8.460734,0.0852,-0.0392,0.1678,-0.0032,-0.0026,0.006,-32.775,-30.525,1.65,,adl
8.462553,0.0852,-0.0392,0.1678,0.0058,0.007,0.0087,-32.775,-30.525,1.65,,adl
8.475025,0.0852,-0.0392,0.1678,0.0058,0.007,0.0087,-32.775,-30.525,1.65,,adl
8.477082,0.0919,0.0263,0.2255,0.0058,0.007,0.0087,-32.775,-30.525,1.65,,adl
8.487469,0.0919,0.0263,0.2255,0.0058,0.007,0.0087,-32.475,-29.925,1.95,,adl
8.498568,0.0919,0.0263,0.2255,0.0058,0.007,0.0087,-32.475,-29.925,1.95,,adl
8.500833,0.0423,0.0699,0.1629,0.0058,0.007,0.0087,-32.475,-29.925,1.95,,adl
8.51771,0.0423,0.0699,0.1629,0.0058,0.007,0.0087,-32.475,-29.925,1.95,,adl
8.520827,0.04,0.1047,0.1361,0.0058,0.007,0.0087,-32.475,-29.925,1.95,,adl
8.532258,0.04,0.1047,0.1361,0.0102,0.0098,-0.0023,-32.475,-29.925,1.95,,adl
8.53651,0.04,0.1047,0.1361,0.0102,0.0098,-0.0023,-32.475,-29.925,1.95,,adl
8.538464,0.0215,0.1246,0.1145,0.0102,0.0098,-0.0023,-32.475,-29.925,1.95,,adl
8.55669,0.0215,0.1246,0.1145,0.0102,0.0098,-0.0023,-32.475,-29.925,1.95,,adl
8.55923,0.0085,0.1134,0.1603,0.0102,0.0098,-0.0023,-32.475,-29.925,1.95,,adl
8.560983,0.0085,0.1134,0.1603,0.0102,0.0098,-0.0023,-32.325,-30.225,2.325,,adl
8.575526,0.0085,0.1134,0.1603,0.0102,0.0098,-0.0023,-32.325,-30.225,2.325,,adl
8.578518,0.0055,0.0774,0.1477,0.0102,0.0098,-0.0023,-32.325,-30.225,2.325,,adl
8.595068,0.0055,0.0774,0.1477,0.0102,0.0098,-0.0023,-32.325,-30.225,2.325,,adl
8.598284,-0.0032,0.0307,0.113,0.0102,0.0098,-0.0023,-32.325,-30.225,2.325,,adl
8.600641,-0.0032,0.0307,0.113,0.0055,0.0107,0.0009,-32.325,-30.225,2.325,,adl
8.620532,-0.0032,0.0307,0.113,0.0055,0.0107,0.0009,-32.325,-30.225,2.325,,adl
8.622488,-0.0184,0.0261,0.1348,0.0055,0.0107,0.0009,-32.325,-30.225,2.325,,adl
8.625421,-0.0184,0.0261,0.1348,0.0055,0.0107,0.0009,-32.625,-30.45,1.35,,adl
8.635657,-0.0184,0.0261,0.1348,0.0055,0.0107,0.0009,-32.625,-30.45,1.35,,adl
8.638083,-0.024,0.0375,0.1711,0.0055,0.0107,0.0009,-32.625,-30.45,1.35,,adl
8.653633,-0.024,0.0375,0.1711,0.0055,0.0107,0.0009,-32.625,-30.45,1.35,,adl
8.65637,-0.0434,0.0317,0.1709,0.0055,0.0107,0.0009,-32.625,-30.45,1.35,,adl
8.668814,-0.0434,0.0317,0.1709,0.0061,-0.0021,-0.0008,-32.625,-30.45,1.35,,adl
8.673945,-0.0434,0.0317,0.1709,0.0061,-0.0021,-0.0008,-32.625,-30.45,1.35,,adl
8.67573,-0.0461,0.0116,0.1608,0.0061,-0.0021,-0.0008,-32.625,-30.45,1.35,,adl
8.698485,-0.0461,0.0116,0.1608,0.0061,-0.0021,-0.0008,-32.625,-30.45,1.35,,adl
8.703271,-0.0311,0.0085,0.1914,0.0061,-0.0021,-0.0008,-32.625,-30.45,1.35,,adl
8.706911,-0.0311,0.0085,0.1914,0.0061,-0.0021,-0.0008,-32.4,-30.825,2.55,,adl
8.720009,-0.0311,0.0085,0.1914,0.0061,-0.0021,-0.0008,-32.4,-30.825,2.55,,adl
8.721996,-0.0248,0.0289,0.1728,0.0061,-0.0021,-0.0008,-32.4,-30.825,2.55,,adl
8.736536,-0.0248,0.0289,0.1728,0.0061,-0.0021,-0.0008,-32.4,-30.825,2.55,,adl
8.739035,-0.028,0.0569,0.1577,0.0061,-0.0021,-0.0008,-32.4,-30.825,2.55,,adl
8.742457,-0.028,0.0569,0.1577,0.0078,0.0008,0.0026,-32.4,-30.825,2.55,,adl
8.757977,-0.028,0.0569,0.1577,0.0078,0.0008,0.0026,-32.4,-30.825,2.55,,adl
8.75967,-0.0421,0.0899,0.1524,0.0078,0.0008,0.0026,-32.4,-30.825,2.55,,adl
8.767053,-0.0421,0.0899,0.1524,0.0078,0.0008,0.0026,-32.025,-30.825,1.35,,adl
8.776678,-0.0421,0.0899,0.1524,0.0078,0.0008,0.0026,-32.025,-30.825,1.35,,adl
8.77833,-0.054,0.0914,0.1473,0.0078,0.0008,0.0026,-32.025,-30.825,1.35,,adl
8.798523,-0.054,0.0914,0.1473,0.0078,0.0008,0.0026,-32.025,-30.825,1.35,,adl
8.803927,-0.0088,0.058,0.1237,0.0078,0.0008,0.0026,-32.025,-30.825,1.35,,adl
8.811007,-0.0088,0.058,0.1237,-0.0024,0.0027,0.0027,-32.025,-30.825,1.35,,adl
8.816605,-0.0088,0.058,0.1237,-0.0024,0.0027,0.0027,-32.025,-30.825,1.35,,adl
8.819189,0.0432,0.0362,0.1358,-0.0024,0.0027,0.0027,-32.025,-30.825,1.35,,adl
8.8375,0.0432,0.0362,0.1358,-0.0024,0.0027,0.0027,-32.025,-30.825,1.35,,adl
8.83972,0.0246,0.0072,0.2117,-0.0024,0.0027,0.0027,-32.025,-30.825,1.35,,adl
8.84159,0.0246,0.0072,0.2117,-0.0024,0.0027,0.0027,-32.1,-29.85,1.65,,adl
8.853945,0.0246,0.0072,0.2117,-0.0024,0.0027,0.0027,-32.1,-29.85,1.65,,adl
8.856433,0.0195,0.0254,0.1817,-0.0024,0.0027,0.0027,-32.1,-29.85,1.65,,adl
8.873602,0.0195,0.0254,0.1817,-0.0024,0.0027,0.0027,-32.1,-29.85,1.65,,adl
8.876301,0.094,0.0822,0.1281,-0.0024,0.0027,0.0027,-32.1,-29.85,1.65,,adl
8.878873,0.094,0.0822,0.1281,0.0011,0.0014,0.0069,-32.1,-29.85,1.65,,adl
8.892897,0.094,0.0822,0.1281,0.0011,0.0014,0.0069,-32.1,-29.85,1.65,,adl
8.895122,0.0837,0.1082,0.1113,0.0011,0.0014,0.0069,-32.1,-29.85,1.65,,adl
8.903404,0.0837,0.1082,0.1113,0.0011,0.0014,0.0069,-32.325,-30.15,0.825,,adl
8.912631,0.0837,0.1082,0.1113,0.0011,0.0014,0.0069,-32.325,-30.15,0.825,,adl
8.914381,0.0301,0.0632,0.0935,0.0011,0.0014,0.0069,-32.325,-30.15,0.825,,adl
8.932101,0.0301,0.0632,0.0935,0.0011,0.0014,0.0069,-32.325,-30.15,0.825,,adl
8.934904,-0.0291,0.077,0.2495,0.0011,0.0014,0.0069,-32.325,-30.15,0.825,,adl
8.954135,-0.0291,0.077,0.2495,-0.0009,0.0116,-0.0012,-32.325,-30.15,0.825,,adl
8.956382,-0.0291,0.077,0.2495,-0.0009,0.0116,-0.0012,-32.325,-30.15,0.825,,adl
8.95801,0.0114,0.0682,0.0856,-0.0009,0.0116,-0.0012,-32.325,-30.15,0.825,,adl
8.971238,0.0114,0.0682,0.0856,-0.0009,0.0116,-0.0012,-32.325,-30.15,0.825,,adl
8.973387,0.0217,0.0693,0.0706,-0.0009,0.0116,-0.0012,-32.325,-30.15,0.825,,adl
8.974811,0.0217,0.0693,0.0706,-0.0009,0.0116,-0.0012,-32.625,-31.05,2.025,,adl
8.991035,0.0217,0.0693,0.0706,-0.0009,0.0116,-0.0012,-32.625,-31.05,2.025,,adl
8.993828,-0.0342,-0.0138,0.2546,-0.0009,0.0116,-0.0012,-32.625,-31.05,2.025,,adl
9.010662,-0.0342,-0.0138,0.2546,-0.0009,0.0116,-0.0012,-32.625,-31.05,2.025,,adl
9.013396,-0.0089,-0.0674,0.3728,-0.0009,0.0116,-0.0012,-32.625,-31.05,2.025,,adl
9.015571,-0.0089,-0.0674,0.3728,0.0096,-0.005,0.0012,-32.625,-31.05,2.025,,adl
9.025322,-0.0089,-0.0674,0.3728,0.0096,-0.005,0.0012,-32.625,-31.05,2.025,,adl
9.027053,0.0068,-0.0318,0.2052,0.0096,-0.005,0.0012,-32.625,-31.05,2.025,,adl
9.043018,0.0068,-0.0318,0.2052,0.0096,-0.005,0.0012,-32.175,-29.925,2.325,,adl
9.049151,0.0068,-0.0318,0.2052,0.0096,-0.005,0.0012,-32.175,-29.925,2.325,,adl
9.050958,-0.0173,0.0532,0.0825,0.0096,-0.005,0.0012,-32.175,-29.925,2.325,,adl
9.074399,-0.0173,0.0532,0.0825,0.0096,-0.005,0.0012,-32.175,-29.925,2.325,,adl
9.076344,-0.0313,0.1334,0.1272,0.0096,-0.005,0.0012,-32.175,-29.925,2.325,,adl
9.08904,-0.0313,0.1334,0.1272,0.0286,-0.0002,-0.0034,-32.175,-29.925,2.325,,adl
9.093485,-0.0313,0.1334,0.1272,0.0286,-0.0002,-0.0034,-32.175,-29.925,2.325,,adl
9.09528,-0.0703,0.1081,0.135,0.0286,-0.0002,-0.0034,-32.175,-29.925,2.325,,adl
9.113607,-0.0703,0.1081,0.135,0.0286,-0.0002,-0.0034,-32.175,-29.925,2.325,,adl
9.116625,-0.0536,0.0341,0.1349,0.0286,-0.0002,-0.0034,-32.175,-29.925,2.325,,adl
9.118572,-0.0536,0.0341,0.1349,0.0286,-0.0002,-0.0034,-31.425,-30.45,2.175,,adl
9.137874,-0.0536,0.0341,0.1349,0.0286,-0.0002,-0.0034,-31.425,-30.45,2.175,,adl
9.140836,-0.002,-0.0061,0.2109,0.0286,-0.0002,-0.0034,-31.425,-30.45,2.175,,adl
9.1525,-0.002,-0.0061,0.2109,0.0286,-0.0002,-0.0034,-31.425,-30.45,2.175,,adl
9.155041,0.0232,0.0205,0.1568,0.0286,-0.0002,-0.0034,-31.425,-30.45,2.175,,adl
9.160595,0.0232,0.0205,0.1568,0.0015,0.0035,0.0029,-31.425,-30.45,2.175,,adl
9.172032,0.0232,0.0205,0.1568,0.0015,0.0035,0.0029,-31.425,-30.45,2.175,,adl
9.173929,0.0284,0.0821,0.0531,0.0015,0.0035,0.0029,-31.425,-30.45,2.175,,adl
9.183418,0.0284,0.0821,0.0531,0.0015,0.0035,0.0029,-32.325,-30.75,2.025,,adl
9.191216,0.0284,0.0821,0.0531,0.0015,0.0035,0.0029,-32.325,-30.75,2.025,,adl
9.192742,0.011,0.0885,0.1692,0.0015,0.0035,0.0029,-32.325,-30.75,2.025,,adl
9.21112,0.011,0.0885,0.1692,0.0015,0.0035,0.0029,-32.325,-30.75,2.025,,adl
9.213477,0.0114,0.0124,0.2305,0.0015,0.0035,0.0029,-32.325,-30.75,2.025,,adl
9.225297,0.0114,0.0124,0.2305,-0.0163,-0.0082,0.0006,-32.325,-30.75,2.025,,adl
9.234848,0.0114,0.0124,0.2305,-0.0163,-0.0082,0.0006,-32.325,-30.75,2.025,,adl
9.236391,0.0421,-0.0383,0.2934,-0.0163,-0.0082,0.0006,-32.325,-30.75,2.025,,adl
9.252462,0.0421,-0.0383,0.2934,-0.0163,-0.0082,0.0006,-32.325,-30.75,2.025,,adl
9.255274,0.0615,-0.0019,0.0936,-0.0163,-0.0082,0.0006,-32.325,-30.75,2.025,,adl
9.25712,0.0615,-0.0019,0.0936,-0.0163,-0.0082,0.0006,-32.25,-30.375,1.875,,adl
9.269977,0.0615,-0.0019,0.0936,-0.0163,-0.0082,0.0006,-32.25,-30.375,1.875,,adl
9.272585,0.0048,0.0652,0.0654,-0.0163,-0.0082,0.0006,-32.25,-30.375,1.875,,adl
9.289402,0.0048,0.0652,0.0654,-0.0163,-0.0082,0.0006,-32.25,-30.375,1.875,,adl
9.291607,0.0068,0.0709,0.1877,-0.0163,-0.0082,0.0006,-32.25,-30.375,1.875,,adl
9.293993,0.0068,0.0709,0.1877,-0.005,-0.0014,0.0015,-32.25,-30.375,1.875,,adl
9.308904,0.0068,0.0709,0.1877,-0.005,-0.0014,0.0015,-32.25,-30.375,1.875,,adl
9.310945,-0.0259,0.0162,0.2335,-0.005,-0.0014,0.0015,-32.25,-30.375,1.875,,adl
9.323623,-0.0259,0.0162,0.2335,-0.005,-0.0014,0.0015,-32.625,-29.925,1.65,,adl
9.325834,-0.0259,0.0162,0.2335,-0.005,-0.0014,0.0015,-32.625,-29.925,1.65,,adl
9.327179,-0.0129,-0.0081,0.1598,-0.005,-0.0014,0.0015,-32.625,-29.925,1.65,,adl
9.352754,-0.0129,-0.0081,0.1598,-0.005,-0.0014,0.0015,-32.625,-29.925,1.65,,adl
9.356417,-0.0008,0.0633,0.1567,-0.005,-0.0014,0.0015,-32.625,-29.925,1.65,,adl
9.371156,-0.0008,0.0633,0.1567,0.0011,0.0082,0.0057,-32.625,-29.925,1.65,,adl
9.374311,-0.0008,0.0633,0.1567,0.0011,0.0082,0.0057,-32.625,-29.925,1.65,,adl
9.37648,-0.0339,0.1163,0.1934,0.0011,0.0082,0.0057,-32.625,-29.925,1.65,,adl
9.392258,-0.0339,0.1163,0.1934,0.0011,0.0082,0.0057,-32.625,-29.925,1.65,,adl
9.394886,-0.0201,0.0951,0.1453,0.0011,0.0082,0.0057,-32.625,-29.925,1.65,,adl
9.396617,-0.0201,0.0951,0.1453,0.0011,0.0082,0.0057,-32.775,-29.85,1.65,,adl
9.411556,-0.0201,0.0951,0.1453,0.0011,0.0082,0.0057,-32.775,-29.85,1.65,,adl
9.414358,-0.0188,0.0622,0.1203,0.0011,0.0082,0.0057,-32.775,-29.85,1.65,,adl
9.431857,-0.0188,0.0622,0.1203,0.0011,0.0082,0.0057,-32.775,-29.85,1.65,,adl
9.435474,-0.0028,0.0362,0.1553,0.0011,0.0082,0.0057,-32.775,-29.85,1.65,,adl
9.437687,-0.0028,0.0362,0.1553,0.0076,0.0072,-0.0021,-32.775,-29.85,1.65,,adl
9.452431,-0.0028,0.0362,0.1553,0.0076,0.0072,-0.0021,-32.775,-29.85,1.65,,adl
9.454687,0.0066,0.0508,0.1795,0.0076,0.0072,-0.0021,-32.775,-29.85,1.65,,adl
9.4636,0.0066,0.0508,0.1795,0.0076,0.0072,-0.0021,-32.55,-30.375,2.55,,adl
9.472614,0.0066,0.0508,0.1795,0.0076,0.0072,-0.0021,-32.55,-30.375,2.55,,adl
9.474745,-0.0024,0.0629,0.1641,0.0076,0.0072,-0.0021,-32.55,-30.375,2.55,,adl
9.489742,-0.0024,0.0629,0.1641,0.0076,0.0072,-0.0021,-32.55,-30.375,2.55,,adl
9.492169,0.0163,0.0406,0.1538,0.0076,0.0072,-0.0021,-32.55,-30.375,2.55,,adl
9.504201,0.0163,0.0406,0.1538,0.0082,0.0023,-0.0011,-32.55,-30.375,2.55,,adl
9.509136,0.0163,0.0406,0.1538,0.0082,0.0023,-0.0011,-32.55,-30.375,2.55,,adl
9.510702,0.0326,0.0228,0.1964,0.0082,0.0023,-0.0011,-32.55,-30.375,2.55,,adl
9.52532,0.0326,0.0228,0.1964,0.0082,0.0023,-0.0011,-32.55,-30.375,2.55,,adl
9.527754,0.0352,0.0037,0.2106,0.0082,0.0023,-0.0011,-32.55,-30.375,2.55,,adl
9.533511,0.0352,0.0037,0.2106,0.0082,0.0023,-0.0011,-32.1,-30.15,2.025,,adl
9.550209,0.0352,0.0037,0.2106,0.0082,0.0023,-0.0011,-32.1,-30.15,2.025,,adl
9.554305,0.0263,0.0157,0.1785,0.0082,0.0023,-0.0011,-32.1,-30.15,2.025,,adl
9.568509,0.0263,0.0157,0.1785,0.0082,0.0023,-0.0011,-32.1,-30.15,2.025,,adl
9.571744,0.0125,0.0446,0.1531,0.0082,0.0023,-0.0011,-32.1,-30.15,2.025,,adl
9.573821,0.0125,0.0446,0.1531,0.014,0.0017,-0.0041,-32.1,-30.15,2.025,,adl
9.587832,0.0125,0.0446,0.1531,0.014,0.0017,-0.0041,-32.1,-30.15,2.025,,adl
9.589759,0.0101,0.0494,0.1587,0.014,0.0017,-0.0041,-32.1,-30.15,2.025,,adl
9.603291,0.0101,0.0494,0.1587,0.014,0.0017,-0.0041,-31.8,-30.225,1.875,,adl
9.605519,0.0101,0.0494,0.1587,0.014,0.0017,-0.0041,-31.8,-30.225,1.875,,adl
9.606623,-0.0019,0.0431,0.1713,0.014,0.0017,-0.0041,-31.8,-30.225,1.875,,adl
9.625465,-0.0019,0.0431,0.1713,0.014,0.0017,-0.0041,-31.8,-30.225,1.875,,adl
9.627362,-0.003,0.0403,0.1673,0.014,0.0017,-0.0041,-31.8,-30.225,1.875,,adl
9.641295,-0.003,0.0403,0.1673,0.0122,0.0015,0.0005,-31.8,-30.225,1.875,,adl
9.646293,-0.003,0.0403,0.1673,0.0122,0.0015,0.0005,-31.8,-30.225,1.875,,adl
9.647819,-0.0044,0.0497,0.1805,0.0122,0.0015,0.0005,-31.8,-30.225,1.875,,adl
9.665985,-0.0044,0.0497,0.1805,0.0122,0.0015,0.0005,-31.8,-30.225,1.875,,adl
9.669348,0.0114,0.0584,0.1602,0.0122,0.0015,0.0005,-31.8,-30.225,1.875,,adl
9.673153,0.0114,0.0584,0.1602,0.0122,0.0015,0.0005,-32.1,-30.45,1.65,,adl
9.690602,0.0114,0.0584,0.1602,0.0122,0.0015,0.0005,-32.1,-30.45,1.65,,adl
9.692496,0.0151,0.0585,0.1319,0.0122,0.0015,0.0005,-32.1,-30.45,1.65,,adl
9.710006,0.0151,0.0585,0.1319,0.0122,0.0015,0.0005,-32.1,-30.45,1.65,,adl
9.712854,-0.0259,0.0331,0.1945,0.0122,0.0015,0.0005,-32.1,-30.45,1.65,,adl
9.715329,-0.0259,0.0331,0.1945,0.0105,-0.0011,-0.0009,-32.1,-30.45,1.65,,adl
9.725067,-0.0259,0.0331,0.1945,0.0105,-0.0011,-0.0009,-32.1,-30.45,1.65,,adl
9.727322,-0.0282,0.0179,0.1975,0.0105,-0.0011,-0.0009,-32.1,-30.45,1.65,,adl
9.743584,-0.0282,0.0179,0.1975,0.0105,-0.0011,-0.0009,-31.8,-31.275,2.475,,adl
9.752453,-0.0282,0.0179,0.1975,0.0105,-0.0011,-0.0009,-31.8,-31.275,2.475,,adl
9.754543,0.0387,0.0639,0.0995,0.0105,-0.0011,-0.0009,-31.8,-31.275,2.475,,adl
9.76881,0.0387,0.0639,0.0995,0.0105,-0.0011,-0.0009,-31.8,-31.275,2.475,,adl
9.770672,0.0075,0.0827,0.1038,0.0105,-0.0011,-0.0009,-31.8,-31.275,2.475,,adl
9.783367,0.0075,0.0827,0.1038,0.0073,-0.0092,0.0014,-31.8,-31.275,2.475,,adl
9.788395,0.0075,0.0827,0.1038,0.0073,-0.0092,0.0014,-31.8,-31.275,2.475,,adl
9.790391,-0.0182,0.0434,0.0911,0.0073,-0.0092,0.0014,-31.8,-31.275,2.475,,adl
9.8079,-0.0182,0.0434,0.0911,0.0073,-0.0092,0.0014,-31.8,-31.275,2.475,,adl
9.809903,-0.0601,0.0549,0.3014,0.0073,-0.0092,0.0014,-31.8,-31.275,2.475,,adl
9.81499,-0.0601,0.0549,0.3014,0.0073,-0.0092,0.0014,-32.025,-30.75,2.025,,adl
9.82485,-0.0601,0.0549,0.3014,0.0073,-0.0092,0.0014,-32.025,-30.75,2.025,,adl
9.8271,-0.0062,0.0895,0.1028,0.0073,-0.0092,0.0014,-32.025,-30.75,2.025,,adl
9.846897,-0.0062,0.0895,0.1028,0.0073,-0.0092,0.0014,-32.025,-30.75,2.025,,adl
9.851918,0.0334,0.1211,-0.0267,0.0073,-0.0092,0.0014,-32.025,-30.75,2.025,,adl
9.854162,0.0334,0.1211,-0.0267,-0.0069,0.017,-0.0044,-32.025,-30.75,2.025,,adl
9.870979,0.0334,0.1211,-0.0267,-0.0069,0.017,-0.0044,-32.025,-30.75,2.025,,adl
9.873845,-0.0374,0.0315,0.2506,-0.0069,0.017,-0.0044,-32.025,-30.75,2.025,,adl
9.885689,-0.0374,0.0315,0.2506,-0.0069,0.017,-0.0044,-32.55,-30.525,2.325,,adl
9.887725,-0.0374,0.0315,0.2506,-0.0069,0.017,-0.0044,-32.55,-30.525,2.325,,adl
9.889113,-0.0233,-0.1147,0.4514,-0.0069,0.017,-0.0044,-32.55,-30.525,2.325,,adl
9.905929,-0.0233,-0.1147,0.4514,-0.0069,0.017,-0.0044,-32.55,-30.525,2.325,,adl
9.908503,0.0487,-0.1276,0.222,-0.0069,0.017,-0.0044,-32.55,-30.525,2.325,,adl
9.91989,0.0487,-0.1276,0.222,0.0052,-0.0258,-0.005,-32.55,-30.525,2.325,,adl
9.925055,0.0487,-0.1276,0.222,0.0052,-0.0258,-0.005,-32.55,-30.525,2.325,,adl
9.926809,0.026,-0.0023,0.0811,0.0052,-0.0258,-0.005,-32.55,-30.525,2.325,,adl
9.944824,0.026,-0.0023,0.0811,0.0052,-0.0258,-0.005,-32.55,-30.525,2.325,,adl
9.946971,-0.0227,0.1331,0.1307,0.0052,-0.0258,-0.005,-32.55,-30.525,2.325,,adl
9.954287,-0.0227,0.1331,0.1307,0.0052,-0.0258,-0.005,-32.175,-30.75,1.875,,adl
9.969641,-0.0227,0.1331,0.1307,0.0052,-0.0258,-0.005,-32.175,-30.75,1.875,,adl
9.972496,-0.0303,0.1462,0.1551,0.0052,-0.0258,-0.005,-32.175,-30.75,1.875,,adl
9.989164,-0.0303,0.1462,0.1551,0.0052,-0.0258,-0.005,-32.175,-30.75,1.875,,adl
9.992146,0.0241,0.0642,0.1537,0.0052,-0.0258,-0.005,-32.175,-30.75,1.875,,adl
9.994007,0.0241,0.0642,0.1537,-0.0089,-0.0145,-0.0009,-32.175,-30.75,1.875,,adl
10.00866,0.0241,0.0642,0.1537,-0.0089,-0.0145,-0.0009,-32.175,-30.75,1.875,,adl
10.010888,0.0537,0.0196,0.183,-0.0089,-0.0145,-0.0009,-32.175,-30.75,1.875,,adl
10.023406,0.0537,0.0196,0.183,-0.0089,-0.0145,-0.0009,-32.175,-30.75,1.875,,adl
10.026216,0.0325,0.0425,0.1345,-0.0089,-0.0145,-0.0009,-32.175,-30.75,1.875,,adl
10.027964,0.0325,0.0425,0.1345,-0.0089,-0.0145,-0.0009,-32.775,-30.375,1.425,,adl
10.051841,0.0325,0.0425,0.1345,-0.0089,-0.0145,-0.0009,-32.775,-30.375,1.425,,adl
10.055235,-0.003,0.0929,0.1329,-0.0089,-0.0145,-0.0009,-32.775,-30.375,1.425,,adl
10.062045,-0.003,0.0929,0.1329,-0.0217,-0.0078,-0.0024,-32.775,-30.375,1.425,,adl
10.07089,-0.003,0.0929,0.1329,-0.0217,-0.0078,-0.0024,-32.775,-30.375,1.425,,adl
10.073487,-0.0266,0.0945,0.1551,-0.0217,-0.0078,-0.0024,-32.775,-30.375,1.425,,adl
10.086668,-0.0266,0.0945,0.1551,-0.0217,-0.0078,-0.0024,-32.775,-30.375,1.425,,adl
10.089302,-0.0168,0.0352,0.1617,-0.0217,-0.0078,-0.0024,-32.775,-30.375,1.425,,adl
10.091105,-0.0168,0.0352,0.1617,-0.0217,-0.0078,-0.0024,-32.55,-30.45,1.65,,adl
10.106306,-0.0168,0.0352,0.1617,-0.0217,-0.0078,-0.0024,-32.55,-30.45,1.65,,adl
10.108864,0.022,-0.0246,0.2928,-0.0217,-0.0078,-0.0024,-32.55,-30.45,1.65,,adl
10.125416,0.022,-0.0246,0.2928,-0.0217,-0.0078,-0.0024,-32.55,-30.45,1.65,,adl
10.127934,0.0237,-0.005,0.127,-0.0217,-0.0078,-0.0024,-32.55,-30.45,1.65,,adl
10.13199,0.0237,-0.005,0.127,-0.0278,-0.0082,-0.0038,-32.55,-30.45,1.65,,adl
10.14588,0.0237,-0.005,0.127,-0.0278,-0.0082,-0.0038,-32.55,-30.45,1.65,,adl
10.148076,-0.0258,0.0381,0.0769,-0.0278,-0.0082,-0.0038,-32.55,-30.45,1.65,,adl
10.156514,-0.0258,0.0381,0.0769,-0.0278,-0.0082,-0.0038,-32.475,-30.15,2.025,,adl
10.168849,-0.0258,0.0381,0.0769,-0.0278,-0.0082,-0.0038,-32.475,-30.15,2.025,,adl
10.171536,0.0194,0.0125,0.2607,-0.0278,-0.0082,-0.0038,-32.475,-30.15,2.025,,adl
10.186857,0.0194,0.0125,0.2607,-0.0278,-0.0082,-0.0038,-32.475,-30.15,2.025,,adl
10.18953,0.0085,-0.0314,0.2775,-0.0278,-0.0082,-0.0038,-32.475,-30.15,2.025,,adl
10.202502,0.0085,-0.0314,0.2775,-0.033,-0.0041,-0.0035,-32.475,-30.15,2.025,,adl
10.205367,0.0085,-0.0314,0.2775,-0.033,-0.0041,-0.0035,-32.475,-30.15,2.025,,adl
10.206639,-0.0239,-0.0237,0.2038,-0.033,-0.0041,-0.0035,-32.475,-30.15,2.025,,adl
10.224756,-0.0239,-0.0237,0.2038,-0.033,-0.0041,-0.0035,-32.475,-30.15,2.025,,adl
10.227204,-0.0321,0.0548,0.1412,-0.033,-0.0041,-0.0035,-32.475,-30.15,2.025,,adl
10.228822,-0.0321,0.0548,0.1412,-0.033,-0.0041,-0.0035,-32.55,-30.375,1.725,,adl
10.248965,-0.0321,0.0548,0.1412,-0.033,-0.0041,-0.0035,-32.55,-30.375,1.725,,adl
10.252242,-0.0454,0.1197,0.1461,-0.033,-0.0041,-0.0035,-32.55,-30.375,1.725,,adl
10.26769,-0.0454,0.1197,0.1461,-0.033,-0.0041,-0.0035,-32.55,-30.375,1.725,,adl
10.27065,-0.0217,0.1151,0.1759,-0.033,-0.0041,-0.0035,-32.55,-30.375,1.725,,adl
10.272884,-0.0217,0.1151,0.1759,-0.0217,-0.0035,-0.0052,-32.55,-30.375,1.725,,adl
10.286792,-0.0217,0.1151,0.1759,-0.0217,-0.0035,-0.0052,-32.55,-30.375,1.725,,adl
10.288944,-0.0127,0.0767,0.1287,-0.0217,-0.0035,-0.0052,-32.55,-30.375,1.725,,adl
10.299061,-0.0127,0.0767,0.1287,-0.0217,-0.0035,-0.0052,-32.1,-30.75,1.875,,adl
10.307044,-0.0127,0.0767,0.1287,-0.0217,-0.0035,-0.0052,-32.1,-30.75,1.875,,adl
10.309146,0.0056,0.0715,0.1105,-0.0217,-0.0035,-0.0052,-32.1,-30.75,1.875,,adl
10.32581,0.0056,0.0715,0.1105,-0.0217,-0.0035,-0.0052,-32.1,-30.75,1.875,,adl
10.327925,0.012,0.0799,0.1554,-0.0217,-0.0035,-0.0052,-32.1,-30.75,1.875,,adl
10.340668,0.012,0.0799,0.1554,-0.0171,-0.0002,0.0011,-32.1,-30.75,1.875,,adl
10.34543,0.012,0.0799,0.1554,-0.0171,-0.0002,0.0011,-32.1,-30.75,1.875,,adl
10.346954,0.026,0.0879,0.1721,-0.0171,-0.0002,0.0011,-32.1,-30.75,1.875,,adl
10.364993,0.026,0.0879,0.1721,-0.0171,-0.0002,0.0011,-32.1,-30.75,1.875,,adl
10.368046,0.0087,0.0711,0.1565,-0.0171,-0.0002,0.0011,-32.1,-30.75,1.875,,adl
10.370452,0.0087,0.0711,0.1565,-0.0171,-0.0002,0.0011,-32.55,-30.75,1.65,,adl
10.38483,0.0087,0.0711,0.1565,-0.0171,-0.0002,0.0011,-32.55,-30.75,1.65,,adl
10.387414,0.0185,0.0264,0.1681,-0.0171,-0.0002,0.0011,-32.55,-30.75,1.65,,adl
10.404728,0.0185,0.0264,0.1681,-0.0171,-0.0002,0.0011,-32.55,-30.75,1.65,,adl
10.408399,0.0333,0.0128,0.1806,-0.0171,-0.0002,0.0011,-32.55,-30.75,1.65,,adl
10.41066,0.0333,0.0128,0.1806,-0.0105,-0.002,-0.0003,-32.55,-30.75,1.65,,adl
10.423741,0.0333,0.0128,0.1806,-0.0105,-0.002,-0.0003,-32.55,-30.75,1.65,,adl
10.426041,0.0257,0.0169,0.1849,-0.0105,-0.002,-0.0003,-32.55,-30.75,1.65,,adl
10.434562,0.0257,0.0169,0.1849,-0.0105,-0.002,-0.0003,-32.025,-30.525,1.275,,adl
10.443024,0.0257,0.0169,0.1849,-0.0105,-0.002,-0.0003,-32.025,-30.525,1.275,,adl
10.444323,0.0043,0.0367,0.1657,-0.0105,-0.002,-0.0003,-32.025,-30.525,1.275,,adl
10.468749,0.0043,0.0367,0.1657,-0.0105,-0.002,-0.0003,-32.025,-30.525,1.275,,adl
10.472133,-0.0127,0.0523,0.1477,-0.0105,-0.002,-0.0003,-32.025,-30.525,1.275,,adl
10.488193,-0.0127,0.0523,0.1477,-0.0012,0.0012,-0.004,-32.025,-30.525,1.275,,adl
10.491098,-0.0127,0.0523,0.1477,-0.0012,0.0012,-0.004,-32.025,-30.525,1.275,,adl
10.493314,-0.0259,0.0624,0.1549,-0.0012,0.0012,-0.004,-32.025,-30.525,1.275,,adl
10.506667,-0.0259,0.0624,0.1549,-0.0012,0.0012,-0.004,-32.025,-30.525,1.275,,adl
10.50842,-0.031,0.0733,0.1773,-0.0012,0.0012,-0.004,-32.025,-30.525,1.275,,adl
10.511051,-0.031,0.0733,0.1773,-0.0012,0.0012,-0.004,-32.625,-30.45,1.65,,adl
10.525509,-0.031,0.0733,0.1773,-0.0012,0.0012,-0.004,-32.625,-30.45,1.65,,adl
10.526878,-0.0124,0.0689,0.1634,-0.0012,0.0012,-0.004,-32.625,-30.45,1.65,,adl
10.5464,-0.0124,0.0689,0.1634,-0.0012,0.0012,-0.004,-32.625,-30.45,1.65,,adl
10.549394,0.0109,0.0501,0.1331,-0.0012,0.0012,-0.004,-32.625,-30.45,1.65,,adl
10.551093,0.0109,0.0501,0.1331,-0.0031,-0.0029,-0.0032,-32.625,-30.45,1.65,,adl
10.576723,0.0109,0.0501,0.1331,-0.0031,-0.0029,-0.0032,-32.625,-30.45,1.65,,adl
10.579686,-0.0072,0.0194,0.2153,-0.0031,-0.0029,-0.0032,-32.625,-30.45,1.65,,adl
10.581674,-0.0072,0.0194,0.2153,-0.0031,-0.0029,-0.0032,-32.475,-30.675,1.725,,adl
10.589456,-0.0072,0.0194,0.2153,-0.0031,-0.0029,-0.0032,-32.475,-30.675,1.725,,adl
10.591272,-0.0165,0.0198,0.2131,-0.0031,-0.0029,-0.0032,-32.475,-30.675,1.725,,adl
10.605698,-0.0165,0.0198,0.2131,-0.0031,-0.0029,-0.0032,-32.475,-30.675,1.725,,adl
10.60838,-0.0011,0.079,0.117,-0.0031,-0.0029,-0.0032,-32.475,-30.675,1.725,,adl
10.619696,-0.0011,0.079,0.117,0.0104,0.0027,-0.0002,-32.475,-30.675,1.725,,adl
10.624153,-0.0011,0.079,0.117,0.0104,0.0027,-0.0002,-32.475,-30.675,1.725,,adl
10.625824,-0.0072,0.0825,0.1138,0.0104,0.0027,-0.0002,-32.475,-30.675,1.725,,adl
10.643577,-0.0072,0.0825,0.1138,0.0104,0.0027,-0.0002,-32.475,-30.675,1.725,,adl
10.64589,-0.0121,0.0498,0.0895,0.0104,0.0027,-0.0002,-32.475,-30.675,1.725,,adl
10.647094,-0.0121,0.0498,0.0895,0.0104,0.0027,-0.0002,-32.475,-30.375,1.875,,adl
10.664177,-0.0121,0.0498,0.0895,0.0104,0.0027,-0.0002,-32.475,-30.375,1.875,,adl
10.666303,-0.0474,0.0745,0.1929,0.0104,0.0027,-0.0002,-32.475,-30.375,1.875,,adl
10.684912,-0.0474,0.0745,0.1929,0.0104,0.0027,-0.0002,-32.475,-30.375,1.875,,adl
10.686721,0.0015,0.0762,0.1478,0.0104,0.0027,-0.0002,-32.475,-30.375,1.875,,adl
10.68778,0.0015,0.0762,0.1478,0.0066,0.0125,0.0005,-32.475,-30.375,1.875,,adl
10.703062,0.0015,0.0762,0.1478,0.0066,0.0125,0.0005,-32.475,-30.375,1.875,,adl
10.705069,0.0345,0.0699,0.0923,0.0066,0.0125,0.0005,-32.475,-30.375,1.875,,adl
10.715395,0.0345,0.0699,0.0923,0.0066,0.0125,0.0005,-32.775,-30.15,2.325,,adl
10.722237,0.0345,0.0699,0.0923,0.0066,0.0125,0.0005,-32.775,-30.15,2.325,,adl
10.723918,-0.0057,-0.0075,0.1974,0.0066,0.0125,0.0005,-32.775,-30.15,2.325,,adl
10.7471,-0.0057,-0.0075,0.1974,0.0066,0.0125,0.0005,-32.775,-30.15,2.325,,adl
10.750474,0.0201,-0.0423,0.31,0.0066,0.0125,0.0005,-32.775,-30.15,2.325,,adl
10.761571,0.0201,-0.0423,0.31,0.0235,-0.0101,-0.0014,-32.775,-30.15,2.325,,adl
10.770173,0.0201,-0.0423,0.31,0.0235,-0.0101,-0.0014,-32.775,-30.15,2.325,,adl
10.772516,0.0419,0.0039,0.1539,0.0235,-0.0101,-0.0014,-32.775,-30.15,2.325,,adl
10.785895,0.0419,0.0039,0.1539,0.0235,-0.0101,-0.0014,-32.775,-30.15,2.325,,adl
10.788072,0.0012,0.0712,0.1089,0.0235,-0.0101,-0.0014,-32.775,-30.15,2.325,,adl
10.78959,0.0012,0.0712,0.1089,0.0235,-0.0101,-0.0014,-32.475,-29.925,1.725,,adl
10.805518,0.0012,0.0712,0.1089,0.0235,-0.0101,-0.0014,-32.475,-29.925,1.725,,adl
10.80787,-0.0227,0.1003,0.1477,0.0235,-0.0101,-0.0014,-32.475,-29.925,1.725,,adl
10.825164,-0.0227,0.1003,0.1477,0.0235,-0.0101,-0.0014,-32.475,-29.925,1.725,,adl
10.828012,-0.0222,0.087,0.1083,0.0235,-0.0101,-0.0014,-32.475,-29.925,1.725,,adl
10.830371,-0.0222,0.087,0.1083,0.0272,0.0009,0.0003,-32.475,-29.925,1.725,,adl
10.844373,-0.0222,0.087,0.1083,0.0272,0.0009,0.0003,-32.475,-29.925,1.725,,adl
10.84695,-0.009,0.0524,0.1497,0.0272,0.0009,0.0003,-32.475,-29.925,1.725,,adl
10.854639,-0.009,0.0524,0.1497,0.0272,0.0009,0.0003,-32.4,-30.225,1.725,,adl
10.865323,-0.009,0.0524,0.1497,0.0272,0.0009,0.0003,-32.4,-30.225,1.725,,adl
10.867524,0.0156,0.0391,0.2373,0.0272,0.0009,0.0003,-32.4,-30.225,1.725,,adl
10.88693,0.0156,0.0391,0.2373,0.0272,0.0009,0.0003,-32.4,-30.225,1.725,,adl
10.889263,0.0076,0.0652,0.1452,0.0272,0.0009,0.0003,-32.4,-30.225,1.725,,adl
10.900942,0.0076,0.0652,0.1452,0.0157,0.0073,0.0006,-32.4,-30.225,1.725,,adl
10.904111,0.0076,0.0652,0.1452,0.0157,0.0073,0.0006,-32.4,-30.225,1.725,,adl
10.905942,-0.0194,0.0783,0.1153,0.0157,0.0073,0.0006,-32.4,-30.225,1.725,,adl
10.923061,-0.0194,0.0783,0.1153,0.0157,0.0073,0.0006,-32.4,-30.225,1.725,,adl
10.925619,-0.0192,0.0613,0.1761,0.0157,0.0073,0.0006,-32.4,-30.225,1.725,,adl
10.92755,-0.0192,0.0613,0.1761,0.0157,0.0073,0.0006,-32.325,-30.15,1.875,,adl
10.942388,-0.0192,0.0613,0.1761,0.0157,0.0073,0.0006,-32.325,-30.15,1.875,,adl
10.945006,-0.0013,0.0092,0.1668,0.0157,0.0073,0.0006,-32.325,-30.15,1.875,,adl
10.962165,-0.0013,0.0092,0.1668,0.0157,0.0073,0.0006,-32.325,-30.15,1.875,,adl
10.964825,0.0184,-0.0274,0.2911,0.0157,0.0073,0.0006,-32.325,-30.15,1.875,,adl
10.967806,0.0184,-0.0274,0.2911,0.0128,0.0105,0.0029,-32.325,-30.15,1.875,,adl
10.987626,0.0184,-0.0274,0.2911,0.0128,0.0105,0.0029,-32.325,-30.15,1.875,,adl
10.989776,-0.0025,0.0197,0.0974,0.0128,0.0105,0.0029,-32.325,-30.15,1.875,,adl
10.993065,-0.0025,0.0197,0.0974,0.0128,0.0105,0.0029,-32.475,-30.975,1.875,,adl
11.002364,-0.0025,0.0197,0.0974,0.0128,0.0105,0.0029,-32.475,-30.975,1.875,,adl
11.004055,-0.0496,0.0732,0.0346,0.0128,0.0105,0.0029,-32.475,-30.975,1.875,,adl
11.021147,-0.0496,0.0732,0.0346,0.0128,0.0105,0.0029,-32.475,-30.975,1.875,,adl
11.023699,-0.0003,0.0742,0.1804,0.0128,0.0105,0.0029,-32.475,-30.975,1.875,,adl
11.040054,-0.0003,0.0742,0.1804,0.0082,0.0111,0.002,-32.475,-30.975,1.875,,adl
11.044624,-0.0003,0.0742,0.1804,0.0082,0.0111,0.002,-32.475,-30.975,1.875,,adl
11.046491,0.0063,0.0243,0.2517,0.0082,0.0111,0.002,-32.475,-30.975,1.875,,adl
11.06474,0.0063,0.0243,0.2517,0.0082,0.0111,0.002,-32.475,-30.975,1.875,,adl
11.067386,0.0177,-0.0071,0.1239,0.0082,0.0111,0.002,-32.475,-30.975,1.875,,adl
11.069098,0.0177,-0.0071,0.1239,0.0082,0.0111,0.002,-31.8,-30.15,1.425,,adl
11.08894,0.0177,-0.0071,0.1239,0.0082,0.0111,0.002,-31.8,-30.15,1.425,,adl
11.091869,0.0302,0.0407,0.1231,0.0082,0.0111,0.002,-31.8,-30.15,1.425,,adl
11.103575,0.0302,0.0407,0.1231,0.0082,0.0111,0.002,-31.8,-30.15,1.425,,adl
11.105536,-0.0102,0.0974,0.2005,0.0082,0.0111,0.002,-31.8,-30.15,1.425,,adl
11.108795,-0.0102,0.0974,0.2005,0.0006,0.0151,0.0087,-31.8,-30.15,1.425,,adl
11.123318,-0.0102,0.0974,0.2005,0.0006,0.0151,0.0087,-31.8,-30.15,1.425,,adl
11.125656,-0.0078,0.0926,0.1797,0.0006,0.0151,0.0087,-31.8,-30.15,1.425,,adl
11.13342,-0.0078,0.0926,0.1797,0.0006,0.0151,0.0087,-32.4,-30.45,1.575,,adl
11.142461,-0.0078,0.0926,0.1797,0.0006,0.0151,0.0087,-32.4,-30.45,1.575,,adl
11.144404,0.0067,0.0474,0.1349,0.0006,0.0151,0.0087,-32.4,-30.45,1.575,,adl
11.162219,0.0067,0.0474,0.1349,0.0006,0.0151,0.0087,-32.4,-30.45,1.575,,adl
11.164375,0.0307,0.0292,0.1428,0.0006,0.0151,0.0087,-32.4,-30.45,1.575,,adl
11.177168,0.0307,0.0292,0.1428,-0.0017,0.0038,0.0011,-32.4,-30.45,1.575,,adl
11.187995,0.0307,0.0292,0.1428,-0.0017,0.0038,0.0011,-32.4,-30.45,1.575,,adl
11.190141,0.0116,0.036,0.1954,-0.0017,0.0038,0.0011,-32.4,-30.45,1.575,,adl
11.201554,0.0116,0.036,0.1954,-0.0017,0.0038,0.0011,-32.4,-30.45,1.575,,adl
11.203827,0.0134,0.1347,0.1396,-0.0017,0.0038,0.0011,-32.4,-30.45,1.575,,adl
11.205312,0.0134,0.1347,0.1396,-0.0017,0.0038,0.0011,-32.775,-29.85,1.875,,adl
11.221445,0.0134,0.1347,0.1396,-0.0017,0.0038,0.0011,-32.775,-29.85,1.875,,adl
11.22312,-0.0126,0.1981,0.0211,-0.0017,0.0038,0.0011,-32.775,-29.85,1.875,,adl
11.240823,-0.0126,0.1981,0.0211,-0.0017,0.0038,0.0011,-32.775,-29.85,1.875,,adl
11.242981,-0.0872,0.058,0.2089,-0.0017,0.0038,0.0011,-32.775,-29.85,1.875,,adl
11.245763,-0.0872,0.058,0.2089,-0.0008,0.0131,0.0174,-32.775,-29.85,1.875,,adl
11.260357,-0.0872,0.058,0.2089,-0.0008,0.0131,0.0174,-32.775,-29.85,1.875,,adl
11.263046,-0.091,-0.0905,0.177,-0.0008,0.0131,0.0174,-32.775,-29.85,1.875,,adl
11.273365,-0.091,-0.0905,0.177,-0.0008,0.0131,0.0174,-33.075,-30.075,1.725,,adl
11.275981,-0.091,-0.0905,0.177,-0.0008,0.0131,0.0174,-33.075,-30.075,1.725,,adl
11.279076,0.0522,-0.0904,0.2027,-0.0008,0.0131,0.0174,-33.075,-30.075,1.725,,adl
11.299917,0.0522,-0.0904,0.2027,-0.0008,0.0131,0.0174,-33.075,-30.075,1.725,,adl
11.302556,0.1785,-0.0175,0.2175,-0.0008,0.0131,0.0174,-33.075,-30.075,1.725,,adl
11.318916,0.1785,-0.0175,0.2175,-0.0052,-0.0035,0.0052,-33.075,-30.075,1.725,,adl
11.323894,0.1785,-0.0175,0.2175,-0.0052,-0.0035,0.0052,-33.075,-30.075,1.725,,adl
11.326046,0.0441,0.0888,0.2009,-0.0052,-0.0035,0.0052,-33.075,-30.075,1.725,,adl
11.343252,0.0441,0.0888,0.2009,-0.0052,-0.0035,0.0052,-33.075,-30.075,1.725,,adl
11.345537,0.0396,0.0905,0.1505,-0.0052,-0.0035,0.0052,-33.075,-30.075,1.725,,adl
11.346723,0.0396,0.0905,0.1505,-0.0052,-0.0035,0.0052,-31.875,-30.825,1.35,,adl
11.362728,0.0396,0.0905,0.1505,-0.0052,-0.0035,0.0052,-31.875,-30.825,1.35,,adl
11.365489,0.0213,0.0437,0.201,-0.0052,-0.0035,0.0052,-31.875,-30.825,1.35,,adl
11.38587,0.0213,0.0437,0.201,-0.0052,-0.0035,0.0052,-31.875,-30.825,1.35,,adl
11.389348,-0.0091,-0.0122,0.1703,-0.0052,-0.0035,0.0052,-31.875,-30.825,1.35,,adl
11.392098,-0.0091,-0.0122,0.1703,0.0069,0.0148,0.0295,-31.875,-30.825,1.35,,adl
11.403645,-0.0091,-0.0122,0.1703,0.0069,0.0148,0.0295,-31.875,-30.825,1.35,,adl
11.406109,0.0452,-0.0224,0.1436,0.0069,0.0148,0.0295,-31.875,-30.825,1.35,,adl
11.419316,0.0452,-0.0224,0.1436,0.0069,0.0148,0.0295,-32.55,-30.225,1.575,,adl
11.422195,0.0452,-0.0224,0.1436,0.0069,0.0148,0.0295,-32.55,-30.225,1.575,,adl
11.42367,0.0745,-0.0043,0.2218,0.0069,0.0148,0.0295,-32.55,-30.225,1.575,,adl
11.441261,0.0745,-0.0043,0.2218,0.0069,0.0148,0.0295,-32.55,-30.225,1.575,,adl
11.443633,-0.0456,0.0239,0.2309,0.0069,0.0148,0.0295,-32.55,-30.225,1.575,,adl
11.455952,-0.0456,0.0239,0.2309,0.0128,-0.0057,-0.0047,-32.55,-30.225,1.575,,adl
11.461148,-0.0456,0.0239,0.2309,0.0128,-0.0057,-0.0047,-32.55,-30.225,1.575,,adl
11.462988,-0.0598,0.0671,0.1254,0.0128,-0.0057,-0.0047,-32.55,-30.225,1.575,,adl
11.476839,-0.0598,0.0671,0.1254,0.0128,-0.0057,-0.0047,-32.55,-30.225,1.575,,adl
11.478513,-0.0463,0.1033,0.112,0.0128,-0.0057,-0.0047,-32.55,-30.225,1.575,,adl
11.4843,-0.0463,0.1033,0.112,0.0128,-0.0057,-0.0047,-32.625,-30.075,1.725,,adl
11.503829,-0.0463,0.1033,0.112,0.0128,-0.0057,-0.0047,-32.625,-30.075,1.725,,adl
11.504997,0.2485,-0.0514,1.3421,0.0128,-0.0057,-0.0047,-32.625,-30.075,1.725,,adl
11.519739,0.2485,-0.0514,1.3421,0.0128,-0.0057,-0.0047,-32.625,-30.075,1.725,,adl
11.520799,0.1676,0.0569,1.4336,0.0128,-0.0057,-0.0047,-32.625,-30.075,1.725,,adl
11.524001,0.1676,0.0569,1.4336,0.2721,0.1634,-0.0848,-32.625,-30.075,1.725,,adl
11.539558,0.1676,0.0569,1.4336,0.2721,0.1634,-0.0848,-32.625,-30.075,1.725,,adl
11.540874,-0.2043,0.0038,-1.0203,0.2721,0.1634,-0.0848,-32.625,-30.075,1.725,,adl
11.553448,-0.2043,0.0038,-1.0203,0.2721,0.1634,-0.0848,-32.1,-30.45,1.35,,adl
11.563934,-0.2043,0.0038,-1.0203,0.2721,0.1634,-0.0848,-32.1,-30.45,1.35,,adl
11.565412,-0.4654,0.1165,-2.6204,0.2721,0.1634,-0.0848,-32.1,-30.45,1.35,,adl
11.58327,-0.4654,0.1165,-2.6204,0.2721,0.1634,-0.0848,-32.1,-30.45,1.35,,adl
11.585159,-0.4738,0.3308,-1.1008,0.2721,0.1634,-0.0848,-32.1,-30.45,1.35,,adl
11.608655,-0.4738,0.3308,-1.1008,-0.3537,-0.2373,0.0272,-32.1,-30.45,1.35,,adl
11.610742,-0.4738,0.3308,-1.1008,-0.3537,-0.2373,0.0272,-32.1,-30.45,1.35,,adl
11.612161,0.577,0.0823,3.9748,-0.3537,-0.2373,0.0272,-32.1,-30.45,1.35,,adl
