time,ax,ay,az,wx,wy,wz,Bx,By,Bz,Unnamed: 10,label
0.02904,0.0,0.0,0.0,0.0,0.0,0.0,0.0,0.0,0.0,,adl
0.054701,0.0,0.0,0.0,0.0,0.0,0.0,-33.375,-31.125,2.475,,adl
0.075031,0.0,0.0,0.0,0.0,0.0,0.0,-33.375,-31.125,2.475,,adl
0.076609,0.1268,-0.3001,1.0603,0.0,0.0,0.0,-33.375,-31.125,2.475,,adl
0.094925,0.1268,-0.3001,1.0603,0.0,0.0,0.0,-33.375,-31.125,2.475,,adl
0.096528,0.0638,-0.176,0.0956,0.0,0.0,0.0,-33.375,-31.125,2.475,,adl
0.100214,0.0638,-0.176,0.0956,0.0741,0.0547,-0.0046,-33.375,-31.125,2.475,,adl
0.118548,0.0638,-0.176,0.0956,0.0741,0.0547,-0.0046,-33.375,-31.125,2.475,,adl
0.120124,-0.0405,-0.0404,-0.435,0.0741,0.0547,-0.0046,-33.375,-31.125,2.475,,adl
0.125956,-0.0405,-0.0404,-0.435,0.0741,0.0547,-0.0046,-31.875,-30.75,1.875,,adl
0.135482,-0.0405,-0.0404,-0.435,0.0741,0.0547,-0.0046,-31.875,-30.75,1.875,,adl
0.137366,-0.022,-0.0418,0.0575,0.0741,0.0547,-0.0046,-31.875,-30.75,1.875,,adl
0.158678,-0.022,-0.0418,0.0575,0.0741,0.0547,-0.0046,-31.875,-30.75,1.875,,adl
0.160666,0.1107,-0.1412,0.5554,0.0741,0.0547,-0.0046,-31.875,-30.75,1.875,,adl
0.172715,0.1107,-0.1412,0.5554,-0.064,-0.0348,0.0023,-31.875,-30.75,1.875,,adl
0.174374,0.1107,-0.1412,0.5554,-0.064,-0.0348,0.0023,-31.875,-30.75,1.875,,adl
0.175502,0.1522,-0.1383,0.4976,-0.064,-0.0348,0.0023,-31.875,-30.75,1.875,,adl
0.192735,0.1522,-0.1383,0.4976,-0.064,-0.0348,0.0023,-31.875,-30.75,1.875,,adl
0.19535,0.0677,-0.0713,0.1458,-0.064,-0.0348,0.0023,-31.875,-30.75,1.875,,adl
0.197561,0.0677,-0.0713,0.1458,-0.064,-0.0348,0.0023,-31.8,-30.975,2.55,,adl
0.212171,0.0677,-0.0713,0.1458,-0.064,-0.0348,0.0023,-31.8,-30.975,2.55,,adl
0.214474,0.0295,-0.0354,-0.0374,-0.064,-0.0348,0.0023,-31.8,-30.975,2.55,,adl
0.227721,0.0295,-0.0354,-0.0374,-0.064,-0.0348,0.0023,-31.8,-30.975,2.55,,adl
0.229164,0.067,-0.0706,0.1311,-0.064,-0.0348,0.0023,-31.8,-30.975,2.55,,adl
0.240201,0.067,-0.0706,0.1311,-0.0174,-0.0174,-0.0014,-31.8,-30.975,2.55,,adl
0.253409,0.067,-0.0706,0.1311,-0.0174,-0.0174,-0.0014,-31.8,-30.975,2.55,,adl
0.254738,0.0477,-0.1341,0.3749,-0.0174,-0.0174,-0.0014,-31.8,-30.975,2.55,,adl
0.267762,0.0477,-0.1341,0.3749,-0.0174,-0.0174,-0.0014,-32.175,-31.05,1.65,,adl
0.27236,0.0477,-0.1341,0.3749,-0.0174,-0.0174,-0.0014,-32.175,-31.05,1.65,,adl
0.273785,0.1176,-0.1419,0.3265,-0.0174,-0.0174,-0.0014,-32.175,-31.05,1.65,,adl
0.290824,0.1176,-0.1419,0.3265,-0.0174,-0.0174,-0.0014,-32.175,-31.05,1.65,,adl
0.294875,0.1549,-0.1164,0.2436,-0.0174,-0.0174,-0.0014,-32.175,-31.05,1.65,,adl
0.305869,0.1549,-0.1164,0.2436,-0.017,-0.0133,-0.0003,-32.175,-31.05,1.65,,adl
0.311383,0.1549,-0.1164,0.2436,-0.017,-0.0133,-0.0003,-32.175,-31.05,1.65,,adl
0.312718,0.0768,-0.1173,-0.0151,-0.017,-0.0133,-0.0003,-32.175,-31.05,1.65,,adl
0.336067,0.0768,-0.1173,-0.0151,-0.017,-0.0133,-0.0003,-32.175,-31.05,1.65,,adl
0.337584,-0.0039,-0.0938,0.3341,-0.017,-0.0133,-0.0003,-32.175,-31.05,1.65,,adl
0.339046,-0.0039,-0.0938,0.3341,-0.017,-0.0133,-0.0003,-31.725,-30.45,2.475,,adl
0.35568,-0.0039,-0.0938,0.3341,-0.017,-0.0133,-0.0003,-31.725,-30.45,2.475,,adl
0.357708,0.0173,-0.0814,0.2671,-0.017,-0.0133,-0.0003,-31.725,-30.45,2.475,,adl
0.374031,0.0173,-0.0814,0.2671,-0.017,-0.0133,-0.0003,-31.725,-30.45,2.475,,adl
0.37737,0.087,-0.0714,0.1403,-0.017,-0.0133,-0.0003,-31.725,-30.45,2.475,,adl
0.379424,0.087,-0.0714,0.1403,-0.0173,0.0163,-0.0023,-31.725,-30.45,2.475,,adl
0.392838,0.087,-0.0714,0.1403,-0.0173,0.0163,-0.0023,-31.725,-30.45,2.475,,adl
0.395356,0.0011,-0.1156,0.1915,-0.0173,0.0163,-0.0023,-31.725,-30.45,2.475,,adl
0.404236,0.0011,-0.1156,0.1915,-0.0173,0.0163,-0.0023,-31.875,-30.45,1.95,,adl
0.415284,0.0011,-0.1156,0.1915,-0.0173,0.0163,-0.0023,-31.875,-30.45,1.95,,adl
0.41756,0.0221,-0.1264,0.3121,-0.0173,0.0163,-0.0023,-31.875,-30.45,1.95,,adl
0.426722,0.0221,-0.1264,0.3121,-0.0173,0.0163,-0.0023,-31.875,-30.45,1.95,,adl
0.428451,0.0789,-0.159,0.4327,-0.0173,0.0163,-0.0023,-31.875,-30.45,1.95,,adl
0.447245,0.0789,-0.159,0.4327,0.0214,-0.022,-0.0018,-31.875,-30.45,1.95,,adl
0.451362,0.0789,-0.159,0.4327,0.0214,-0.022,-0.0018,-31.875,-30.45,1.95,,adl
0.453183,0.0424,-0.1092,0.2706,0.0214,-0.022,-0.0018,-31.875,-30.45,1.95,,adl
0.471366,0.0424,-0.1092,0.2706,0.0214,-0.022,-0.0018,-31.875,-30.45,1.95,,adl
0.473814,0.0337,-0.033,0.0644,0.0214,-0.022,-0.0018,-31.875,-30.45,1.95,,adl
0.475666,0.0337,-0.033,0.0644,0.0214,-0.022,-0.0018,-31.95,-30.45,2.025,,adl
0.490777,0.0337,-0.033,0.0644,0.0214,-0.022,-0.0018,-31.95,-30.45,2.025,,adl
0.493649,0.0838,0.0078,0.0047,0.0214,-0.022,-0.0018,-31.95,-30.45,2.025,,adl
0.510488,0.0838,0.0078,0.0047,0.0214,-0.022,-0.0018,-31.95,-30.45,2.025,,adl
0.51279,0.052,-0.0163,0.1938,0.0214,-0.022,-0.0018,-31.95,-30.45,2.025,,adl
0.514689,0.052,-0.0163,0.1938,0.0203,-0.0005,0.0067,-31.95,-30.45,2.025,,adl
0.52753,0.052,-0.0163,0.1938,0.0203,-0.0005,0.0067,-31.95,-30.45,2.025,,adl
0.530347,0.01,-0.0966,0.3166,0.0203,-0.0005,0.0067,-31.95,-30.45,2.025,,adl
0.544709,0.01,-0.0966,0.3166,0.0203,-0.0005,0.0067,-32.25,-30.975,2.025,,adl
0.546626,0.01,-0.0966,0.3166,0.0203,-0.0005,0.0067,-32.25,-30.975,2.025,,adl
0.54781,0.0436,-0.1434,0.2303,0.0203,-0.0005,0.0067,-32.25,-30.975,2.025,,adl
0.57086,0.0436,-0.1434,0.2303,0.0203,-0.0005,0.0067,-32.25,-30.975,2.025,,adl
0.573659,0.0661,-0.1398,0.1797,0.0203,-0.0005,0.0067,-32.25,-30.975,2.025,,adl
0.589119,0.0661,-0.1398,0.1797,0.0273,0.0081,0.0052,-32.25,-30.975,2.025,,adl
0.593545,0.0661,-0.1398,0.1797,0.0273,0.0081,0.0052,-32.25,-30.975,2.025,,adl
0.595187,0.041,-0.1784,0.2061,0.0273,0.0081,0.0052,-32.25,-30.975,2.025,,adl
0.614612,0.041,-0.1784,0.2061,0.0273,0.0081,0.0052,-32.25,-30.975,2.025,,adl
0.617065,0.0724,-0.2109,0.3524,0.0273,0.0081,0.0052,-32.25,-30.975,2.025,,adl
0.61895,0.0724,-0.2109,0.3524,0.0273,0.0081,0.0052,-31.875,-30.975,2.25,,adl
0.633518,0.0724,-0.2109,0.3524,0.0273,0.0081,0.0052,-31.875,-30.975,2.25,,adl
0.634916,0.0988,-0.1397,0.1623,0.0273,0.0081,0.0052,-31.875,-30.975,2.25,,adl
0.653594,0.0988,-0.1397,0.1623,0.0273,0.0081,0.0052,-31.875,-30.975,2.25,,adl
0.65516,0.0737,-0.0804,0.1228,0.0273,0.0081,0.0052,-31.875,-30.975,2.25,,adl
0.658016,0.0737,-0.0804,0.1228,0.0354,0.0211,-0.0005,-31.875,-30.975,2.25,,adl
0.672843,0.0737,-0.0804,0.1228,0.0354,0.0211,-0.0005,-31.875,-30.975,2.25,,adl
0.674479,0.0548,0.0366,0.1615,0.0354,0.0211,-0.0005,-31.875,-30.975,2.25,,adl
0.685391,0.0548,0.0366,0.1615,0.0354,0.0211,-0.0005,-31.65,-31.05,2.25,,adl
0.691357,0.0548,0.0366,0.1615,0.0354,0.0211,-0.0005,-31.65,-31.05,2.25,,adl
0.69369,0.0916,0.0051,0.2819,0.0354,0.0211,-0.0005,-31.65,-31.05,2.25,,adl
0.710687,0.0916,0.0051,0.2819,0.0354,0.0211,-0.0005,-31.65,-31.05,2.25,,adl
0.712791,-0.0466,-0.2398,0.2766,0.0354,0.0211,-0.0005,-31.65,-31.05,2.25,,adl
0.725464,-0.0466,-0.2398,0.2766,0.0292,0.0202,0.0032,-31.65,-31.05,2.25,,adl
0.728654,-0.0466,-0.2398,0.2766,0.0292,0.0202,0.0032,-31.65,-31.05,2.25,,adl
0.730261,-0.0761,-0.1219,0.2076,0.0292,0.0202,0.0032,-31.65,-31.05,2.25,,adl
0.750367,-0.0761,-0.1219,0.2076,0.0292,0.0202,0.0032,-31.65,-31.05,2.25,,adl
0.753392,0.129,-0.0229,0.0974,0.0292,0.0202,0.0032,-31.65,-31.05,2.25,,adl
0.755253,0.129,-0.0229,0.0974,0.0292,0.0202,0.0032,-32.475,-30.75,2.325,,adl
0.769641,0.129,-0.0229,0.0974,0.0292,0.0202,0.0032,-32.475,-30.75,2.325,,adl
0.772117,0.2194,-0.0814,0.1052,0.0292,0.0202,0.0032,-32.475,-30.75,2.325,,adl
0.790063,0.2194,-0.0814,0.1052,0.0292,0.0202,0.0032,-32.475,-30.75,2.325,,adl
0.791704,0.0674,-0.0539,0.2195,0.0292,0.0202,0.0032,-32.475,-30.75,2.325,,adl
0.79337,0.0674,-0.0539,0.2195,0.0228,0.0133,-0.0047,-32.475,-30.75,2.325,,adl
0.81036,0.0674,-0.0539,0.2195,0.0228,0.0133,-0.0047,-32.475,-30.75,2.325,,adl
0.811953,0.1718,-0.044,0.2344,0.0228,0.0133,-0.0047,-32.475,-30.75,2.325,,adl
0.825338,0.1718,-0.044,0.2344,0.0228,0.0133,-0.0047,-32.175,-31.275,2.55,,adl
0.827122,0.1718,-0.044,0.2344,0.0228,0.0133,-0.0047,-32.175,-31.275,2.55,,adl
0.828393,0.0885,-0.0576,0.2666,0.0228,0.0133,-0.0047,-32.175,-31.275,2.55,,adl
0.84836,0.0885,-0.0576,0.2666,0.0228,0.0133,-0.0047,-32.175,-31.275,2.55,,adl
0.849944,-0.0768,-0.1107,0.2259,0.0228,0.0133,-0.0047,-32.175,-31.275,2.55,,adl
0.875354,-0.0768,-0.1107,0.2259,0.0002,0.0115,-0.0115,-32.175,-31.275,2.55,,adl
0.879774,-0.0768,-0.1107,0.2259,0.0002,0.0115,-0.0115,-32.175,-31.275,2.55,,adl
0.882258,-0.0117,-0.0875,0.1541,0.0002,0.0115,-0.0115,-32.175,-31.275,2.55,,adl
0.894371,-0.0117,-0.0875,0.1541,0.0002,0.0115,-0.0115,-32.175,-31.275,2.55,,adl
0.896582,0.0585,-0.0654,0.2567,0.0002,0.0115,-0.0115,-32.175,-31.275,2.55,,adl
0.898487,0.0585,-0.0654,0.2567,0.0002,0.0115,-0.0115,-31.575,-30.45,1.725,,adl
0.906565,0.0585,-0.0654,0.2567,0.0002,0.0115,-0.0115,-31.575,-30.45,1.725,,adl
0.909342,0.013,-0.1029,0.3182,0.0002,0.0115,-0.0115,-31.575,-30.45,1.725,,adl
0.926904,0.013,-0.1029,0.3182,0.0002,0.0115,-0.0115,-31.575,-30.45,1.725,,adl
0.928388,0.0413,-0.1179,0.3208,0.0002,0.0115,-0.0115,-31.575,-30.45,1.725,,adl
0.934213,0.0413,-0.1179,0.3208,0.0107,-0.0005,0.0011,-31.575,-30.45,1.725,,adl
0.953264,0.0413,-0.1179,0.3208,0.0107,-0.0005,0.0011,-31.575,-30.45,1.725,,adl
0.955471,0.0806,-0.1142,0.206,0.0107,-0.0005,0.0011,-31.575,-30.45,1.725,,adl
0.96554,0.0806,-0.1142,0.206,0.0107,-0.0005,0.0011,-32.475,-30.675,2.25,,adl
0.969735,0.0806,-0.1142,0.206,0.0107,-0.0005,0.0011,-32.475,-30.675,2.25,,adl
0.971034,0.0234,-0.0802,-0.0332,0.0107,-0.0005,0.0011,-32.475,-30.675,2.25,,adl
0.991617,0.0234,-0.0802,-0.0332,0.0107,-0.0005,0.0011,-32.475,-30.675,2.25,,adl
0.993321,-0.0152,0.0053,0.359,0.0107,-0.0005,0.0011,-32.475,-30.675,2.25,,adl
1.004724,-0.0152,0.0053,0.359,0.0086,0.0443,0.0012,-32.475,-30.675,2.25,,adl
1.011409,-0.0152,0.0053,0.359,0.0086,0.0443,0.0012,-32.475,-30.675,2.25,,adl
1.012894,0.038,0.0547,0.0961,0.0086,0.0443,0.0012,-32.475,-30.675,2.25,,adl
1.027571,0.038,0.0547,0.0961,0.0086,0.0443,0.0012,-32.475,-30.675,2.25,,adl
1.031167,0.006,0.0552,0.1034,0.0086,0.0443,0.0012,-32.475,-30.675,2.25,,adl
1.033736,0.006,0.0552,0.1034,0.0086,0.0443,0.0012,-32.775,-30.75,2.25,,adl
1.049179,0.006,0.0552,0.1034,0.0086,0.0443,0.0012,-32.775,-30.75,2.25,,adl
1.051496,-0.0253,-0.0417,0.2387,0.0086,0.0443,0.0012,-32.775,-30.75,2.25,,adl
1.070835,-0.0253,-0.0417,0.2387,0.0086,0.0443,0.0012,-32.775,-30.75,2.25,,adl
1.073586,0.0954,-0.1435,0.4143,0.0086,0.0443,0.0012,-32.775,-30.75,2.25,,adl
1.07532,0.0954,-0.1435,0.4143,0.0075,-0.0176,-0.0023,-32.775,-30.75,2.25,,adl
1.085878,0.0954,-0.1435,0.4143,0.0075,-0.0176,-0.0023,-32.775,-30.75,2.25,,adl
1.088123,0.1293,-0.1909,0.3049,0.0075,-0.0176,-0.0023,-32.775,-30.75,2.25,,adl
1.099089,0.1293,-0.1909,0.3049,0.0075,-0.0176,-0.0023,-32.25,-30.225,2.25,,adl
1.106793,0.1293,-0.1909,0.3049,0.0075,-0.0176,-0.0023,-32.25,-30.225,2.25,,adl
1.1087,0.0899,-0.1275,0.1111,0.0075,-0.0176,-0.0023,-32.25,-30.225,2.25,,adl
1.126426,0.0899,-0.1275,0.1111,0.0075,-0.0176,-0.0023,-32.25,-30.225,2.25,,adl
1.12948,0.0138,-0.0173,0.0868,0.0075,-0.0176,-0.0023,-32.25,-30.225,2.25,,adl
1.141654,0.0138,-0.0173,0.0868,0.0247,-0.0066,0.0012,-32.25,-30.225,2.25,,adl
1.152219,0.0138,-0.0173,0.0868,0.0247,-0.0066,0.0012,-32.25,-30.225,2.25,,adl
1.154111,0.0124,0.0104,0.2214,0.0247,-0.0066,0.0012,-32.25,-30.225,2.25,,adl
1.168822,0.0124,0.0104,0.2214,0.0247,-0.0066,0.0012,-32.25,-30.225,2.25,,adl
1.170814,0.0693,-0.0053,0.2802,0.0247,-0.0066,0.0012,-32.25,-30.225,2.25,,adl
1.172739,0.0693,-0.0053,0.2802,0.0247,-0.0066,0.0012,-31.35,-30.825,2.325,,adl
1.185226,0.0693,-0.0053,0.2802,0.0247,-0.0066,0.0012,-31.35,-30.825,2.325,,adl
1.187462,0.0764,-0.0237,0.2199,0.0247,-0.0066,0.0012,-31.35,-30.825,2.325,,adl
1.210402,0.0764,-0.0237,0.2199,0.0247,-0.0066,0.0012,-31.35,-30.825,2.325,,adl
1.212885,0.0408,-0.0396,0.1268,0.0247,-0.0066,0.0012,-31.35,-30.825,2.325,,adl
1.215567,0.0408,-0.0396,0.1268,0.0186,0.0002,-0.0011,-31.35,-30.825,2.325,,adl
1.226849,0.0408,-0.0396,0.1268,0.0186,0.0002,-0.0011,-31.35,-30.825,2.325,,adl
1.229233,0.0328,-0.0383,0.1571,0.0186,0.0002,-0.0011,-31.35,-30.825,2.325,,adl
1.239328,0.0328,-0.0383,0.1571,0.0186,0.0002,-0.0011,-31.725,-30.975,2.925,,adl
1.248843,0.0328,-0.0383,0.1571,0.0186,0.0002,-0.0011,-31.725,-30.975,2.925,,adl
1.250966,0.0241,-0.0783,0.2729,0.0186,0.0002,-0.0011,-31.725,-30.975,2.925,,adl
1.268924,0.0241,-0.0783,0.2729,0.0186,0.0002,-0.0011,-31.725,-30.975,2.925,,adl
1.271232,0.0548,-0.0385,0.2331,0.0186,0.0002,-0.0011,-31.725,-30.975,2.925,,adl
1.282742,0.0548,-0.0385,0.2331,0.0199,0.0044,-0.0023,-31.725,-30.975,2.925,,adl
1.288416,0.0548,-0.0385,0.2331,0.0199,0.0044,-0.0023,-31.725,-30.975,2.925,,adl
1.290323,0.0232,-0.0245,0.1044,0.0199,0.0044,-0.0023,-31.725,-30.975,2.925,,adl
1.307663,0.0232,-0.0245,0.1044,0.0199,0.0044,-0.0023,-31.725,-30.975,2.925,,adl
1.310356,0.0069,-0.0178,0.0987,0.0199,0.0044,-0.0023,-31.725,-30.975,2.925,,adl
1.312257,0.0069,-0.0178,0.0987,0.0199,0.0044,-0.0023,-31.95,-31.35,2.55,,adl
1.327112,0.0069,-0.0178,0.0987,0.0199,0.0044,-0.0023,-31.95,-31.35,2.55,,adl
1.330343,0.0205,-0.0442,0.2361,0.0199,0.0044,-0.0023,-31.95,-31.35,2.55,,adl
1.347272,0.0205,-0.0442,0.2361,0.0199,0.0044,-0.0023,-31.95,-31.35,2.55,,adl
1.350245,0.0248,-0.0875,0.3065,0.0199,0.0044,-0.0023,-31.95,-31.35,2.55,,adl
1.351957,0.0248,-0.0875,0.3065,0.0003,0.0101,0.004,-31.95,-31.35,2.55,,adl
1.370207,0.0248,-0.0875,0.3065,0.0003,0.0101,0.004,-31.95,-31.35,2.55,,adl
1.372493,0.0412,-0.0893,0.2441,0.0003,0.0101,0.004,-31.95,-31.35,2.55,,adl
1.376762,0.0412,-0.0893,0.2441,0.0003,0.0101,0.004,-31.95,-30.75,2.55,,adl
1.385522,0.0412,-0.0893,0.2441,0.0003,0.0101,0.004,-31.95,-30.75,2.55,,adl
1.387787,0.0027,-0.0516,0.1559,0.0003,0.0101,0.004,-31.95,-30.75,2.55,,adl
1.405826,0.0027,-0.0516,0.1559,0.0003,0.0101,0.004,-31.95,-30.75,2.55,,adl
1.407949,0.017,-0.0136,0.1804,0.0003,0.0101,0.004,-31.95,-30.75,2.55,,adl
1.420255,0.017,-0.0136,0.1804,0.0165,0.014,0.0005,-31.95,-30.75,2.55,,adl
1.425253,0.017,-0.0136,0.1804,0.0165,0.014,0.0005,-31.95,-30.75,2.55,,adl
1.427239,0.0577,-0.0086,0.1626,0.0165,0.014,0.0005,-31.95,-30.75,2.55,,adl
1.445755,0.0577,-0.0086,0.1626,0.0165,0.014,0.0005,-31.95,-30.75,2.55,,adl
1.447274,0.0272,-0.0403,0.2008,0.0165,0.014,0.0005,-31.95,-30.75,2.55,,adl
1.44878,0.0272,-0.0403,0.2008,0.0165,0.014,0.0005,-32.325,-30.75,2.85,,adl
1.465457,0.0272,-0.0403,0.2008,0.0165,0.014,0.0005,-32.325,-30.75,2.85,,adl
1.4669,0.0264,-0.1059,0.2261,0.0165,0.014,0.0005,-32.325,-30.75,2.85,,adl
1.487228,0.0264,-0.1059,0.2261,0.0165,0.014,0.0005,-32.325,-30.75,2.85,,adl
1.488983,0.1221,-0.0747,0.1701,0.0165,0.014,0.0005,-32.325,-30.75,2.85,,adl
1.490312,0.1221,-0.0747,0.1701,-0.0006,0.002,-0.0058,-32.325,-30.75,2.85,,adl
1.509618,0.1221,-0.0747,0.1701,-0.0006,0.002,-0.0058,-32.325,-30.75,2.85,,adl
1.512655,-0.117,0.0137,0.2911,-0.0006,0.002,-0.0058,-32.325,-30.75,2.85,,adl
1.521295,-0.117,0.0137,0.2911,-0.0006,0.002,-0.0058,-32.475,-29.85,2.25,,adl
1.527505,-0.117,0.0137,0.2911,-0.0006,0.002,-0.0058,-32.475,-29.85,2.25,,adl
1.52938,0.0029,0.1633,0.2214,-0.0006,0.002,-0.0058,-32.475,-29.85,2.25,,adl
1.547335,0.0029,0.1633,0.2214,-0.0006,0.002,-0.0058,-32.475,-29.85,2.25,,adl
1.550148,0.157,0.05,0.0769,-0.0006,0.002,-0.0058,-32.475,-29.85,2.25,,adl
1.562248,0.157,0.05,0.0769,-0.0034,-0.0192,0.0133,-32.475,-29.85,2.25,,adl
1.57167,0.157,0.05,0.0769,-0.0034,-0.0192,0.0133,-32.475,-29.85,2.25,,adl
1.573594,0.0649,-0.0547,0.0467,-0.0034,-0.0192,0.0133,-32.475,-29.85,2.25,,adl
1.586223,0.0649,-0.0547,0.0467,-0.0034,-0.0192,0.0133,-32.475,-29.85,2.25,,adl
1.588533,0.0096,-0.0398,0.1433,-0.0034,-0.0192,0.0133,-32.475,-29.85,2.25,,adl
1.590358,0.0096,-0.0398,0.1433,-0.0034,-0.0192,0.0133,-32.4,-31.125,2.325,,adl
1.606464,0.0096,-0.0398,0.1433,-0.0034,-0.0192,0.0133,-32.4,-31.125,2.325,,adl
1.607988,0.0887,-0.0316,0.2781,-0.0034,-0.0192,0.0133,-32.4,-31.125,2.325,,adl
1.626102,0.0887,-0.0316,0.2781,-0.0034,-0.0192,0.0133,-32.4,-31.125,2.325,,adl
1.627439,0.0698,-0.0982,0.2545,-0.0034,-0.0192,0.0133,-32.4,-31.125,2.325,,adl
1.63284,0.0698,-0.0982,0.2545,-0.0328,-0.018,0.0055,-32.4,-31.125,2.325,,adl
1.645962,0.0698,-0.0982,0.2545,-0.0328,-0.018,0.0055,-32.4,-31.125,2.325,,adl
1.647647,-0.0254,-0.0975,0.2056,-0.0328,-0.018,0.0055,-32.4,-31.125,2.325,,adl
1.655011,-0.0254,-0.0975,0.2056,-0.0328,-0.018,0.0055,-31.95,-30.375,2.55,,adl
1.666616,-0.0254,-0.0975,0.2056,-0.0328,-0.018,0.0055,-31.95,-30.375,2.55,,adl
1.668354,0.0221,-0.0099,0.161,-0.0328,-0.018,0.0055,-31.95,-30.375,2.55,,adl
1.685549,0.0221,-0.0099,0.161,-0.0328,-0.018,0.0055,-31.95,-30.375,2.55,,adl
1.688364,0.0448,0.0759,0.1618,-0.0328,-0.018,0.0055,-31.95,-30.375,2.55,,adl
1.704775,0.0448,0.0759,0.1618,-0.0202,-0.0153,0.0024,-31.95,-30.375,2.55,,adl
1.707589,0.0448,0.0759,0.1618,-0.0202,-0.0153,0.0024,-31.95,-30.375,2.55,,adl
1.70968,0.0079,0.0816,0.1806,-0.0202,-0.0153,0.0024,-31.95,-30.375,2.55,,adl
1.723397,0.0079,0.0816,0.1806,-0.0202,-0.0153,0.0024,-31.95,-30.375,2.55,,adl
1.725934,-0.0071,0.0593,0.1945,-0.0202,-0.0153,0.0024,-31.95,-30.375,2.55,,adl
1.727959,-0.0071,0.0593,0.1945,-0.0202,-0.0153,0.0024,-32.25,-30.675,2.775,,adl
1.743212,-0.0071,0.0593,0.1945,-0.0202,-0.0153,0.0024,-32.25,-30.675,2.775,,adl
1.746819,0.0486,-0.0199,0.1192,-0.0202,-0.0153,0.0024,-32.25,-30.675,2.775,,adl
1.762087,0.0486,-0.0199,0.1192,-0.0202,-0.0153,0.0024,-32.25,-30.675,2.775,,adl
1.764442,0.0755,-0.0954,0.1216,-0.0202,-0.0153,0.0024,-32.25,-30.675,2.775,,adl
1.768494,0.0755,-0.0954,0.1216,-0.0348,-0.0186,0.0064,-32.25,-30.675,2.775,,adl
1.776894,0.0755,-0.0954,0.1216,-0.0348,-0.0186,0.0064,-32.25,-30.675,2.775,,adl
1.778377,0.0666,-0.1037,0.2815,-0.0348,-0.0186,0.0064,-32.25,-30.675,2.775,,adl
1.794259,0.0666,-0.1037,0.2815,-0.0348,-0.0186,0.0064,-32.7,-30.75,2.775,,adl
1.801493,0.0666,-0.1037,0.2815,-0.0348,-0.0186,0.0064,-32.7,-30.75,2.775,,adl
1.804591,0.0602,-0.0866,0.2815,-0.0348,-0.0186,0.0064,-32.7,-30.75,2.775,,adl
1.821403,0.0602,-0.0866,0.2815,-0.0348,-0.0186,0.0064,-32.7,-30.75,2.775,,adl
1.823499,0.0145,-0.0362,0.2044,-0.0348,-0.0186,0.0064,-32.7,-30.75,2.775,,adl
1.840865,0.0145,-0.0362,0.2044,-0.0128,-0.0084,-0.0076,-32.7,-30.75,2.775,,adl
1.84535,0.0145,-0.0362,0.2044,-0.0128,-0.0084,-0.0076,-32.7,-30.75,2.775,,adl
1.847211,-0.0805,0.0565,-0.0368,-0.0128,-0.0084,-0.0076,-32.7,-30.75,2.775,,adl
1.864808,-0.0805,0.0565,-0.0368,-0.0128,-0.0084,-0.0076,-32.7,-30.75,2.775,,adl
1.867779,-0.0315,0.02,0.1938,-0.0128,-0.0084,-0.0076,-32.7,-30.75,2.775,,adl
1.869577,-0.0315,0.02,0.1938,-0.0128,-0.0084,-0.0076,-32.1,-30.75,3.075,,adl
1.886039,-0.0315,0.02,0.1938,-0.0128,-0.0084,-0.0076,-32.1,-30.75,3.075,,adl
1.888698,-0.1287,-0.0901,0.1928,-0.0128,-0.0084,-0.0076,-32.1,-30.75,3.075,,adl
1.904034,-0.1287,-0.0901,0.1928,-0.0128,-0.0084,-0.0076,-32.1,-30.75,3.075,,adl
1.906387,0.0093,0.078,0.1022,-0.0128,-0.0084,-0.0076,-32.1,-30.75,3.075,,adl
1.908643,0.0093,0.078,0.1022,-0.031,-0.0023,0.0047,-32.1,-30.75,3.075,,adl
1.923667,0.0093,0.078,0.1022,-0.031,-0.0023,0.0047,-32.1,-30.75,3.075,,adl
1.925749,0.0923,0.0603,0.2389,-0.031,-0.0023,0.0047,-32.1,-30.75,3.075,,adl
1.934244,0.0923,0.0603,0.2389,-0.031,-0.0023,0.0047,-32.325,-30.675,2.475,,adl
1.942739,0.0923,0.0603,0.2389,-0.031,-0.0023,0.0047,-32.325,-30.675,2.475,,adl
1.944266,0.1359,-0.0855,0.3145,-0.031,-0.0023,0.0047,-32.325,-30.675,2.475,,adl
1.96358,0.1359,-0.0855,0.3145,-0.031,-0.0023,0.0047,-32.325,-30.675,2.475,,adl
1.966065,0.1949,-0.1845,0.243,-0.031,-0.0023,0.0047,-32.325,-30.675,2.475,,adl
1.977392,0.1949,-0.1845,0.243,0.0034,-0.0394,-0.0238,-32.325,-30.675,2.475,,adl
1.984333,0.1949,-0.1845,0.243,0.0034,-0.0394,-0.0238,-32.325,-30.675,2.475,,adl
1.987425,0.0581,-0.023,0.0989,0.0034,-0.0394,-0.0238,-32.325,-30.675,2.475,,adl
2.002467,0.0581,-0.023,0.0989,0.0034,-0.0394,-0.0238,-32.325,-30.675,2.475,,adl
2.00616,-0.0624,0.1717,0.024,0.0034,-0.0394,-0.0238,-32.325,-30.675,2.475,,adl
2.008321,-0.0624,0.1717,0.024,0.0034,-0.0394,-0.0238,-32.25,-30.75,2.55,,adl
2.02053,-0.0624,0.1717,0.024,0.0034,-0.0394,-0.0238,-32.25,-30.75,2.55,,adl
2.02295,-0.054,0.1902,0.0757,0.0034,-0.0394,-0.0238,-32.25,-30.75,2.55,,adl
2.041067,-0.054,0.1902,0.0757,0.0034,-0.0394,-0.0238,-32.25,-30.75,2.55,,adl
2.043934,0.0542,0.1132,0.2119,0.0034,-0.0394,-0.0238,-32.25,-30.75,2.55,,adl
2.04625,0.0542,0.1132,0.2119,-0.0347,-0.0247,-0.0005,-32.25,-30.75,2.55,,adl
2.060877,0.0542,0.1132,0.2119,-0.0347,-0.0247,-0.0005,-32.25,-30.75,2.55,,adl
2.063099,0.0613,0.0329,0.3209,-0.0347,-0.0247,-0.0005,-32.25,-30.75,2.55,,adl
2.074952,0.0613,0.0329,0.3209,-0.0347,-0.0247,-0.0005,-32.25,-31.275,2.55,,adl
2.077417,0.0613,0.0329,0.3209,-0.0347,-0.0247,-0.0005,-32.25,-31.275,2.55,,adl
2.079132,0.024,-0.0559,0.1766,-0.0347,-0.0247,-0.0005,-32.25,-31.275,2.55,,adl
2.105116,0.024,-0.0559,0.1766,-0.0347,-0.0247,-0.0005,-32.25,-31.275,2.55,,adl
2.107412,-0.0208,-0.0557,0.0948,-0.0347,-0.0247,-0.0005,-32.25,-31.275,2.55,,adl
2.119502,-0.0208,-0.0557,0.0948,-0.0221,-0.0177,-0.0049,-32.25,-31.275,2.55,,adl
2.124484,-0.0208,-0.0557,0.0948,-0.0221,-0.0177,-0.0049,-32.25,-31.275,2.55,,adl
2.126389,-0.0003,-0.0307,0.1252,-0.0221,-0.0177,-0.0049,-32.25,-31.275,2.55,,adl
2.144007,-0.0003,-0.0307,0.1252,-0.0221,-0.0177,-0.0049,-32.25,-31.275,2.55,,adl
2.146527,-0.0186,-0.008,0.3862,-0.0221,-0.0177,-0.0049,-32.25,-31.275,2.55,,adl
2.148406,-0.0186,-0.008,0.3862,-0.0221,-0.0177,-0.0049,-32.25,-30.075,2.25,,adl
2.163832,-0.0186,-0.008,0.3862,-0.0221,-0.0177,-0.0049,-32.25,-30.075,2.25,,adl
2.166676,-0.0623,0.0164,0.2384,-0.0221,-0.0177,-0.0049,-32.25,-30.075,2.25,,adl
2.187324,-0.0623,0.0164,0.2384,-0.0221,-0.0177,-0.0049,-32.25,-30.075,2.25,,adl
2.190153,-0.0513,-0.0021,0.0763,-0.0221,-0.0177,-0.0049,-32.25,-30.075,2.25,,adl
2.191968,-0.0513,-0.0021,0.0763,0.0072,0.0089,-0.0009,-32.25,-30.075,2.25,,adl
2.202565,-0.0513,-0.0021,0.0763,0.0072,0.0089,-0.0009,-32.25,-30.075,2.25,,adl
2.205559,-0.0341,0.0044,0.0067,0.0072,0.0089,-0.0009,-32.25,-30.075,2.25,,adl
2.218203,-0.0341,0.0044,0.0067,0.0072,0.0089,-0.0009,-32.1,-30.525,2.475,,adl
2.221842,-0.0341,0.0044,0.0067,0.0072,0.0089,-0.0009,-32.1,-30.525,2.475,,adl
2.223113,0.038,0.0144,0.2047,0.0072,0.0089,-0.0009,-32.1,-30.525,2.475,,adl
2.241819,0.038,0.0144,0.2047,0.0072,0.0089,-0.0009,-32.1,-30.525,2.475,,adl
2.243819,0.0407,0.0002,0.3014,0.0072,0.0089,-0.0009,-32.1,-30.525,2.475,,adl
2.256652,0.0407,0.0002,0.3014,0.0102,0.0069,0.0012,-32.1,-30.525,2.475,,adl
2.260995,0.0407,0.0002,0.3014,0.0102,0.0069,0.0012,-32.1,-30.525,2.475,,adl
2.262627,0.0172,-0.0072,0.1255,0.0102,0.0069,0.0012,-32.1,-30.525,2.475,,adl
2.276798,0.0172,-0.0072,0.1255,0.0102,0.0069,0.0012,-32.1,-30.525,2.475,,adl
2.278856,0.0074,0.02,0.041,0.0102,0.0069,0.0012,-32.1,-30.525,2.475,,adl
2.286475,0.0074,0.02,0.041,0.0102,0.0069,0.0012,-32.1,-30.75,3.15,,adl
2.3008,0.0074,0.02,0.041,0.0102,0.0069,0.0012,-32.1,-30.75,3.15,,adl
2.302587,0.039,0.0636,0.069,0.0102,0.0069,0.0012,-32.1,-30.75,3.15,,adl
2.320004,0.039,0.0636,0.069,0.0102,0.0069,0.0012,-32.1,-30.75,3.15,,adl
2.32207,0.0868,0.0611,0.1382,0.0102,0.0069,0.0012,-32.1,-30.75,3.15,,adl
2.32466,0.0868,0.0611,0.1382,0.0063,0.0053,0.0024,-32.1,-30.75,3.15,,adl
2.345428,0.0868,0.0611,0.1382,0.0063,0.0053,0.0024,-32.1,-30.75,3.15,,adl
2.34695,0.034,0.02,0.1768,0.0063,0.0053,0.0024,-32.1,-30.75,3.15,,adl
2.355848,0.034,0.02,0.1768,0.0063,0.0053,0.0024,-32.1,-30.375,2.25,,adl
2.365903,0.034,0.02,0.1768,0.0063,0.0053,0.0024,-32.1,-30.375,2.25,,adl
2.367309,0.01,0.017,0.1499,0.0063,0.0053,0.0024,-32.1,-30.375,2.25,,adl
2.384474,0.01,0.017,0.1499,0.0063,0.0053,0.0024,-32.1,-30.375,2.25,,adl
2.386033,0.0272,0.0075,0.151,0.0063,0.0053,0.0024,-32.1,-30.375,2.25,,adl
2.400583,0.0272,0.0075,0.151,0.0011,0.0081,0.0009,-32.1,-30.375,2.25,,adl
2.405562,0.0272,0.0075,0.151,0.0011,0.0081,0.0009,-32.1,-30.375,2.25,,adl
2.407307,0.0595,-0.0003,0.1444,0.0011,0.0081,0.0009,-32.1,-30.375,2.25,,adl
2.422597,0.0595,-0.0003,0.1444,0.0011,0.0081,0.0009,-32.1,-30.375,2.25,,adl
2.42477,0.0477,0.005,0.2099,0.0011,0.0081,0.0009,-32.1,-30.375,2.25,,adl
2.426308,0.0477,0.005,0.2099,0.0011,0.0081,0.0009,-31.8,-30.675,2.175,,adl
2.442021,0.0477,0.005,0.2099,0.0011,0.0081,0.0009,-31.8,-30.675,2.175,,adl
2.444002,0.0239,0.0032,0.212,0.0011,0.0081,0.0009,-31.8,-30.675,2.175,,adl
2.461996,0.0239,0.0032,0.212,0.0011,0.0081,0.0009,-31.8,-30.675,2.175,,adl
2.464223,-0.0159,0.0272,0.1509,0.0011,0.0081,0.0009,-31.8,-30.675,2.175,,adl
2.466402,-0.0159,0.0272,0.1509,-0.0038,0.0116,0.0008,-31.8,-30.675,2.175,,adl
2.47669,-0.0159,0.0272,0.1509,-0.0038,0.0116,0.0008,-31.8,-30.675,2.175,,adl
2.478533,-0.0018,0.044,0.1419,-0.0038,0.0116,0.0008,-31.8,-30.675,2.175,,adl
2.49506,-0.0018,0.044,0.1419,-0.0038,0.0116,0.0008,-31.875,-31.125,2.025,,adl
2.500765,-0.0018,0.044,0.1419,-0.0038,0.0116,0.0008,-31.875,-31.125,2.025,,adl
2.502525,0.0112,0.0382,0.1623,-0.0038,0.0116,0.0008,-31.875,-31.125,2.025,,adl
2.520642,0.0112,0.0382,0.1623,-0.0038,0.0116,0.0008,-31.875,-31.125,2.025,,adl
2.522938,0.0143,0.0275,0.161,-0.0038,0.0116,0.0008,-31.875,-31.125,2.025,,adl
2.534648,0.0143,0.0275,0.161,-0.0052,0.0049,-0.0015,-31.875,-31.125,2.025,,adl
2.540433,0.0143,0.0275,0.161,-0.0052,0.0049,-0.0015,-31.875,-31.125,2.025,,adl
2.542163,0.0079,-0.0034,0.14,-0.0052,0.0049,-0.0015,-31.875,-31.125,2.025,,adl
2.559195,0.0079,-0.0034,0.14,-0.0052,0.0049,-0.0015,-31.875,-31.125,2.025,,adl
2.561762,-0.0351,0.0013,0.2267,-0.0052,0.0049,-0.0015,-31.875,-31.125,2.025,,adl
2.57073,-0.0351,0.0013,0.2267,-0.0052,0.0049,-0.0015,-31.5,-31.05,2.25,,adl
2.577101,-0.0351,0.0013,0.2267,-0.0052,0.0049,-0.0015,-31.5,-31.05,2.25,,adl
2.579062,0.006,0.026,0.1835,-0.0052,0.0049,-0.0015,-31.5,-31.05,2.25,,adl
2.598629,0.006,0.026,0.1835,-0.0052,0.0049,-0.0015,-31.5,-31.05,2.25,,adl
2.601025,0.0444,0.0509,0.1935,-0.0052,0.0049,-0.0015,-31.5,-31.05,2.25,,adl
2.603016,0.0444,0.0509,0.1935,0.0047,0.0049,0.0005,-31.5,-31.05,2.25,,adl
2.618366,0.0444,0.0509,0.1935,0.0047,0.0049,0.0005,-31.5,-31.05,2.25,,adl
2.621428,0.0276,0.0267,0.0219,0.0047,0.0049,0.0005,-31.5,-31.05,2.25,,adl
2.634466,0.0276,0.0267,0.0219,0.0047,0.0049,0.0005,-32.175,-31.125,2.175,,adl
2.642429,0.0276,0.0267,0.0219,0.0047,0.0049,0.0005,-32.175,-31.125,2.175,,adl
2.644311,0.0034,0.0501,0.147,0.0047,0.0049,0.0005,-32.175,-31.125,2.175,,adl
2.666018,0.0034,0.0501,0.147,0.0047,0.0049,0.0005,-32.175,-31.125,2.175,,adl
2.669382,0.0053,0.0575,0.1622,0.0047,0.0049,0.0005,-32.175,-31.125,2.175,,adl
2.67707,0.0053,0.0575,0.1622,-0.0057,0.0128,-0.0026,-32.175,-31.125,2.175,,adl
2.678816,0.0053,0.0575,0.1622,-0.0057,0.0128,-0.0026,-32.175,-31.125,2.175,,adl
2.680252,0.0373,0.0576,0.0296,-0.0057,0.0128,-0.0026,-32.175,-31.125,2.175,,adl
2.701716,0.0373,0.0576,0.0296,-0.0057,0.0128,-0.0026,-32.175,-31.125,2.175,,adl
2.703938,0.0031,0.0102,0.1214,-0.0057,0.0128,-0.0026,-32.175,-31.125,2.175,,adl
2.706595,0.0031,0.0102,0.1214,-0.0057,0.0128,-0.0026,-31.65,-30.675,3.075,,adl
2.720691,0.0031,0.0102,0.1214,-0.0057,0.0128,-0.0026,-31.65,-30.675,3.075,,adl
2.722621,0.0129,-0.0161,0.2307,-0.0057,0.0128,-0.0026,-31.65,-30.675,3.075,,adl
2.740752,0.0129,-0.0161,0.2307,-0.0057,0.0128,-0.0026,-31.65,-30.675,3.075,,adl
2.74303,0.0637,-0.0691,0.3683,-0.0057,0.0128,-0.0026,-31.65,-30.675,3.075,,adl
2.74509,0.0637,-0.0691,0.3683,-0.0173,-0.0273,-0.0027,-31.65,-30.675,3.075,,adl
2.760089,0.0637,-0.0691,0.3683,-0.0173,-0.0273,-0.0027,-31.65,-30.675,3.075,,adl
2.763558,0.0382,-0.0429,0.1921,-0.0173,-0.0273,-0.0027,-31.65,-30.675,3.075,,adl
2.774915,0.0382,-0.0429,0.1921,-0.0173,-0.0273,-0.0027,-31.875,-30.45,2.325,,adl
2.777565,0.0382,-0.0429,0.1921,-0.0173,-0.0273,-0.0027,-31.875,-30.45,2.325,,adl
2.77939,-0.0113,0.0351,0.0797,-0.0173,-0.0273,-0.0027,-31.875,-30.45,2.325,,adl
2.798834,-0.0113,0.0351,0.0797,-0.0173,-0.0273,-0.0027,-31.875,-30.45,2.325,,adl
2.801158,-0.0231,0.1081,0.077,-0.0173,-0.0273,-0.0027,-31.875,-30.45,2.325,,adl
2.821184,-0.0231,0.1081,0.077,0.0067,-0.0104,0.0,-31.875,-30.45,2.325,,adl
2.823839,-0.0231,0.1081,0.077,0.0067,-0.0104,0.0,-31.875,-30.45,2.325,,adl
2.825574,0.0126,0.0893,0.1803,0.0067,-0.0104,0.0,-31.875,-30.45,2.325,,adl
2.83814,0.0126,0.0893,0.1803,0.0067,-0.0104,0.0,-31.875,-30.45,2.325,,adl
2.839808,0.0303,0.0329,0.2057,0.0067,-0.0104,0.0,-31.875,-30.45,2.325,,adl
2.844075,0.0303,0.0329,0.2057,0.0067,-0.0104,0.0,-32.175,-31.05,2.325,,adl
2.857544,0.0303,0.0329,0.2057,0.0067,-0.0104,0.0,-32.175,-31.05,2.325,,adl
2.859637,0.0121,0.0287,0.1635,0.0067,-0.0104,0.0,-32.175,-31.05,2.325,,adl
2.877604,0.0121,0.0287,0.1635,0.0067,-0.0104,0.0,-32.175,-31.05,2.325,,adl
2.880425,-0.0152,0.0388,0.1038,0.0067,-0.0104,0.0,-32.175,-31.05,2.325,,adl
2.88298,-0.0152,0.0388,0.1038,0.0064,-0.0031,0.0006,-32.175,-31.05,2.325,,adl
2.89796,-0.0152,0.0388,0.1038,0.0064,-0.0031,0.0006,-32.175,-31.05,2.325,,adl
2.900908,-0.0148,0.032,0.1166,0.0064,-0.0031,0.0006,-32.175,-31.05,2.325,,adl
2.915012,-0.0148,0.032,0.1166,0.0064,-0.0031,0.0006,-32.175,-31.05,2.325,,adl
2.917562,0.0042,-0.0029,0.1878,0.0064,-0.0031,0.0006,-32.175,-31.05,2.325,,adl
2.919208,0.0042,-0.0029,0.1878,0.0064,-0.0031,0.0006,-32.175,-31.65,2.325,,adl
2.935874,0.0042,-0.0029,0.1878,0.0064,-0.0031,0.0006,-32.175,-31.65,2.325,,adl
2.937855,0.022,0.0113,0.2743,0.0064,-0.0031,0.0006,-32.175,-31.65,2.325,,adl
2.95158,0.022,0.0113,0.2743,0.0041,-0.0052,0.0009,-32.175,-31.65,2.325,,adl
2.960437,0.022,0.0113,0.2743,0.0041,-0.0052,0.0009,-32.175,-31.65,2.325,,adl
2.961881,0.0143,0.0047,0.1288,0.0041,-0.0052,0.0009,-32.175,-31.65,2.325,,adl
2.976531,0.0143,0.0047,0.1288,0.0041,-0.0052,0.0009,-32.175,-31.65,2.325,,adl
2.978223,-0.0122,0.0286,0.0357,0.0041,-0.0052,0.0009,-32.175,-31.65,2.325,,adl
2.984663,-0.0122,0.0286,0.0357,0.0041,-0.0052,0.0009,-31.875,-30.75,2.85,,adl
3.000907,-0.0122,0.0286,0.0357,0.0041,-0.0052,0.0009,-31.875,-30.75,2.85,,adl
3.002508,0.0028,0.0278,0.1514,0.0041,-0.0052,0.0009,-31.875,-30.75,2.85,,adl
3.019619,0.0028,0.0278,0.1514,0.0041,-0.0052,0.0009,-31.875,-30.75,2.85,,adl
3.021242,0.0429,0.0029,0.2735,0.0041,-0.0052,0.0009,-31.875,-30.75,2.85,,adl
3.023979,0.0429,0.0029,0.2735,-0.0108,-0.0018,0.0008,-31.875,-30.75,2.85,,adl
3.038701,0.0429,0.0029,0.2735,-0.0108,-0.0018,0.0008,-31.875,-30.75,2.85,,adl
3.041251,0.0217,0.018,0.2246,-0.0108,-0.0018,0.0008,-31.875,-30.75,2.85,,adl
3.050747,0.0217,0.018,0.2246,-0.0108,-0.0018,0.0008,-31.95,-30.75,2.025,,adl
3.058647,0.0217,0.018,0.2246,-0.0108,-0.0018,0.0008,-31.95,-30.75,2.025,,adl
3.060578,-0.0106,0.0545,0.1439,-0.0108,-0.0018,0.0008,-31.95,-30.75,2.025,,adl
3.077085,-0.0106,0.0545,0.1439,-0.0108,-0.0018,0.0008,-31.95,-30.75,2.025,,adl
3.079566,0.0169,0.0777,0.0655,-0.0108,-0.0018,0.0008,-31.95,-30.75,2.025,,adl
3.092458,0.0169,0.0777,0.0655,0.0087,0.0081,0.0021,-31.95,-30.75,2.025,,adl
3.101591,0.0169,0.0777,0.0655,0.0087,0.0081,0.0021,-31.95,-30.75,2.025,,adl
3.103401,0.0394,0.0657,0.1137,0.0087,0.0081,0.0021,-31.95,-30.75,2.025,,adl
3.117148,0.0394,0.0657,0.1137,0.0087,0.0081,0.0021,-31.95,-30.75,2.025,,adl
3.11892,0.0084,0.0512,0.1771,0.0087,0.0081,0.0021,-31.95,-30.75,2.025,,adl
3.120591,0.0084,0.0512,0.1771,0.0087,0.0081,0.0021,-32.175,-30.525,2.55,,adl
3.136355,0.0084,0.0512,0.1771,0.0087,0.0081,0.0021,-32.175,-30.525,2.55,,adl
3.138196,0.0159,0.063,0.1846,0.0087,0.0081,0.0021,-32.175,-30.525,2.55,,adl
3.156872,0.0159,0.063,0.1846,0.0087,0.0081,0.0021,-32.175,-30.525,2.55,,adl
3.1581,0.0264,0.0637,0.1934,0.0087,0.0081,0.0021,-32.175,-30.525,2.55,,adl
3.162234,0.0264,0.0637,0.1934,0.0058,0.0099,0.0061,-32.175,-30.525,2.55,,adl
3.176082,0.0264,0.0637,0.1934,0.0058,0.0099,0.0061,-32.175,-30.525,2.55,,adl
3.177618,0.0663,0.0754,0.1692,0.0058,0.0099,0.0061,-32.175,-30.525,2.55,,adl
3.186423,0.0663,0.0754,0.1692,0.0058,0.0099,0.0061,-31.5,-31.05,2.55,,adl
3.19642,0.0663,0.0754,0.1692,0.0058,0.0099,0.0061,-31.5,-31.05,2.55,,adl
3.197647,0.1379,0.0923,0.2301,0.0058,0.0099,0.0061,-31.5,-31.05,2.55,,adl
3.220329,0.1379,0.0923,0.2301,0.0058,0.0099,0.0061,-31.5,-31.05,2.55,,adl
3.225475,0.0883,0.0186,0.1201,0.0058,0.0099,0.0061,-31.5,-31.05,2.55,,adl
3.235778,0.0883,0.0186,0.1201,0.0151,0.0269,0.0186,-31.5,-31.05,2.55,,adl
3.240748,0.0883,0.0186,0.1201,0.0151,0.0269,0.0186,-31.5,-31.05,2.55,,adl
3.242609,-0.0319,-0.0256,0.0741,0.0151,0.0269,0.0186,-31.5,-31.05,2.55,,adl
3.259215,-0.0319,-0.0256,0.0741,0.0151,0.0269,0.0186,-31.5,-31.05,2.55,,adl
3.263648,-0.1389,0.0178,0.1198,0.0151,0.0269,0.0186,-31.5,-31.05,2.55,,adl
3.266942,-0.1389,0.0178,0.1198,0.0151,0.0269,0.0186,-31.725,-30.45,2.25,,adl
3.284058,-0.1389,0.0178,0.1198,0.0151,0.0269,0.0186,-31.725,-30.45,2.25,,adl
3.285333,-0.0768,0.0706,0.1495,0.0151,0.0269,0.0186,-31.725,-30.45,2.25,,adl
3.298468,-0.0768,0.0706,0.1495,0.0151,0.0269,0.0186,-31.725,-30.45,2.25,,adl
3.299096,0.0346,0.0365,0.2121,0.0151,0.0269,0.0186,-31.725,-30.45,2.25,,adl
3.30303,0.0346,0.0365,0.2121,0.0382,0.0154,0.002,-31.725,-30.45,2.25,,adl
3.31685,0.0346,0.0365,0.2121,0.0382,0.0154,0.002,-31.725,-30.45,2.25,,adl
3.317619,-0.0019,-0.0152,0.1814,0.0382,0.0154,0.002,-31.725,-30.45,2.25,,adl
3.328924,-0.0019,-0.0152,0.1814,0.0382,0.0154,0.002,-31.725,-30.15,1.875,,adl
3.337412,-0.0019,-0.0152,0.1814,0.0382,0.0154,0.002,-31.725,-30.15,1.875,,adl
3.338354,-0.0866,-0.0206,0.1745,0.0382,0.0154,0.002,-31.725,-30.15,1.875,,adl
3.355736,-0.0866,-0.0206,0.1745,0.0382,0.0154,0.002,-31.725,-30.15,1.875,,adl
3.356422,-0.0847,0.0062,0.0765,0.0382,0.0154,0.002,-31.725,-30.15,1.875,,adl
3.370515,-0.0847,0.0062,0.0765,0.084,0.0218,-0.009,-31.725,-30.15,1.875,,adl
3.375356,-0.0847,0.0062,0.0765,0.084,0.0218,-0.009,-31.725,-30.15,1.875,,adl
3.37588,0.0119,0.0705,0.0354,0.084,0.0218,-0.009,-31.725,-30.15,1.875,,adl
3.396516,0.0119,0.0705,0.0354,0.084,0.0218,-0.009,-31.725,-30.15,1.875,,adl
3.397249,0.058,0.0836,0.0058,0.084,0.0218,-0.009,-31.725,-30.15,1.875,,adl
3.397929,0.058,0.0836,0.0058,0.084,0.0218,-0.009,-30.6,-30.075,2.475,,adl
3.409857,0.058,0.0836,0.0058,0.084,0.0218,-0.009,-30.6,-30.075,2.475,,adl
3.410546,0.0064,0.0631,0.088,0.084,0.0218,-0.009,-30.6,-30.075,2.475,,adl
3.434742,0.0064,0.0631,0.088,0.084,0.0218,-0.009,-30.6,-30.075,2.475,,adl
3.435395,-0.0202,0.0813,0.4205,0.084,0.0218,-0.009,-30.6,-30.075,2.475,,adl
3.439221,-0.0202,0.0813,0.4205,0.0551,0.0492,0.002,-30.6,-30.075,2.475,,adl
3.459359,-0.0202,0.0813,0.4205,0.0551,0.0492,0.002,-30.6,-30.075,2.475,,adl
3.460177,0.0867,0.0624,0.1024,0.0551,0.0492,0.002,-30.6,-30.075,2.475,,adl
3.469193,0.0867,0.0624,0.1024,0.0551,0.0492,0.002,-31.05,-30.15,1.95,,adl
3.479139,0.0867,0.0624,0.1024,0.0551,0.0492,0.002,-31.05,-30.15,1.95,,adl
3.479931,0.0964,0.0731,-0.0579,0.0551,0.0492,0.002,-31.05,-30.15,1.95,,adl
3.498561,0.0964,0.0731,-0.0579,0.0551,0.0492,0.002,-31.05,-30.15,1.95,,adl
3.499968,0.1351,0.0614,0.0837,0.0551,0.0492,0.002,-31.05,-30.15,1.95,,adl
3.515076,0.1351,0.0614,0.0837,0.0428,0.0446,0.016,-31.05,-30.15,1.95,,adl
3.518973,0.1351,0.0614,0.0837,0.0428,0.0446,0.016,-31.05,-30.15,1.95,,adl
3.519986,0.1759,-0.0327,0.4088,0.0428,0.0446,0.016,-31.05,-30.15,1.95,,adl
3.542197,0.1759,-0.0327,0.4088,0.0428,0.0446,0.016,-31.05,-30.15,1.95,,adl
3.545792,0.1346,-0.1708,0.4408,0.0428,0.0446,0.016,-31.05,-30.15,1.95,,adl
3.547719,0.1346,-0.1708,0.4408,0.0428,0.0446,0.016,-31.575,-30.45,2.25,,adl
3.557395,0.1346,-0.1708,0.4408,0.0428,0.0446,0.016,-31.575,-30.45,2.25,,adl
3.560078,0.0048,-0.1286,0.2337,0.0428,0.0446,0.016,-31.575,-30.45,2.25,,adl
3.576573,0.0048,-0.1286,0.2337,0.0428,0.0446,0.016,-31.575,-30.45,2.25,,adl
3.579077,-0.0745,0.0006,0.011,0.0428,0.0446,0.016,-31.575,-30.45,2.25,,adl
3.586685,-0.0745,0.0006,0.011,0.0912,0.011,0.0287,-31.575,-30.45,2.25,,adl
3.601491,-0.0745,0.0006,0.011,0.0912,0.011,0.0287,-31.575,-30.45,2.25,,adl
3.603107,-0.0997,0.0576,0.1163,0.0912,0.011,0.0287,-31.575,-30.45,2.25,,adl
3.606329,-0.0997,0.0576,0.1163,0.0912,0.011,0.0287,-31.65,-30.75,2.55,,adl
3.615932,-0.0997,0.0576,0.1163,0.0912,0.011,0.0287,-31.65,-30.75,2.55,,adl
3.617704,-0.1104,0.0398,0.2333,0.0912,0.011,0.0287,-31.65,-30.75,2.55,,adl
3.63524,-0.1104,0.0398,0.2333,0.0912,0.011,0.0287,-31.65,-30.75,2.55,,adl
3.636853,-0.1061,0.0038,0.0781,0.0912,0.011,0.0287,-31.65,-30.75,2.55,,adl
3.649802,-0.1061,0.0038,0.0781,0.0368,-0.0406,-0.0388,-31.65,-30.75,2.55,,adl
3.654466,-0.1061,0.0038,0.0781,0.0368,-0.0406,-0.0388,-31.65,-30.75,2.55,,adl
3.656437,-0.1612,0.0386,0.0256,0.0368,-0.0406,-0.0388,-31.65,-30.75,2.55,,adl
3.674531,-0.1612,0.0386,0.0256,0.0368,-0.0406,-0.0388,-31.65,-30.75,2.55,,adl
3.67639,-0.1453,0.0572,0.1274,0.0368,-0.0406,-0.0388,-31.65,-30.75,2.55,,adl
3.678512,-0.1453,0.0572,0.1274,0.0368,-0.0406,-0.0388,-32.1,-30.75,2.85,,adl
3.693399,-0.1453,0.0572,0.1274,0.0368,-0.0406,-0.0388,-32.1,-30.75,2.85,,adl
3.695592,-0.0551,0.0476,0.1739,0.0368,-0.0406,-0.0388,-32.1,-30.75,2.85,,adl
3.710035,-0.0551,0.0476,0.1739,0.0368,-0.0406,-0.0388,-32.1,-30.75,2.85,,adl
3.71293,0.0284,0.0628,0.287,0.0368,-0.0406,-0.0388,-32.1,-30.75,2.85,,adl
3.719201,0.0284,0.0628,0.287,-0.0257,-0.0195,-0.0237,-32.1,-30.75,2.85,,adl
3.73294,0.0284,0.0628,0.287,-0.0257,-0.0195,-0.0237,-32.1,-30.75,2.85,,adl
3.734945,0.0614,0.0344,0.1637,-0.0257,-0.0195,-0.0237,-32.1,-30.75,2.85,,adl
3.744883,0.0614,0.0344,0.1637,-0.0257,-0.0195,-0.0237,-33.075,-30.375,2.85,,adl
3.752415,0.0614,0.0344,0.1637,-0.0257,-0.0195,-0.0237,-33.075,-30.375,2.85,,adl
3.754342,0.0489,-0.0067,0.1167,-0.0257,-0.0195,-0.0237,-33.075,-30.375,2.85,,adl
3.772776,0.0489,-0.0067,0.1167,-0.0257,-0.0195,-0.0237,-33.075,-30.375,2.85,,adl
3.774509,0.0822,0.004,0.1052,-0.0257,-0.0195,-0.0237,-33.075,-30.375,2.85,,adl
3.786373,0.0822,0.004,0.1052,-0.0765,0.0241,0.0156,-33.075,-30.375,2.85,,adl
3.791472,0.0822,0.004,0.1052,-0.0765,0.0241,0.0156,-33.075,-30.375,2.85,,adl
3.792863,0.158,0.0157,0.3457,-0.0765,0.0241,0.0156,-33.075,-30.375,2.85,,adl
3.81036,0.158,0.0157,0.3457,-0.0765,0.0241,0.0156,-33.075,-30.375,2.85,,adl
3.814868,0.2656,0.0582,0.5249,-0.0765,0.0241,0.0156,-33.075,-30.375,2.85,,adl
3.824349,0.2656,0.0582,0.5249,-0.0765,0.0241,0.0156,-32.625,-30.225,2.55,,adl
3.835994,0.2656,0.0582,0.5249,-0.0765,0.0241,0.0156,-32.625,-30.225,2.55,,adl
3.837809,0.1983,0.033,0.2177,-0.0765,0.0241,0.0156,-32.625,-30.225,2.55,,adl
3.855047,0.1983,0.033,0.2177,-0.0765,0.0241,0.0156,-32.625,-30.225,2.55,,adl
3.856947,0.0934,0.0069,-0.0103,-0.0765,0.0241,0.0156,-32.625,-30.225,2.55,,adl
3.859702,0.0934,0.0069,-0.0103,-0.0612,0.0308,0.0238,-32.625,-30.225,2.55,,adl
3.874942,0.0934,0.0069,-0.0103,-0.0612,0.0308,0.0238,-32.625,-30.225,2.55,,adl
3.877417,0.0314,0.0268,0.0058,-0.0612,0.0308,0.0238,-32.625,-30.225,2.55,,adl
3.884646,0.0314,0.0268,0.0058,-0.0612,0.0308,0.0238,-32.325,-30.15,2.25,,adl
3.897882,0.0314,0.0268,0.0058,-0.0612,0.0308,0.0238,-32.325,-30.15,2.25,,adl
3.899827,0.0007,0.0859,0.0883,-0.0612,0.0308,0.0238,-32.325,-30.15,2.25,,adl
3.910071,0.0007,0.0859,0.0883,-0.0612,0.0308,0.0238,-32.325,-30.15,2.25,,adl
3.912078,-0.0643,0.1142,0.1422,-0.0612,0.0308,0.0238,-32.325,-30.15,2.25,,adl
3.928174,-0.0643,0.1142,0.1422,-0.055,-0.0275,-0.0009,-32.325,-30.15,2.25,,adl
3.935435,-0.0643,0.1142,0.1422,-0.055,-0.0275,-0.0009,-32.325,-30.15,2.25,,adl
3.937399,-0.1435,0.0983,0.0976,-0.055,-0.0275,-0.0009,-32.325,-30.15,2.25,,adl
3.952876,-0.1435,0.0983,0.0976,-0.055,-0.0275,-0.0009,-32.325,-30.15,2.25,,adl
3.954466,-0.139,0.0647,0.0127,-0.055,-0.0275,-0.0009,-32.325,-30.15,2.25,,adl
3.955611,-0.139,0.0647,0.0127,-0.055,-0.0275,-0.0009,-32.4,-30.75,2.25,,adl
3.972224,-0.139,0.0647,0.0127,-0.055,-0.0275,-0.0009,-32.4,-30.75,2.25,,adl
3.973809,-0.0848,0.0687,0.087,-0.055,-0.0275,-0.0009,-32.4,-30.75,2.25,,adl
3.992377,-0.0848,0.0687,0.087,-0.055,-0.0275,-0.0009,-32.4,-30.75,2.25,,adl
3.994722,-0.0857,0.0636,0.1293,-0.055,-0.0275,-0.0009,-32.4,-30.75,2.25,,adl
3.998609,-0.0857,0.0636,0.1293,-0.0632,-0.0261,-0.0144,-32.4,-30.75,2.25,,adl
4.009686,-0.0857,0.0636,0.1293,-0.0632,-0.0261,-0.0144,-32.4,-30.75,2.25,,adl
4.011431,-0.1272,0.0311,0.1154,-0.0632,-0.0261,-0.0144,-32.4,-30.75,2.25,,adl
4.025278,-0.1272,0.0311,0.1154,-0.0632,-0.0261,-0.0144,-32.175,-30.375,2.175,,adl
4.033716,-0.1272,0.0311,0.1154,-0.0632,-0.0261,-0.0144,-32.175,-30.375,2.175,,adl
4.036038,-0.1472,0.0281,0.1309,-0.0632,-0.0261,-0.0144,-32.175,-30.375,2.175,,adl
4.05141,-0.1472,0.0281,0.1309,-0.0632,-0.0261,-0.0144,-32.175,-30.375,2.175,,adl
4.053713,-0.111,0.0033,0.1213,-0.0632,-0.0261,-0.0144,-32.175,-30.375,2.175,,adl
4.070268,-0.111,0.0033,0.1213,-0.0655,-0.0292,-0.0119,-32.175,-30.375,2.175,,adl
4.075059,-0.111,0.0033,0.1213,-0.0655,-0.0292,-0.0119,-32.175,-30.375,2.175,,adl
4.076322,-0.0039,0.0352,0.1105,-0.0655,-0.0292,-0.0119,-32.175,-30.375,2.175,,adl
4.094593,-0.0039,0.0352,0.1105,-0.0655,-0.0292,-0.0119,-32.175,-30.375,2.175,,adl
4.096748,0.0385,0.007,0.1885,-0.0655,-0.0292,-0.0119,-32.175,-30.375,2.175,,adl
4.097902,0.0385,0.007,0.1885,-0.0655,-0.0292,-0.0119,-31.725,-30.375,1.95,,adl
4.110314,0.0385,0.007,0.1885,-0.0655,-0.0292,-0.0119,-31.725,-30.375,1.95,,adl
4.113274,-0.0017,-0.0118,0.1337,-0.0655,-0.0292,-0.0119,-31.725,-30.375,1.95,,adl
4.135018,-0.0017,-0.0118,0.1337,-0.0655,-0.0292,-0.0119,-31.725,-30.375,1.95,,adl
4.136829,-0.0052,0.0342,0.1902,-0.0655,-0.0292,-0.0119,-31.725,-30.375,1.95,,adl
4.138379,-0.0052,0.0342,0.1902,-0.0541,-0.0626,-0.0211,-31.725,-30.375,1.95,,adl
4.153157,-0.0052,0.0342,0.1902,-0.0541,-0.0626,-0.0211,-31.725,-30.375,1.95,,adl
4.154878,-0.0094,0.0209,0.2098,-0.0541,-0.0626,-0.0211,-31.725,-30.375,1.95,,adl
4.165802,-0.0094,0.0209,0.2098,-0.0541,-0.0626,-0.0211,-32.85,-30.15,2.175,,adl
4.172861,-0.0094,0.0209,0.2098,-0.0541,-0.0626,-0.0211,-32.85,-30.15,2.175,,adl
4.174128,-0.06,-0.0099,0.0879,-0.0541,-0.0626,-0.0211,-32.85,-30.15,2.175,,adl
4.193317,-0.06,-0.0099,0.0879,-0.0541,-0.0626,-0.0211,-32.85,-30.15,2.175,,adl
4.195452,-0.0836,-0.0003,0.2369,-0.0541,-0.0626,-0.0211,-32.85,-30.15,2.175,,adl
4.20683,-0.0836,-0.0003,0.2369,-0.0406,-0.0547,-0.0334,-32.85,-30.15,2.175,,adl
4.21005,-0.0836,-0.0003,0.2369,-0.0406,-0.0547,-0.0334,-32.85,-30.15,2.175,,adl
4.211627,-0.0125,0.0558,-0.0129,-0.0406,-0.0547,-0.0334,-32.85,-30.15,2.175,,adl
4.231844,-0.0125,0.0558,-0.0129,-0.0406,-0.0547,-0.0334,-32.85,-30.15,2.175,,adl
4.235197,0.0778,0.0931,-0.0222,-0.0406,-0.0547,-0.0334,-32.85,-30.15,2.175,,adl
4.237188,0.0778,0.0931,-0.0222,-0.0406,-0.0547,-0.0334,-31.65,-30.525,2.25,,adl
4.251206,0.0778,0.0931,-0.0222,-0.0406,-0.0547,-0.0334,-31.65,-30.525,2.25,,adl
4.253044,0.1411,0.0902,0.1005,-0.0406,-0.0547,-0.0334,-31.65,-30.525,2.25,,adl
4.270912,0.1411,0.0902,0.1005,-0.0406,-0.0547,-0.0334,-31.65,-30.525,2.25,,adl
4.273168,0.2357,0.0811,0.3333,-0.0406,-0.0547,-0.0334,-31.65,-30.525,2.25,,adl
4.275619,0.2357,0.0811,0.3333,-0.0391,-0.0687,-0.0156,-31.65,-30.525,2.25,,adl
4.290521,0.2357,0.0811,0.3333,-0.0391,-0.0687,-0.0156,-31.65,-30.525,2.25,,adl
4.29288,0.2474,-0.0009,0.2425,-0.0391,-0.0687,-0.0156,-31.65,-30.525,2.25,,adl
4.305036,0.2474,-0.0009,0.2425,-0.0391,-0.0687,-0.0156,-32.1,-30.75,2.475,,adl
4.310385,0.2474,-0.0009,0.2425,-0.0391,-0.0687,-0.0156,-32.1,-30.75,2.475,,adl
4.312062,0.1051,-0.0319,0.0331,-0.0391,-0.0687,-0.0156,-32.1,-30.75,2.475,,adl
4.331501,0.1051,-0.0319,0.0331,-0.0391,-0.0687,-0.0156,-32.1,-30.75,2.475,,adl
4.333661,-0.0364,0.009,-0.0207,-0.0391,-0.0687,-0.0156,-32.1,-30.75,2.475,,adl
4.350483,-0.0364,0.009,-0.0207,-0.0087,-0.0421,-0.0173,-32.1,-30.75,2.475,,adl
4.353779,-0.0364,0.009,-0.0207,-0.0087,-0.0421,-0.0173,-32.1,-30.75,2.475,,adl
4.355156,-0.0868,0.0949,0.0805,-0.0087,-0.0421,-0.0173,-32.1,-30.75,2.475,,adl
4.373357,-0.0868,0.0949,0.0805,-0.0087,-0.0421,-0.0173,-32.1,-30.75,2.475,,adl
4.375056,-0.0858,0.1452,0.135,-0.0087,-0.0421,-0.0173,-32.1,-30.75,2.475,,adl
4.376277,-0.0858,0.1452,0.135,-0.0087,-0.0421,-0.0173,-31.8,-31.125,1.725,,adl
4.393051,-0.0858,0.1452,0.135,-0.0087,-0.0421,-0.0173,-31.8,-31.125,1.725,,adl
4.395029,-0.0632,0.1371,0.1015,-0.0087,-0.0421,-0.0173,-31.8,-31.125,1.725,,adl
4.409626,-0.0632,0.1371,0.1015,-0.0087,-0.0421,-0.0173,-31.8,-31.125,1.725,,adl
4.413752,0.009,0.13,0.186,-0.0087,-0.0421,-0.0173,-31.8,-31.125,1.725,,adl
4.419782,0.009,0.13,0.186,-0.0443,-0.0452,-0.0252,-31.8,-31.125,1.725,,adl
4.43285,0.009,0.13,0.186,-0.0443,-0.0452,-0.0252,-31.8,-31.125,1.725,,adl
4.434496,0.0374,0.0486,0.18,-0.0443,-0.0452,-0.0252,-31.8,-31.125,1.725,,adl
4.444366,0.0374,0.0486,0.18,-0.0443,-0.0452,-0.0252,-32.4,-30.975,2.025,,adl
4.451882,0.0374,0.0486,0.18,-0.0443,-0.0452,-0.0252,-32.4,-30.975,2.025,,adl
4.453489,0.0099,-0.0592,0.1012,-0.0443,-0.0452,-0.0252,-32.4,-30.975,2.025,,adl
4.471194,0.0099,-0.0592,0.1012,-0.0443,-0.0452,-0.0252,-32.4,-30.975,2.025,,adl
4.473741,0.0423,-0.0499,0.287,-0.0443,-0.0452,-0.0252,-32.4,-30.975,2.025,,adl
4.485765,0.0423,-0.0499,0.287,-0.0162,-0.0035,0.0043,-32.4,-30.975,2.025,,adl
4.490653,0.0423,-0.0499,0.287,-0.0162,-0.0035,0.0043,-32.4,-30.975,2.025,,adl
4.492519,0.0018,0.0093,0.0265,-0.0162,-0.0035,0.0043,-32.4,-30.975,2.025,,adl
4.510351,0.0018,0.0093,0.0265,-0.0162,-0.0035,0.0043,-32.4,-30.975,2.025,,adl
4.512066,-0.0084,0.0382,-0.0015,-0.0162,-0.0035,0.0043,-32.4,-30.975,2.025,,adl
4.517982,-0.0084,0.0382,-0.0015,-0.0162,-0.0035,0.0043,-31.65,-30.525,2.25,,adl
4.531054,-0.0084,0.0382,-0.0015,-0.0162,-0.0035,0.0043,-31.65,-30.525,2.25,,adl
4.532753,-0.0216,0.0938,0.0143,-0.0162,-0.0035,0.0043,-31.65,-30.525,2.25,,adl
4.549281,-0.0216,0.0938,0.0143,-0.0162,-0.0035,0.0043,-31.65,-30.525,2.25,,adl
4.550746,-0.0098,0.0552,0.0997,-0.0162,-0.0035,0.0043,-31.65,-30.525,2.25,,adl
4.553927,-0.0098,0.0552,0.0997,-0.018,-0.0073,0.0041,-31.65,-30.525,2.25,,adl
4.569097,-0.0098,0.0552,0.0997,-0.018,-0.0073,0.0041,-31.65,-30.525,2.25,,adl
4.570604,0.0498,0.0076,0.1446,-0.018,-0.0073,0.0041,-31.65,-30.525,2.25,,adl
4.584564,0.0498,0.0076,0.1446,-0.018,-0.0073,0.0041,-31.575,-30.525,2.775,,adl
4.585999,0.0498,0.0076,0.1446,-0.018,-0.0073,0.0041,-31.575,-30.525,2.775,,adl
4.586941,0.0294,0.0522,0.1417,-0.018,-0.0073,0.0041,-31.575,-30.525,2.775,,adl
4.608995,0.0294,0.0522,0.1417,-0.018,-0.0073,0.0041,-31.575,-30.525,2.775,,adl
4.610662,-0.0108,0.0722,0.0888,-0.018,-0.0073,0.0041,-31.575,-30.525,2.775,,adl
4.627889,-0.0108,0.0722,0.0888,0.0182,0.0043,-0.0008,-31.575,-30.525,2.775,,adl
4.633994,-0.0108,0.0722,0.0888,0.0182,0.0043,-0.0008,-31.575,-30.525,2.775,,adl
4.63538,-0.0254,0.0701,0.0004,0.0182,0.0043,-0.0008,-31.575,-30.525,2.775,,adl
4.65211,-0.0254,0.0701,0.0004,0.0182,0.0043,-0.0008,-31.575,-30.525,2.775,,adl
4.65381,-0.0242,0.0851,0.0637,0.0182,0.0043,-0.0008,-31.575,-30.525,2.775,,adl
4.654886,-0.0242,0.0851,0.0637,0.0182,0.0043,-0.0008,-32.025,-30.525,2.25,,adl
4.671462,-0.0242,0.0851,0.0637,0.0182,0.0043,-0.0008,-32.025,-30.525,2.25,,adl
4.673238,-0.0278,0.0477,0.1264,0.0182,0.0043,-0.0008,-32.025,-30.525,2.25,,adl
4.691147,-0.0278,0.0477,0.1264,0.0182,0.0043,-0.0008,-32.025,-30.525,2.25,,adl
4.692732,-0.0289,0.0127,0.0987,0.0182,0.0043,-0.0008,-32.025,-30.525,2.25,,adl
4.69779,-0.0289,0.0127,0.0987,-0.0078,0.0057,-0.0012,-32.025,-30.525,2.25,,adl
4.709861,-0.0289,0.0127,0.0987,-0.0078,0.0057,-0.0012,-32.025,-30.525,2.25,,adl
4.711854,-0.0347,-0.0056,0.0977,-0.0078,0.0057,-0.0012,-32.025,-30.525,2.25,,adl
4.724305,-0.0347,-0.0056,0.0977,-0.0078,0.0057,-0.0012,-31.65,-30.675,1.95,,adl
4.732347,-0.0347,-0.0056,0.0977,-0.0078,0.0057,-0.0012,-31.65,-30.675,1.95,,adl
4.73438,0.0148,0.0236,0.0676,-0.0078,0.0057,-0.0012,-31.65,-30.675,1.95,,adl
4.750473,0.0148,0.0236,0.0676,-0.0078,0.0057,-0.0012,-31.65,-30.675,1.95,,adl
4.751921,0.0247,0.0237,0.0704,-0.0078,0.0057,-0.0012,-31.65,-30.675,1.95,,adl
4.764973,0.0247,0.0237,0.0704,0.0021,0.0232,-0.0047,-31.65,-30.675,1.95,,adl
4.76992,0.0247,0.0237,0.0704,0.0021,0.0232,-0.0047,-31.65,-30.675,1.95,,adl
4.771363,0.0397,0.0364,0.1054,0.0021,0.0232,-0.0047,-31.65,-30.675,1.95,,adl
4.789474,0.0397,0.0364,0.1054,0.0021,0.0232,-0.0047,-31.65,-30.675,1.95,,adl
4.791042,0.0288,0.0529,0.0743,0.0021,0.0232,-0.0047,-31.65,-30.675,1.95,,adl
4.794044,0.0288,0.0529,0.0743,0.0021,0.0232,-0.0047,-31.95,-30.975,2.25,,adl
4.809446,0.0288,0.0529,0.0743,0.0021,0.0232,-0.0047,-31.95,-30.975,2.25,,adl
4.811584,0.0095,0.0467,0.0961,0.0021,0.0232,-0.0047,-31.95,-30.975,2.25,,adl
4.828411,0.0095,0.0467,0.0961,0.0021,0.0232,-0.0047,-31.95,-30.975,2.25,,adl
4.830195,-0.001,0.0344,0.1411,0.0021,0.0232,-0.0047,-31.95,-30.975,2.25,,adl
4.833412,-0.001,0.0344,0.1411,-0.0035,0.0157,0.0061,-31.95,-30.975,2.25,,adl
4.850268,-0.001,0.0344,0.1411,-0.0035,0.0157,0.0061,-31.95,-30.975,2.25,,adl
4.852168,0.0345,0.0472,0.1466,-0.0035,0.0157,0.0061,-31.95,-30.975,2.25,,adl
4.866681,0.0345,0.0472,0.1466,-0.0035,0.0157,0.0061,-32.1,-31.275,2.025,,adl
4.867867,0.0345,0.0472,0.1466,-0.0035,0.0157,0.0061,-32.1,-31.275,2.025,,adl
4.8689,0.0513,0.0203,0.1005,-0.0035,0.0157,0.0061,-32.1,-31.275,2.025,,adl
4.88692,0.0513,0.0203,0.1005,-0.0035,0.0157,0.0061,-32.1,-31.275,2.025,,adl
4.888503,0.0138,0.0422,-0.033,-0.0035,0.0157,0.0061,-32.1,-31.275,2.025,,adl
4.901401,0.0138,0.0422,-0.033,-0.0124,0.0165,0.0076,-32.1,-31.275,2.025,,adl
4.906351,0.0138,0.0422,-0.033,-0.0124,0.0165,0.0076,-32.1,-31.275,2.025,,adl
4.907708,0.0062,0.0518,0.2802,-0.0124,0.0165,0.0076,-32.1,-31.275,2.025,,adl
4.926049,0.0062,0.0518,0.2802,-0.0124,0.0165,0.0076,-32.1,-31.275,2.025,,adl
4.927683,0.0022,0.0142,0.0412,-0.0124,0.0165,0.0076,-32.1,-31.275,2.025,,adl
4.934779,0.0022,0.0142,0.0412,-0.0124,0.0165,0.0076,-31.95,-30.975,2.025,,adl
4.947077,0.0022,0.0142,0.0412,-0.0124,0.0165,0.0076,-31.95,-30.975,2.025,,adl
4.949184,-0.0288,0.0367,-0.0158,-0.0124,0.0165,0.0076,-31.95,-30.975,2.025,,adl
4.960311,-0.0288,0.0367,-0.0158,-0.0124,0.0165,0.0076,-31.95,-30.975,2.025,,adl
4.961848,-0.0269,0.0509,0.0369,-0.0124,0.0165,0.0076,-31.95,-30.975,2.025,,adl
4.974398,-0.0269,0.0509,0.0369,-0.0221,0.0128,0.0027,-31.95,-30.975,2.025,,adl
4.989361,-0.0269,0.0509,0.0369,-0.0221,0.0128,0.0027,-31.95,-30.975,2.025,,adl
4.991173,0.0678,0.0565,0.1993,-0.0221,0.0128,0.0027,-31.95,-30.975,2.025,,adl
5.000826,0.0678,0.0565,0.1993,-0.0221,0.0128,0.0027,-31.35,-30.825,1.65,,adl
5.009261,0.0678,0.0565,0.1993,-0.0221,0.0128,0.0027,-31.35,-30.825,1.65,,adl
5.010797,0.061,0.0019,0.2071,-0.0221,0.0128,0.0027,-31.35,-30.825,1.65,,adl
5.028921,0.061,0.0019,0.2071,-0.0221,0.0128,0.0027,-31.35,-30.825,1.65,,adl
5.030678,0.0215,-0.0025,0.0832,-0.0221,0.0128,0.0027,-31.35,-30.825,1.65,,adl
5.043294,0.0215,-0.0025,0.0832,-0.006,0.0032,0.0003,-31.35,-30.825,1.65,,adl
5.048883,0.0215,-0.0025,0.0832,-0.006,0.0032,0.0003,-31.35,-30.825,1.65,,adl
5.050331,-0.021,0.0373,0.0296,-0.006,0.0032,0.0003,-31.35,-30.825,1.65,,adl
5.067916,-0.021,0.0373,0.0296,-0.006,0.0032,0.0003,-31.35,-30.825,1.65,,adl
5.069466,-0.0338,0.0691,0.1063,-0.006,0.0032,0.0003,-31.35,-30.825,1.65,,adl
5.070636,-0.0338,0.0691,0.1063,-0.006,0.0032,0.0003,-31.125,-30.825,1.875,,adl
5.087534,-0.0338,0.0691,0.1063,-0.006,0.0032,0.0003,-31.125,-30.825,1.875,,adl
5.089551,0.0093,0.0555,0.1691,-0.006,0.0032,0.0003,-31.125,-30.825,1.875,,adl
5.107232,0.0093,0.0555,0.1691,-0.006,0.0032,0.0003,-31.125,-30.825,1.875,,adl
5.108861,0.0255,0.0339,0.1362,-0.006,0.0032,0.0003,-31.125,-30.825,1.875,,adl
5.111868,0.0255,0.0339,0.1362,-0.0047,0.0012,0.0057,-31.125,-30.825,1.875,,adl
5.126482,0.0255,0.0339,0.1362,-0.0047,0.0012,0.0057,-31.125,-30.825,1.875,,adl
5.128675,0.0214,0.0435,0.0919,-0.0047,0.0012,0.0057,-31.125,-30.825,1.875,,adl
5.136816,0.0214,0.0435,0.0919,-0.0047,0.0012,0.0057,-31.65,-31.05,2.25,,adl
5.14697,0.0214,0.0435,0.0919,-0.0047,0.0012,0.0057,-31.65,-31.05,2.25,,adl
5.149705,0.0177,0.0665,0.0805,-0.0047,0.0012,0.0057,-31.65,-31.05,2.25,,adl
5.1656,0.0177,0.0665,0.0805,-0.0047,0.0012,0.0057,-31.65,-31.05,2.25,,adl
5.167164,-0.0041,0.042,0.1574,-0.0047,0.0012,0.0057,-31.65,-31.05,2.25,,adl
5.182962,-0.0041,0.042,0.1574,-0.0035,0.0002,0.0002,-31.65,-31.05,2.25,,adl
5.185294,-0.0041,0.042,0.1574,-0.0035,0.0002,0.0002,-31.65,-31.05,2.25,,adl
5.186507,0.0423,-0.0318,0.3516,-0.0035,0.0002,0.0002,-31.65,-31.05,2.25,,adl
5.204855,0.0423,-0.0318,0.3516,-0.0035,0.0002,0.0002,-31.65,-31.05,2.25,,adl
5.206293,0.0261,-0.087,0.0114,-0.0035,0.0002,0.0002,-31.65,-31.05,2.25,,adl
5.207497,0.0261,-0.087,0.0114,-0.0035,0.0002,0.0002,-31.35,-31.425,2.25,,adl
5.230544,0.0261,-0.087,0.0114,-0.0035,0.0002,0.0002,-31.35,-31.425,2.25,,adl
5.233061,-0.0264,-0.0348,-0.0681,-0.0035,0.0002,0.0002,-31.35,-31.425,2.25,,adl
5.249979,-0.0264,-0.0348,-0.0681,-0.0035,0.0002,0.0002,-31.35,-31.425,2.25,,adl
5.252074,-0.0236,0.0637,-0.0146,-0.0035,0.0002,0.0002,-31.35,-31.425,2.25,,adl
5.254161,-0.0236,0.0637,-0.0146,-0.0011,-0.0009,-0.0018,-31.35,-31.425,2.25,,adl
5.268518,-0.0236,0.0637,-0.0146,-0.0011,-0.0009,-0.0018,-31.35,-31.425,2.25,,adl
5.270832,-0.0116,0.0695,0.231,-0.0011,-0.0009,-0.0018,-31.35,-31.425,2.25,,adl
5.278663,-0.0116,0.0695,0.231,-0.0011,-0.0009,-0.0018,-31.35,-31.125,2.25,,adl
5.288211,-0.0116,0.0695,0.231,-0.0011,-0.0009,-0.0018,-31.35,-31.125,2.25,,adl
5.289984,0.0207,0.0163,0.23,-0.0011,-0.0009,-0.0018,-31.35,-31.125,2.25,,adl
5.307317,0.0207,0.0163,0.23,-0.0011,-0.0009,-0.0018,-31.35,-31.125,2.25,,adl
5.30909,0.0178,0.0319,0.1145,-0.0011,-0.0009,-0.0018,-31.35,-31.125,2.25,,adl
5.32207,0.0178,0.0319,0.1145,0.0079,0.0005,-0.0057,-31.35,-31.125,2.25,,adl
5.327402,0.0178,0.0319,0.1145,0.0079,0.0005,-0.0057,-31.35,-31.125,2.25,,adl
5.32917,0.0119,0.0565,0.0039,0.0079,0.0005,-0.0057,-31.35,-31.125,2.25,,adl
5.346631,0.0119,0.0565,0.0039,0.0079,0.0005,-0.0057,-31.35,-31.125,2.25,,adl
5.349368,0.0205,0.0778,-0.0012,0.0079,0.0005,-0.0057,-31.35,-31.125,2.25,,adl
5.350793,0.0205,0.0778,-0.0012,0.0079,0.0005,-0.0057,-32.4,-30.75,2.175,,adl
5.366314,0.0205,0.0778,-0.0012,0.0079,0.0005,-0.0057,-32.4,-30.75,2.175,,adl
5.367835,0.0041,0.0883,0.1006,0.0079,0.0005,-0.0057,-32.4,-30.75,2.175,,adl
5.385603,0.0041,0.0883,0.1006,0.0079,0.0005,-0.0057,-32.4,-30.75,2.175,,adl
5.38717,-0.0069,0.078,0.1088,0.0079,0.0005,-0.0057,-32.4,-30.75,2.175,,adl
5.392316,-0.0069,0.078,0.1088,0.0111,0.0038,-0.0008,-32.4,-30.75,2.175,,adl
5.405663,-0.0069,0.078,0.1088,0.0111,0.0038,-0.0008,-32.4,-30.75,2.175,,adl
5.407075,-0.0188,0.0541,0.0861,0.0111,0.0038,-0.0008,-32.4,-30.75,2.175,,adl
5.415609,-0.0188,0.0541,0.0861,0.0111,0.0038,-0.0008,-32.1,-30.525,2.325,,adl
5.425417,-0.0188,0.0541,0.0861,0.0111,0.0038,-0.0008,-32.1,-30.525,2.325,,adl
5.42677,0.022,0.0364,0.0629,0.0111,0.0038,-0.0008,-32.1,-30.525,2.325,,adl
5.445624,0.022,0.0364,0.0629,0.0111,0.0038,-0.0008,-32.1,-30.525,2.325,,adl
5.446895,0.0447,0.0276,0.0856,0.0111,0.0038,-0.0008,-32.1,-30.525,2.325,,adl
5.459527,0.0447,0.0276,0.0856,0.02,0.0113,0.0043,-32.1,-30.525,2.325,,adl
5.461511,0.0447,0.0276,0.0856,0.02,0.0113,0.0043,-32.1,-30.525,2.325,,adl
5.462789,0.0486,0.0227,0.1393,0.02,0.0113,0.0043,-32.1,-30.525,2.325,,adl
5.483721,0.0486,0.0227,0.1393,0.02,0.0113,0.0043,-32.1,-30.525,2.325,,adl
5.485783,0.0288,0.0026,0.1274,0.02,0.0113,0.0043,-32.1,-30.525,2.325,,adl
5.486728,0.0288,0.0026,0.1274,0.02,0.0113,0.0043,-31.425,-30.825,1.575,,adl
5.504306,0.0288,0.0026,0.1274,0.02,0.0113,0.0043,-31.425,-30.825,1.575,,adl
5.506053,0.0185,-0.0127,0.1,0.02,0.0113,0.0043,-31.425,-30.825,1.575,,adl
5.524011,0.0185,-0.0127,0.1,0.02,0.0113,0.0043,-31.425,-30.825,1.575,,adl
5.526407,-0.012,-0.0252,0.0707,0.02,0.0113,0.0043,-31.425,-30.825,1.575,,adl
5.528117,-0.012,-0.0252,0.0707,0.0315,0.0224,-0.0014,-31.425,-30.825,1.575,,adl
5.543119,-0.012,-0.0252,0.0707,0.0315,0.0224,-0.0014,-31.425,-30.825,1.575,,adl
5.54504,-0.0467,-0.0206,0.1715,0.0315,0.0224,-0.0014,-31.425,-30.825,1.575,,adl
5.554089,-0.0467,-0.0206,0.1715,0.0315,0.0224,-0.0014,-32.1,-31.35,1.95,,adl
5.560756,-0.0467,-0.0206,0.1715,0.0315,0.0224,-0.0014,-32.1,-31.35,1.95,,adl
5.562531,-0.0365,0.0058,0.1384,0.0315,0.0224,-0.0014,-32.1,-31.35,1.95,,adl
5.582463,-0.0365,0.0058,0.1384,0.0315,0.0224,-0.0014,-32.1,-31.35,1.95,,adl
5.584599,0.0258,0.0306,0.0992,0.0315,0.0224,-0.0014,-32.1,-31.35,1.95,,adl
5.60114,0.0258,0.0306,0.0992,0.0371,0.0027,-0.0009,-32.1,-31.35,1.95,,adl
5.606868,0.0258,0.0306,0.0992,0.0371,0.0027,-0.0009,-32.1,-31.35,1.95,,adl
5.608385,0.0049,0.0283,-0.1041,0.0371,0.0027,-0.0009,-32.1,-31.35,1.95,,adl
5.625741,0.0049,0.0283,-0.1041,0.0371,0.0027,-0.0009,-32.1,-31.35,1.95,,adl
5.627642,-0.021,0.0574,0.2123,0.0371,0.0027,-0.0009,-32.1,-31.35,1.95,,adl
5.629137,-0.021,0.0574,0.2123,0.0371,0.0027,-0.0009,-31.8,-30.525,2.55,,adl
5.644964,-0.021,0.0574,0.2123,0.0371,0.0027,-0.0009,-31.8,-30.525,2.55,,adl
5.646626,-0.0201,0.0677,0.1302,0.0371,0.0027,-0.0009,-31.8,-30.525,2.55,,adl
5.659756,-0.0201,0.0677,0.1302,0.0371,0.0027,-0.0009,-31.8,-30.525,2.55,,adl
5.662101,-0.0165,0.0514,-0.0465,0.0371,0.0027,-0.0009,-31.8,-30.525,2.55,,adl
5.669164,-0.0165,0.0514,-0.0465,0.0467,0.0344,-0.009,-31.8,-30.525,2.55,,adl
5.683865,-0.0165,0.0514,-0.0465,0.0467,0.0344,-0.009,-31.8,-30.525,2.55,,adl
5.685815,-0.066,-0.0015,0.0001,0.0467,0.0344,-0.009,-31.8,-30.525,2.55,,adl
5.694375,-0.066,-0.0015,0.0001,0.0467,0.0344,-0.009,-32.025,-31.125,2.55,,adl
5.70374,-0.066,-0.0015,0.0001,0.0467,0.0344,-0.009,-32.025,-31.125,2.55,,adl
5.705729,0.0344,-0.0371,0.2098,0.0467,0.0344,-0.009,-32.025,-31.125,2.55,,adl
5.723269,0.0344,-0.0371,0.2098,0.0467,0.0344,-0.009,-32.025,-31.125,2.55,,adl
5.725091,0.0954,-0.0378,0.3073,0.0467,0.0344,-0.009,-32.025,-31.125,2.55,,adl
5.737639,0.0954,-0.0378,0.3073,0.0379,-0.006,-0.0052,-32.025,-31.125,2.55,,adl
5.742907,0.0954,-0.0378,0.3073,0.0379,-0.006,-0.0052,-32.025,-31.125,2.55,,adl
5.745066,0.0632,-0.0424,0.0808,0.0379,-0.006,-0.0052,-32.025,-31.125,2.55,,adl
5.76037,0.0632,-0.0424,0.0808,0.0379,-0.006,-0.0052,-32.025,-31.125,2.55,,adl
5.762157,0.014,0.0001,-0.0227,0.0379,-0.006,-0.0052,-32.025,-31.125,2.55,,adl
5.76851,0.014,0.0001,-0.0227,0.0379,-0.006,-0.0052,-31.65,-30.675,1.725,,adl
5.782134,0.014,0.0001,-0.0227,0.0379,-0.006,-0.0052,-31.65,-30.675,1.725,,adl
5.784363,-0.0305,0.0695,0.0151,0.0379,-0.006,-0.0052,-31.65,-30.675,1.725,,adl
5.80245,-0.0305,0.0695,0.0151,0.0379,-0.006,-0.0052,-31.65,-30.675,1.725,,adl
5.804544,0.0096,0.0935,0.1337,0.0379,-0.006,-0.0052,-31.65,-30.675,1.725,,adl
5.806302,0.0096,0.0935,0.1337,0.0075,-0.0121,0.0043,-31.65,-30.675,1.725,,adl
5.821562,0.0096,0.0935,0.1337,0.0075,-0.0121,0.0043,-31.65,-30.675,1.725,,adl
5.823245,0.0195,0.0769,0.1579,0.0075,-0.0121,0.0043,-31.65,-30.675,1.725,,adl
5.835455,0.0195,0.0769,0.1579,0.0075,-0.0121,0.0043,-31.875,-31.125,2.25,,adl
5.840808,0.0195,0.0769,0.1579,0.0075,-0.0121,0.0043,-31.875,-31.125,2.25,,adl
5.841944,0.0204,0.0656,0.1068,0.0075,-0.0121,0.0043,-31.875,-31.125,2.25,,adl
5.860872,0.0204,0.0656,0.1068,0.0075,-0.0121,0.0043,-31.875,-31.125,2.25,,adl
5.863493,0.0156,0.0531,0.0312,0.0075,-0.0121,0.0043,-31.875,-31.125,2.25,,adl
5.874965,0.0156,0.0531,0.0312,-0.02,-0.0263,0.0046,-31.875,-31.125,2.25,,adl
5.881058,0.0156,0.0531,0.0312,-0.02,-0.0263,0.0046,-31.875,-31.125,2.25,,adl
5.882797,0.0118,0.0389,0.0427,-0.02,-0.0263,0.0046,-31.875,-31.125,2.25,,adl
5.903934,0.0118,0.0389,0.0427,-0.02,-0.0263,0.0046,-31.875,-31.125,2.25,,adl
5.905877,0.0025,0.0097,0.1969,-0.02,-0.0263,0.0046,-31.875,-31.125,2.25,,adl
5.907691,0.0025,0.0097,0.1969,-0.02,-0.0263,0.0046,-32.25,-30.975,2.325,,adl
5.923831,0.0025,0.0097,0.1969,-0.02,-0.0263,0.0046,-32.25,-30.975,2.325,,adl
5.926257,0.014,0.0302,0.174,-0.02,-0.0263,0.0046,-32.25,-30.975,2.325,,adl
5.944216,0.014,0.0302,0.174,-0.02,-0.0263,0.0046,-32.25,-30.975,2.325,,adl
5.946811,-0.0337,0.0123,0.0557,-0.02,-0.0263,0.0046,-32.25,-30.975,2.325,,adl
5.94906,-0.0337,0.0123,0.0557,-0.0087,-0.0125,-0.0015,-32.25,-30.975,2.325,,adl
5.960681,-0.0337,0.0123,0.0557,-0.0087,-0.0125,-0.0015,-32.25,-30.975,2.325,,adl
5.962921,-0.0348,-0.0076,-0.0272,-0.0087,-0.0125,-0.0015,-32.25,-30.975,2.325,,adl
5.974406,-0.0348,-0.0076,-0.0272,-0.0087,-0.0125,-0.0015,-32.175,-30.825,3.075,,adl
5.984227,-0.0348,-0.0076,-0.0272,-0.0087,-0.0125,-0.0015,-32.175,-30.825,3.075,,adl
5.986349,0.0061,-0.0123,0.1483,-0.0087,-0.0125,-0.0015,-32.175,-30.825,3.075,,adl
6.001992,0.0061,-0.0123,0.1483,-0.0087,-0.0125,-0.0015,-32.175,-30.825,3.075,,adl
6.0036,0.0302,-0.0317,0.2308,-0.0087,-0.0125,-0.0015,-32.175,-30.825,3.075,,adl
6.016751,0.0302,-0.0317,0.2308,-0.0228,-0.0095,0.002,-32.175,-30.825,3.075,,adl
6.021352,0.0302,-0.0317,0.2308,-0.0228,-0.0095,0.002,-32.175,-30.825,3.075,,adl
6.022569,0.0168,-0.0053,0.1167,-0.0228,-0.0095,0.002,-32.175,-30.825,3.075,,adl
6.041514,0.0168,-0.0053,0.1167,-0.0228,-0.0095,0.002,-32.175,-30.825,3.075,,adl
6.04432,0.0113,0.0518,0.0323,-0.0228,-0.0095,0.002,-32.175,-30.825,3.075,,adl
6.045529,0.0113,0.0518,0.0323,-0.0228,-0.0095,0.002,-31.8,-30.75,2.625,,adl
6.060085,0.0113,0.0518,0.0323,-0.0228,-0.0095,0.002,-31.8,-30.75,2.625,,adl
6.061888,0.0164,0.0807,0.06,-0.0228,-0.0095,0.002,-31.8,-30.75,2.625,,adl
6.079978,0.0164,0.0807,0.06,-0.0228,-0.0095,0.002,-31.8,-30.75,2.625,,adl
6.081806,0.0347,0.0623,0.0902,-0.0228,-0.0095,0.002,-31.8,-30.75,2.625,,adl
6.084415,0.0347,0.0623,0.0902,-0.0124,-0.0031,-0.0015,-31.8,-30.75,2.625,,adl
6.099855,0.0347,0.0623,0.0902,-0.0124,-0.0031,-0.0015,-31.8,-30.75,2.625,,adl
6.101852,0.0198,0.0508,0.1094,-0.0124,-0.0031,-0.0015,-31.8,-30.75,2.625,,adl
6.117511,0.0198,0.0508,0.1094,-0.0124,-0.0031,-0.0015,-31.275,-31.275,2.625,,adl
6.119317,0.0198,0.0508,0.1094,-0.0124,-0.0031,-0.0015,-31.275,-31.275,2.625,,adl
6.120694,-0.0075,0.0393,0.0573,-0.0124,-0.0031,-0.0015,-31.275,-31.275,2.625,,adl
6.138649,-0.0075,0.0393,0.0573,-0.0124,-0.0031,-0.0015,-31.275,-31.275,2.625,,adl
6.140352,-0.0142,0.0428,0.036,-0.0124,-0.0031,-0.0015,-31.275,-31.275,2.625,,adl
6.153733,-0.0142,0.0428,0.036,-0.0182,-0.0078,0.005,-31.275,-31.275,2.625,,adl
6.158383,-0.0142,0.0428,0.036,-0.0182,-0.0078,0.005,-31.275,-31.275,2.625,,adl
6.159644,-0.0009,0.0418,0.1015,-0.0182,-0.0078,0.005,-31.275,-31.275,2.625,,adl
6.178033,-0.0009,0.0418,0.1015,-0.0182,-0.0078,0.005,-31.275,-31.275,2.625,,adl
6.180477,0.0052,0.0475,0.1122,-0.0182,-0.0078,0.005,-31.275,-31.275,2.625,,adl
6.184382,0.0052,0.0475,0.1122,-0.0182,-0.0078,0.005,-31.425,-30.75,2.475,,adl
6.206295,0.0052,0.0475,0.1122,-0.0182,-0.0078,0.005,-31.425,-30.75,2.475,,adl
6.208278,0.003,0.025,0.1216,-0.0182,-0.0078,0.005,-31.425,-30.75,2.475,,adl
6.222004,0.003,0.025,0.1216,-0.0182,-0.0078,0.005,-31.425,-30.75,2.475,,adl
6.223672,0.0194,-0.0083,0.0831,-0.0182,-0.0078,0.005,-31.425,-30.75,2.475,,adl
6.226659,0.0194,-0.0083,0.0831,-0.0177,-0.017,-0.0046,-31.425,-30.75,2.475,,adl
6.243628,0.0194,-0.0083,0.0831,-0.0177,-0.017,-0.0046,-31.425,-30.75,2.475,,adl
6.245435,0.0213,-0.0178,0.0261,-0.0177,-0.017,-0.0046,-31.425,-30.75,2.475,,adl
6.254101,0.0213,-0.0178,0.0261,-0.0177,-0.017,-0.0046,-32.025,-31.35,2.25,,adl
6.259702,0.0213,-0.0178,0.0261,-0.0177,-0.017,-0.0046,-32.025,-31.35,2.25,,adl
6.261035,-0.0078,-0.0062,0.1494,-0.0177,-0.017,-0.0046,-32.025,-31.35,2.25,,adl
6.281409,-0.0078,-0.0062,0.1494,-0.0177,-0.017,-0.0046,-32.025,-31.35,2.25,,adl
6.28308,-0.0048,0.0257,0.1459,-0.0177,-0.017,-0.0046,-32.025,-31.35,2.25,,adl
6.29503,-0.0048,0.0257,0.1459,-0.0334,-0.0212,-0.0047,-32.025,-31.35,2.25,,adl
6.302266,-0.0048,0.0257,0.1459,-0.0334,-0.0212,-0.0047,-32.025,-31.35,2.25,,adl
6.303839,0.0519,0.0682,0.1281,-0.0334,-0.0212,-0.0047,-32.025,-31.35,2.25,,adl
6.320075,0.0519,0.0682,0.1281,-0.0334,-0.0212,-0.0047,-32.025,-31.35,2.25,,adl
6.321551,0.0467,0.0601,0.049,-0.0334,-0.0212,-0.0047,-32.025,-31.35,2.25,,adl
6.324236,0.0467,0.0601,0.049,-0.0334,-0.0212,-0.0047,-32.325,-30.75,2.55,,adl
6.339117,0.0467,0.0601,0.049,-0.0334,-0.0212,-0.0047,-32.325,-30.75,2.55,,adl
6.340616,0.0069,0.0295,-0.0056,-0.0334,-0.0212,-0.0047,-32.325,-30.75,2.55,,adl
6.35921,0.0069,0.0295,-0.0056,-0.0334,-0.0212,-0.0047,-32.325,-30.75,2.55,,adl
6.361089,-0.0453,0.0465,0.3209,-0.0334,-0.0212,-0.0047,-32.325,-30.75,2.55,,adl
6.36713,-0.0453,0.0465,0.3209,-0.0347,-0.002,0.0037,-32.325,-30.75,2.55,,adl
6.378544,-0.0453,0.0465,0.3209,-0.0347,-0.002,0.0037,-32.325,-30.75,2.55,,adl
6.380063,-0.0182,0.057,0.0144,-0.0347,-0.002,0.0037,-32.325,-30.75,2.55,,adl
6.394506,-0.0182,0.057,0.0144,-0.0347,-0.002,0.0037,-32.325,-30.75,2.55,,adl
6.396895,-0.0209,0.0425,0.048,-0.0347,-0.002,0.0037,-32.325,-30.75,2.55,,adl
6.398158,-0.0209,0.0425,0.048,-0.0347,-0.002,0.0037,-31.5,-31.125,2.85,,adl
6.421124,-0.0209,0.0425,0.048,-0.0347,-0.002,0.0037,-31.5,-31.125,2.85,,adl
6.423437,-0.0421,0.0197,0.0932,-0.0347,-0.002,0.0037,-31.5,-31.125,2.85,,adl
6.43358,-0.0421,0.0197,0.0932,-0.0177,-0.0264,-0.0024,-31.5,-31.125,2.85,,adl
6.438518,-0.0421,0.0197,0.0932,-0.0177,-0.0264,-0.0024,-31.5,-31.125,2.85,,adl
6.440408,0.0259,-0.0032,0.1945,-0.0177,-0.0264,-0.0024,-31.5,-31.125,2.85,,adl
6.456644,0.0259,-0.0032,0.1945,-0.0177,-0.0264,-0.0024,-31.5,-31.125,2.85,,adl
6.458645,0.0346,-0.022,0.2423,-0.0177,-0.0264,-0.0024,-31.5,-31.125,2.85,,adl
6.464694,0.0346,-0.022,0.2423,-0.0177,-0.0264,-0.0024,-32.025,-31.575,1.725,,adl
6.476362,0.0346,-0.022,0.2423,-0.0177,-0.0264,-0.0024,-32.025,-31.575,1.725,,adl
6.477937,0.0032,-0.0054,0.0733,-0.0177,-0.0264,-0.0024,-32.025,-31.575,1.725,,adl
6.495655,0.0032,-0.0054,0.0733,-0.0177,-0.0264,-0.0024,-32.025,-31.575,1.725,,adl
6.497713,-0.0076,0.048,0.0061,-0.0177,-0.0264,-0.0024,-32.025,-31.575,1.725,,adl
6.50052,-0.0076,0.048,0.0061,-0.0017,-0.014,-0.0015,-32.025,-31.575,1.725,,adl
6.517752,-0.0076,0.048,0.0061,-0.0017,-0.014,-0.0015,-32.025,-31.575,1.725,,adl
6.519897,-0.0037,0.0652,0.0521,-0.0017,-0.014,-0.0015,-32.025,-31.575,1.725,,adl
6.534133,-0.0037,0.0652,0.0521,-0.0017,-0.014,-0.0015,-31.875,-30.825,2.175,,adl
6.539597,-0.0037,0.0652,0.0521,-0.0017,-0.014,-0.0015,-31.875,-30.825,2.175,,adl
6.541274,-0.0024,0.0532,0.1271,-0.0017,-0.014,-0.0015,-31.875,-30.825,2.175,,adl
6.559246,-0.0024,0.0532,0.1271,-0.0017,-0.014,-0.0015,-31.875,-30.825,2.175,,adl
6.561444,-0.0183,0.0189,0.0822,-0.0017,-0.014,-0.0015,-31.875,-30.825,2.175,,adl
6.57361,-0.0183,0.0189,0.0822,-0.0237,-0.0229,-0.0002,-31.875,-30.825,2.175,,adl
6.581008,-0.0183,0.0189,0.0822,-0.0237,-0.0229,-0.0002,-31.875,-30.825,2.175,,adl
6.583091,-0.0151,0.0531,0.016,-0.0237,-0.0229,-0.0002,-31.875,-30.825,2.175,,adl
6.599958,-0.0151,0.0531,0.016,-0.0237,-0.0229,-0.0002,-31.875,-30.825,2.175,,adl
6.601686,0.0014,0.0667,0.0467,-0.0237,-0.0229,-0.0002,-31.875,-30.825,2.175,,adl
6.602863,0.0014,0.0667,0.0467,-0.0237,-0.0229,-0.0002,-31.425,-30.525,2.25,,adl
6.618032,0.0014,0.0667,0.0467,-0.0237,-0.0229,-0.0002,-31.425,-30.525,2.25,,adl
6.619652,0.0187,0.0423,0.0935,-0.0237,-0.0229,-0.0002,-31.425,-30.525,2.25,,adl
6.63765,0.0187,0.0423,0.0935,-0.0237,-0.0229,-0.0002,-31.425,-30.525,2.25,,adl
6.639241,-0.011,0.0193,0.2691,-0.0237,-0.0229,-0.0002,-31.425,-30.525,2.25,,adl
6.642308,-0.011,0.0193,0.2691,-0.0467,-0.0339,-0.0038,-31.425,-30.525,2.25,,adl
6.657094,-0.011,0.0193,0.2691,-0.0467,-0.0339,-0.0038,-31.425,-30.525,2.25,,adl
6.658879,-0.0577,0.0207,0.1957,-0.0467,-0.0339,-0.0038,-31.425,-30.525,2.25,,adl
6.667468,-0.0577,0.0207,0.1957,-0.0467,-0.0339,-0.0038,-32.025,-30.675,1.95,,adl
6.67823,-0.0577,0.0207,0.1957,-0.0467,-0.0339,-0.0038,-32.025,-30.675,1.95,,adl
6.680572,-0.0609,0.0126,0.2216,-0.0467,-0.0339,-0.0038,-32.025,-30.675,1.95,,adl
6.696871,-0.0609,0.0126,0.2216,-0.0467,-0.0339,-0.0038,-32.025,-30.675,1.95,,adl
6.698814,0.0866,-0.055,0.0724,-0.0467,-0.0339,-0.0038,-32.025,-30.675,1.95,,adl
6.710649,0.0866,-0.055,0.0724,-0.0154,-0.0052,0.002,-32.025,-30.675,1.95,,adl
6.719062,0.0866,-0.055,0.0724,-0.0154,-0.0052,0.002,-32.025,-30.675,1.95,,adl
6.720679,0.0672,-0.0991,0.1474,-0.0154,-0.0052,0.002,-32.025,-30.675,1.95,,adl
6.735399,0.0672,-0.0991,0.1474,-0.0154,-0.0052,0.002,-32.025,-30.675,1.95,,adl
6.737183,0.0328,-0.0375,0.1811,-0.0154,-0.0052,0.002,-32.025,-30.675,1.95,,adl
6.738359,0.0328,-0.0375,0.1811,-0.0154,-0.0052,0.002,-31.575,-30.75,2.55,,adl
6.754947,0.0328,-0.0375,0.1811,-0.0154,-0.0052,0.002,-31.575,-30.75,2.55,,adl
6.757238,0.0032,0.0691,0.0807,-0.0154,-0.0052,0.002,-31.575,-30.75,2.55,,adl
6.779737,0.0032,0.0691,0.0807,-0.0154,-0.0052,0.002,-31.575,-30.75,2.55,,adl
6.78285,-0.0497,0.1518,0.003,-0.0154,-0.0052,0.002,-31.575,-30.75,2.55,,adl
6.784823,-0.0497,0.1518,0.003,0.0351,0.0119,-0.0012,-31.575,-30.75,2.55,,adl
6.799381,-0.0497,0.1518,0.003,0.0351,0.0119,-0.0012,-31.575,-30.75,2.55,,adl
6.800845,0.0118,0.1572,-0.0907,0.0351,0.0119,-0.0012,-31.575,-30.75,2.55,,adl
6.8094,0.0118,0.1572,-0.0907,0.0351,0.0119,-0.0012,-31.65,-30.75,2.25,,adl
6.818288,0.0118,0.1572,-0.0907,0.0351,0.0119,-0.0012,-31.65,-30.75,2.25,,adl
6.819557,0.0081,0.091,0.0209,0.0351,0.0119,-0.0012,-31.65,-30.75,2.25,,adl
6.838269,0.0081,0.091,0.0209,0.0351,0.0119,-0.0012,-31.65,-30.75,2.25,,adl
6.839974,-0.0434,0.0271,0.1163,0.0351,0.0119,-0.0012,-31.65,-30.75,2.25,,adl
6.852888,-0.0434,0.0271,0.1163,0.0011,0.0093,-0.0003,-31.65,-30.75,2.25,,adl
6.857581,-0.0434,0.0271,0.1163,0.0011,0.0093,-0.0003,-31.65,-30.75,2.25,,adl
6.858657,-0.0607,-0.0095,0.1274,0.0011,0.0093,-0.0003,-31.65,-30.75,2.25,,adl
6.877799,-0.0607,-0.0095,0.1274,0.0011,0.0093,-0.0003,-31.65,-30.75,2.25,,adl
6.879952,-0.0328,-0.0165,0.1276,0.0011,0.0093,-0.0003,-31.65,-30.75,2.25,,adl
6.881661,-0.0328,-0.0165,0.1276,0.0011,0.0093,-0.0003,-32.175,-30.75,2.25,,adl
6.89672,-0.0328,-0.0165,0.1276,0.0011,0.0093,-0.0003,-32.175,-30.75,2.25,,adl
6.898907,0.0247,0.0073,0.1088,0.0011,0.0093,-0.0003,-32.175,-30.75,2.25,,adl
6.916998,0.0247,0.0073,0.1088,0.0011,0.0093,-0.0003,-32.175,-30.75,2.25,,adl
6.918369,0.0264,0.0181,0.1155,0.0011,0.0093,-0.0003,-32.175,-30.75,2.25,,adl
6.921852,0.0264,0.0181,0.1155,0.0087,0.0183,-0.0009,-32.175,-30.75,2.25,,adl
6.935673,0.0264,0.0181,0.1155,0.0087,0.0183,-0.0009,-32.175,-30.75,2.25,,adl
6.937105,0.0029,0.0034,0.1102,0.0087,0.0183,-0.0009,-32.175,-30.75,2.25,,adl
6.947302,0.0029,0.0034,0.1102,0.0087,0.0183,-0.0009,-31.65,-30.675,2.175,,adl
6.95529,0.0029,0.0034,0.1102,0.0087,0.0183,-0.0009,-31.65,-30.675,2.175,,adl
6.956978,-0.0026,-0.008,0.0629,0.0087,0.0183,-0.0009,-31.65,-30.675,2.175,,adl
6.974817,-0.0026,-0.008,0.0629,0.0087,0.0183,-0.0009,-31.65,-30.675,2.175,,adl
6.976558,0.0029,0.0027,0.0939,0.0087,0.0183,-0.0009,-31.65,-30.675,2.175,,adl
6.98975,0.0029,0.0027,0.0939,0.0015,0.0032,-0.0009,-31.65,-30.675,2.175,,adl
6.994377,0.0029,0.0027,0.0939,0.0015,0.0032,-0.0009,-31.65,-30.675,2.175,,adl
6.995548,-0.0023,0.0162,0.1769,0.0015,0.0032,-0.0009,-31.65,-30.675,2.175,,adl
7.009712,-0.0023,0.0162,0.1769,0.0015,0.0032,-0.0009,-31.65,-30.675,2.175,,adl
7.011998,-0.0004,0.0307,0.1347,0.0015,0.0032,-0.0009,-31.65,-30.675,2.175,,adl
7.015266,-0.0004,0.0307,0.1347,0.0015,0.0032,-0.0009,-31.65,-31.05,2.55,,adl
7.034067,-0.0004,0.0307,0.1347,0.0015,0.0032,-0.0009,-31.65,-31.05,2.55,,adl
7.03722,0.0033,0.0568,0.1314,0.0015,0.0032,-0.0009,-31.65,-31.05,2.55,,adl
7.055746,0.0033,0.0568,0.1314,0.0015,0.0032,-0.0009,-31.65,-31.05,2.55,,adl
7.05693,-0.0797,0.0505,-0.0537,0.0015,0.0032,-0.0009,-31.65,-31.05,2.55,,adl
7.059272,-0.0797,0.0505,-0.0537,0.0053,-0.0115,-0.0018,-31.65,-31.05,2.55,,adl
7.07357,-0.0797,0.0505,-0.0537,0.0053,-0.0115,-0.0018,-31.65,-31.05,2.55,,adl
7.074623,-0.1638,0.0605,0.1035,0.0053,-0.0115,-0.0018,-31.65,-31.05,2.55,,adl
7.084368,-0.1638,0.0605,0.1035,0.0053,-0.0115,-0.0018,-31.875,-30.15,1.725,,adl
7.094291,-0.1638,0.0605,0.1035,0.0053,-0.0115,-0.0018,-31.875,-30.15,1.725,,adl
7.095948,-0.1765,0.0668,0.1519,0.0053,-0.0115,-0.0018,-31.875,-30.15,1.725,,adl
7.110538,-0.1765,0.0668,0.1519,0.0053,-0.0115,-0.0018,-31.875,-30.15,1.725,,adl
7.11251,-0.1195,0.0727,-0.0127,0.0053,-0.0115,-0.0018,-31.875,-30.15,1.725,,adl
7.12773,-0.1195,0.0727,-0.0127,-0.0095,-0.0041,-0.0324,-31.875,-30.15,1.725,,adl
7.133812,-0.1195,0.0727,-0.0127,-0.0095,-0.0041,-0.0324,-31.875,-30.15,1.725,,adl
7.135626,-0.0146,0.0348,0.1072,-0.0095,-0.0041,-0.0324,-31.875,-30.15,1.725,,adl
7.151183,-0.0146,0.0348,0.1072,-0.0095,-0.0041,-0.0324,-31.875,-30.15,1.725,,adl
7.152865,0.1494,-0.0294,0.1544,-0.0095,-0.0041,-0.0324,-31.875,-30.15,1.725,,adl
7.154626,0.1494,-0.0294,0.1544,-0.0095,-0.0041,-0.0324,-31.05,-30.675,2.25,,adl
7.175754,0.1494,-0.0294,0.1544,-0.0095,-0.0041,-0.0324,-31.05,-30.675,2.25,,adl
7.178559,0.212,-0.1142,0.3097,-0.0095,-0.0041,-0.0324,-31.05,-30.675,2.25,,adl
7.195423,0.212,-0.1142,0.3097,-0.0095,-0.0041,-0.0324,-31.05,-30.675,2.25,,adl
7.197222,0.15,-0.1445,0.1815,-0.0095,-0.0041,-0.0324,-31.05,-30.675,2.25,,adl
7.203483,0.15,-0.1445,0.1815,0.0228,0.0046,-0.0037,-31.05,-30.675,2.25,,adl
7.209963,0.15,-0.1445,0.1815,0.0228,0.0046,-0.0037,-31.05,-30.675,2.25,,adl
7.211474,0.1114,-0.0328,0.0784,0.0228,0.0046,-0.0037,-31.05,-30.675,2.25,,adl
7.224983,0.1114,-0.0328,0.0784,0.0228,0.0046,-0.0037,-32.025,-31.05,1.95,,adl
7.234293,0.1114,-0.0328,0.0784,0.0228,0.0046,-0.0037,-32.025,-31.05,1.95,,adl
7.236221,0.0828,0.0638,0.0101,0.0228,0.0046,-0.0037,-32.025,-31.05,1.95,,adl
7.254257,0.0828,0.0638,0.0101,0.0228,0.0046,-0.0037,-32.025,-31.05,1.95,,adl
7.255922,0.0942,0.1442,0.0424,0.0228,0.0046,-0.0037,-32.025,-31.05,1.95,,adl
7.269033,0.0942,0.1442,0.0424,0.0484,0.025,0.0136,-32.025,-31.05,1.95,,adl
7.273523,0.0942,0.1442,0.0424,0.0484,0.025,0.0136,-32.025,-31.05,1.95,,adl
7.2746,0.0856,0.1745,0.092,0.0484,0.025,0.0136,-32.025,-31.05,1.95,,adl
7.293833,0.0856,0.1745,0.092,0.0484,0.025,0.0136,-32.025,-31.05,1.95,,adl
7.29633,0.0489,0.1426,0.1046,0.0484,0.025,0.0136,-32.025,-31.05,1.95,,adl
7.297961,0.0489,0.1426,0.1046,0.0484,0.025,0.0136,-31.8,-30.75,2.475,,adl
7.310288,0.0489,0.1426,0.1046,0.0484,0.025,0.0136,-31.8,-30.75,2.475,,adl
7.312592,-0.0028,0.0857,0.0391,0.0484,0.025,0.0136,-31.8,-30.75,2.475,,adl
7.334417,-0.0028,0.0857,0.0391,0.0484,0.025,0.0136,-31.8,-30.75,2.475,,adl
7.336101,-0.016,0.0219,0.0355,0.0484,0.025,0.0136,-31.8,-30.75,2.475,,adl
7.339462,-0.016,0.0219,0.0355,0.0444,0.0151,0.0089,-31.8,-30.75,2.475,,adl
7.352465,-0.016,0.0219,0.0355,0.0444,0.0151,0.0089,-31.8,-30.75,2.475,,adl
7.354033,-0.0263,-0.0168,0.1103,0.0444,0.0151,0.0089,-31.8,-30.75,2.475,,adl
7.366428,-0.0263,-0.0168,0.1103,0.0444,0.0151,0.0089,-31.65,-30.45,2.175,,adl
7.371152,-0.0263,-0.0168,0.1103,0.0444,0.0151,0.0089,-31.65,-30.45,2.175,,adl
7.3726,-0.0787,0.0009,0.2573,0.0444,0.0151,0.0089,-31.65,-30.45,2.175,,adl
7.390757,-0.0787,0.0009,0.2573,0.0444,0.0151,0.0089,-31.65,-30.45,2.175,,adl
7.392425,-0.1453,-0.0155,0.1449,0.0444,0.0151,0.0089,-31.65,-30.45,2.175,,adl
7.405859,-0.1453,-0.0155,0.1449,0.0324,-0.0073,-0.0081,-31.65,-30.45,2.175,,adl
7.409887,-0.1453,-0.0155,0.1449,0.0324,-0.0073,-0.0081,-31.65,-30.45,2.175,,adl
7.411314,-0.1561,-0.0229,0.0477,0.0324,-0.0073,-0.0081,-31.65,-30.45,2.175,,adl
7.431616,-0.1561,-0.0229,0.0477,0.0324,-0.0073,-0.0081,-31.65,-30.45,2.175,,adl
7.43378,-0.1264,-0.0258,0.0621,0.0324,-0.0073,-0.0081,-31.65,-30.45,2.175,,adl
7.43508,-0.1264,-0.0258,0.0621,0.0324,-0.0073,-0.0081,-32.175,-31.125,2.475,,adl
7.453843,-0.1264,-0.0258,0.0621,0.0324,-0.0073,-0.0081,-32.175,-31.125,2.475,,adl
7.455335,-0.1069,-0.06,0.2543,0.0324,-0.0073,-0.0081,-32.175,-31.125,2.475,,adl
7.473643,-0.1069,-0.06,0.2543,0.0324,-0.0073,-0.0081,-32.175,-31.125,2.475,,adl
7.475523,-0.0725,-0.0953,0.2436,0.0324,-0.0073,-0.0081,-32.175,-31.125,2.475,,adl
7.480328,-0.0725,-0.0953,0.2436,0.0267,-0.0284,-0.0315,-32.175,-31.125,2.475,,adl
7.492999,-0.0725,-0.0953,0.2436,0.0267,-0.0284,-0.0315,-32.175,-31.125,2.475,,adl
7.494494,0.0222,-0.055,0.2095,0.0267,-0.0284,-0.0315,-32.175,-31.125,2.475,,adl
7.504354,0.0222,-0.055,0.2095,0.0267,-0.0284,-0.0315,-31.125,-30.525,2.325,,adl
7.509446,0.0222,-0.055,0.2095,0.0267,-0.0284,-0.0315,-31.125,-30.525,2.325,,adl
7.5106,0.0769,0.0338,0.0402,0.0267,-0.0284,-0.0315,-31.125,-30.525,2.325,,adl
7.532515,0.0769,0.0338,0.0402,0.0267,-0.0284,-0.0315,-31.125,-30.525,2.325,,adl
7.534167,0.1569,0.1055,0.0113,0.0267,-0.0284,-0.0315,-31.125,-30.525,2.325,,adl
7.547332,0.1569,0.1055,0.0113,0.0903,0.0063,-0.004,-31.125,-30.525,2.325,,adl
7.552035,0.1569,0.1055,0.0113,0.0903,0.0063,-0.004,-31.125,-30.525,2.325,,adl
7.553561,0.1945,0.1178,0.0795,0.0903,0.0063,-0.004,-31.125,-30.525,2.325,,adl
7.571589,0.1945,0.1178,0.0795,0.0903,0.0063,-0.004,-31.125,-30.525,2.325,,adl
7.57302,0.1798,0.0732,0.0906,0.0903,0.0063,-0.004,-31.125,-30.525,2.325,,adl
7.574292,0.1798,0.0732,0.0906,0.0903,0.0063,-0.004,-31.35,-31.05,2.25,,adl
7.591111,0.1798,0.0732,0.0906,0.0903,0.0063,-0.004,-31.35,-31.05,2.25,,adl
7.592803,0.1336,0.0322,0.1317,0.0903,0.0063,-0.004,-31.35,-31.05,2.25,,adl
7.609608,0.1336,0.0322,0.1317,0.0903,0.0063,-0.004,-31.35,-31.05,2.25,,adl
7.611396,0.0704,0.041,0.1377,0.0903,0.0063,-0.004,-31.35,-31.05,2.25,,adl
7.615431,0.0704,0.041,0.1377,0.0925,0.024,0.0278,-31.35,-31.05,2.25,,adl
7.631412,0.0704,0.041,0.1377,0.0925,0.024,0.0278,-31.35,-31.05,2.25,,adl
7.633178,0.0331,0.0512,0.1154,0.0925,0.024,0.0278,-31.35,-31.05,2.25,,adl
7.6441,0.0331,0.0512,0.1154,0.0925,0.024,0.0278,-31.65,-31.125,2.775,,adl
7.649661,0.0331,0.0512,0.1154,0.0925,0.024,0.0278,-31.65,-31.125,2.775,,adl
7.651228,0.0385,0.0235,0.0931,0.0925,0.024,0.0278,-31.65,-31.125,2.775,,adl
7.669469,0.0385,0.0235,0.0931,0.0925,0.024,0.0278,-31.65,-31.125,2.775,,adl
7.672041,0.018,-0.0277,0.1011,0.0925,0.024,0.0278,-31.65,-31.125,2.775,,adl
7.688405,0.018,-0.0277,0.1011,0.0993,0.0067,0.0002,-31.65,-31.125,2.775,,adl
7.690324,0.018,-0.0277,0.1011,0.0993,0.0067,0.0002,-31.65,-31.125,2.775,,adl
7.691407,-0.0321,-0.0703,0.145,0.0993,0.0067,0.0002,-31.65,-31.125,2.775,,adl
7.708476,-0.0321,-0.0703,0.145,0.0993,0.0067,0.0002,-31.65,-31.125,2.775,,adl
7.71048,-0.0665,-0.0382,0.2067,0.0993,0.0067,0.0002,-31.65,-31.125,2.775,,adl
7.715627,-0.0665,-0.0382,0.2067,0.0993,0.0067,0.0002,-31.65,-30.975,2.775,,adl
7.728111,-0.0665,-0.0382,0.2067,0.0993,0.0067,0.0002,-31.65,-30.975,2.775,,adl
7.730483,-0.0608,0.011,0.1283,0.0993,0.0067,0.0002,-31.65,-30.975,2.775,,adl
7.748443,-0.0608,0.011,0.1283,0.0993,0.0067,0.0002,-31.65,-30.975,2.775,,adl
7.750195,0.0044,0.0271,0.0109,0.0993,0.0067,0.0002,-31.65,-30.975,2.775,,adl
7.753034,0.0044,0.0271,0.0109,0.0783,0.0354,-0.0151,-31.65,-30.975,2.775,,adl
7.771344,0.0044,0.0271,0.0109,0.0783,0.0354,-0.0151,-31.65,-30.975,2.775,,adl
7.77266,0.0251,0.0337,-0.073,0.0783,0.0354,-0.0151,-31.65,-30.975,2.775,,adl
7.78464,0.0251,0.0337,-0.073,0.0783,0.0354,-0.0151,-31.95,-31.125,3.15,,adl
7.786379,0.0251,0.0337,-0.073,0.0783,0.0354,-0.0151,-31.95,-31.125,3.15,,adl
7.787313,0.0564,0.0616,0.0637,0.0783,0.0354,-0.0151,-31.95,-31.125,3.15,,adl
7.806386,0.0564,0.0616,0.0637,0.0783,0.0354,-0.0151,-31.95,-31.125,3.15,,adl
7.807816,0.0883,0.0892,0.1679,0.0783,0.0354,-0.0151,-31.95,-31.125,3.15,,adl
7.821114,0.0883,0.0892,0.1679,-0.0241,0.0348,0.0156,-31.95,-31.125,3.15,,adl
7.825864,0.0883,0.0892,0.1679,-0.0241,0.0348,0.0156,-31.95,-31.125,3.15,,adl
7.826822,0.0955,0.0821,0.1982,-0.0241,0.0348,0.0156,-31.95,-31.125,3.15,,adl
7.848078,0.0955,0.0821,0.1982,-0.0241,0.0348,0.0156,-31.95,-31.125,3.15,,adl
7.84988,0.0377,0.0552,0.142,-0.0241,0.0348,0.0156,-31.95,-31.125,3.15,,adl
7.854288,0.0377,0.0552,0.142,-0.0241,0.0348,0.0156,-31.65,-31.35,3.15,,adl
7.870024,0.0377,0.0552,0.142,-0.0241,0.0348,0.0156,-31.65,-31.35,3.15,,adl
7.871875,-0.0377,0.0176,-0.0404,-0.0241,0.0348,0.0156,-31.65,-31.35,3.15,,adl
7.889419,-0.0377,0.0176,-0.0404,-0.0241,0.0348,0.0156,-31.65,-31.35,3.15,,adl
7.890982,-0.0401,0.0289,0.1479,-0.0241,0.0348,0.0156,-31.65,-31.35,3.15,,adl
7.894159,-0.0401,0.0289,0.1479,-0.0596,0.038,0.0348,-31.65,-31.35,3.15,,adl
7.909846,-0.0401,0.0289,0.1479,-0.0596,0.038,0.0348,-31.65,-31.35,3.15,,adl
7.911895,-0.0415,0.0482,0.0515,-0.0596,0.038,0.0348,-31.65,-31.35,3.15,,adl
7.924309,-0.0415,0.0482,0.0515,-0.0596,0.038,0.0348,-31.65,-31.35,3.15,,adl
7.926524,-0.067,0.0197,0.1585,-0.0596,0.038,0.0348,-31.65,-31.35,3.15,,adl
7.928048,-0.067,0.0197,0.1585,-0.0596,0.038,0.0348,-31.425,-31.05,2.55,,adl
7.948446,-0.067,0.0197,0.1585,-0.0596,0.038,0.0348,-31.425,-31.05,2.55,,adl
7.95098,-0.1505,-0.0357,0.2709,-0.0596,0.038,0.0348,-31.425,-31.05,2.55,,adl
7.966845,-0.1505,-0.0357,0.2709,-0.0615,-0.026,-0.0053,-31.425,-31.05,2.55,,adl
7.969297,-0.1505,-0.0357,0.2709,-0.0615,-0.026,-0.0053,-31.425,-31.05,2.55,,adl
7.971248,-0.1408,-0.0921,0.2985,-0.0615,-0.026,-0.0053,-31.425,-31.05,2.55,,adl
7.987534,-0.1408,-0.0921,0.2985,-0.0615,-0.026,-0.0053,-31.425,-31.05,2.55,,adl
7.990221,-0.0349,-0.0973,0.1855,-0.0615,-0.026,-0.0053,-31.425,-31.05,2.55,,adl
7.99263,-0.0349,-0.0973,0.1855,-0.0615,-0.026,-0.0053,-30.975,-30.75,2.55,,adl
8.007216,-0.0349,-0.0973,0.1855,-0.0615,-0.026,-0.0053,-30.975,-30.75,2.55,,adl
8.010649,0.032,-0.0437,-0.001,-0.0615,-0.026,-0.0053,-30.975,-30.75,2.55,,adl
8.026549,0.032,-0.0437,-0.001,-0.0615,-0.026,-0.0053,-30.975,-30.75,2.55,,adl
8.028613,0.0341,0.0292,0.0182,-0.0615,-0.026,-0.0053,-30.975,-30.75,2.55,,adl
8.033858,0.0341,0.0292,0.0182,-0.0345,-0.0215,-0.0171,-30.975,-30.75,2.55,,adl
8.0471,0.0341,0.0292,0.0182,-0.0345,-0.0215,-0.0171,-30.975,-30.75,2.55,,adl
8.049473,0.0692,0.0822,0.2207,-0.0345,-0.0215,-0.0171,-30.975,-30.75,2.55,,adl
8.056366,0.0692,0.0822,0.2207,-0.0345,-0.0215,-0.0171,-30.9,-30.675,2.55,,adl
8.065755,0.0692,0.0822,0.2207,-0.0345,-0.0215,-0.0171,-30.9,-30.675,2.55,,adl
8.067392,0.0932,0.0954,0.3022,-0.0345,-0.0215,-0.0171,-30.9,-30.675,2.55,,adl
8.08574,0.0932,0.0954,0.3022,-0.0345,-0.0215,-0.0171,-30.9,-30.675,2.55,,adl
8.088909,-0.0057,0.0468,0.1117,-0.0345,-0.0215,-0.0171,-30.9,-30.675,2.55,,adl
8.103513,-0.0057,0.0468,0.1117,-0.0331,-0.0041,0.0066,-30.9,-30.675,2.55,,adl
8.106251,-0.0057,0.0468,0.1117,-0.0331,-0.0041,0.0066,-30.9,-30.675,2.55,,adl
8.107726,-0.0899,0.0557,0.0035,-0.0331,-0.0041,0.0066,-30.9,-30.675,2.55,,adl
8.130827,-0.0899,0.0557,0.0035,-0.0331,-0.0041,0.0066,-30.9,-30.675,2.55,,adl
8.135066,-0.0736,0.0717,0.0286,-0.0331,-0.0041,0.0066,-30.9,-30.675,2.55,,adl
8.137005,-0.0736,0.0717,0.0286,-0.0331,-0.0041,0.0066,-31.95,-30.825,2.85,,adl
8.149551,-0.0736,0.0717,0.0286,-0.0331,-0.0041,0.0066,-31.95,-30.825,2.85,,adl
8.153819,0.0646,0.0338,0.1901,-0.0331,-0.0041,0.0066,-31.95,-30.825,2.85,,adl
8.168908,0.0646,0.0338,0.1901,-0.0331,-0.0041,0.0066,-31.95,-30.825,2.85,,adl
8.170844,0.0952,-0.0187,0.2762,-0.0331,-0.0041,0.0066,-31.95,-30.825,2.85,,adl
8.174217,0.0952,-0.0187,0.2762,-0.0425,0.0145,0.0069,-31.95,-30.825,2.85,,adl
8.188925,0.0952,-0.0187,0.2762,-0.0425,0.0145,0.0069,-31.95,-30.825,2.85,,adl
8.190527,0.0013,-0.0425,0.1134,-0.0425,0.0145,0.0069,-31.95,-30.825,2.85,,adl
8.199044,0.0013,-0.0425,0.1134,-0.0425,0.0145,0.0069,-31.65,-30.75,2.55,,adl
8.207441,0.0013,-0.0425,0.1134,-0.0425,0.0145,0.0069,-31.65,-30.75,2.55,,adl
8.209132,-0.0403,-0.0524,0.0395,-0.0425,0.0145,0.0069,-31.65,-30.75,2.55,,adl
8.227239,-0.0403,-0.0524,0.0395,-0.0425,0.0145,0.0069,-31.65,-30.75,2.55,,adl
8.22951,0.0121,-0.0037,0.0087,-0.0425,0.0145,0.0069,-31.65,-30.75,2.55,,adl
8.24216,0.0121,-0.0037,0.0087,-0.0298,0.0105,-0.0008,-31.65,-30.75,2.55,,adl
8.248481,0.0121,-0.0037,0.0087,-0.0298,0.0105,-0.0008,-31.65,-30.75,2.55,,adl
8.250326,0.0618,0.0513,0.1303,-0.0298,0.0105,-0.0008,-31.65,-30.75,2.55,,adl
8.270143,0.0618,0.0513,0.1303,-0.0298,0.0105,-0.0008,-31.65,-30.75,2.55,,adl
8.271761,0.0494,0.0492,0.1673,-0.0298,0.0105,-0.0008,-31.65,-30.75,2.55,,adl
8.272867,0.0494,0.0492,0.1673,-0.0298,0.0105,-0.0008,-31.725,-30.225,2.85,,adl
8.285801,0.0494,0.0492,0.1673,-0.0298,0.0105,-0.0008,-31.725,-30.225,2.85,,adl
8.287761,0.0342,0.0834,0.065,-0.0298,0.0105,-0.0008,-31.725,-30.225,2.85,,adl
8.307163,0.0342,0.0834,0.065,-0.0298,0.0105,-0.0008,-31.725,-30.225,2.85,,adl
8.309091,-0.004,0.1435,0.0298,-0.0298,0.0105,-0.0008,-31.725,-30.225,2.85,,adl
8.310469,-0.004,0.1435,0.0298,-0.0185,-0.006,-0.0018,-31.725,-30.225,2.85,,adl
8.326572,-0.004,0.1435,0.0298,-0.0185,-0.006,-0.0018,-31.725,-30.225,2.85,,adl
8.328401,-0.0041,0.1418,0.0022,-0.0185,-0.006,-0.0018,-31.725,-30.225,2.85,,adl
8.335999,-0.0041,0.1418,0.0022,-0.0185,-0.006,-0.0018,-31.5,-30.975,2.475,,adl
8.346123,-0.0041,0.1418,0.0022,-0.0185,-0.006,-0.0018,-31.5,-30.975,2.475,,adl
8.347557,0.0287,0.0872,0.06,-0.0185,-0.006,-0.0018,-31.5,-30.975,2.475,,adl
8.361481,0.0287,0.0872,0.06,-0.0185,-0.006,-0.0018,-31.5,-30.975,2.475,,adl
8.363068,0.0228,0.0438,0.0885,-0.0185,-0.006,-0.0018,-31.5,-30.975,2.475,,adl
8.380585,0.0228,0.0438,0.0885,-0.0499,-0.0115,0.0038,-31.5,-30.975,2.475,,adl
8.386418,0.0228,0.0438,0.0885,-0.0499,-0.0115,0.0038,-31.5,-30.975,2.475,,adl
8.387825,-0.0016,0.0297,0.0771,-0.0499,-0.0115,0.0038,-31.5,-30.975,2.475,,adl
8.404093,-0.0016,0.0297,0.0771,-0.0499,-0.0115,0.0038,-31.5,-30.975,2.475,,adl
8.408658,-0.0384,0.0342,0.1282,-0.0499,-0.0115,0.0038,-31.5,-30.975,2.475,,adl
8.410904,-0.0384,0.0342,0.1282,-0.0499,-0.0115,0.0038,-31.5,-31.575,2.475,,adl
8.422899,-0.0384,0.0342,0.1282,-0.0499,-0.0115,0.0038,-31.5,-31.575,2.475,,adl
8.425807,-0.0248,0.0332,0.089,-0.0499,-0.0115,0.0038,-31.5,-31.575,2.475,,adl
8.442743,-0.0248,0.0332,0.089,-0.0499,-0.0115,0.0038,-31.5,-31.575,2.475,,adl
8.445843,-0.0013,0.0038,0.1184,-0.0499,-0.0115,0.0038,-31.5,-31.575,2.475,,adl
8.448676,-0.0013,0.0038,0.1184,-0.0545,0.0031,0.0032,-31.5,-31.575,2.475,,adl
8.460721,-0.0013,0.0038,0.1184,-0.0545,0.0031,0.0032,-31.5,-31.575,2.475,,adl
8.463297,0.0207,-0.0585,0.1653,-0.0545,0.0031,0.0032,-31.5,-31.575,2.475,,adl
8.474301,0.0207,-0.0585,0.1653,-0.0545,0.0031,0.0032,-32.175,-31.05,3.075,,adl
8.481951,0.0207,-0.0585,0.1653,-0.0545,0.0031,0.0032,-32.175,-31.05,3.075,,adl
8.484382,0.0081,-0.0662,0.2049,-0.0545,0.0031,0.0032,-32.175,-31.05,3.075,,adl
8.502065,0.0081,-0.0662,0.2049,-0.0545,0.0031,0.0032,-32.175,-31.05,3.075,,adl
8.505419,-0.0308,-0.0375,0.1453,-0.0545,0.0031,0.0032,-32.175,-31.05,3.075,,adl
8.520729,-0.0308,-0.0375,0.1453,-0.0246,0.0021,0.0079,-32.175,-31.05,3.075,,adl
8.525204,-0.0308,-0.0375,0.1453,-0.0246,0.0021,0.0079,-32.175,-31.05,3.075,,adl
8.526667,-0.0256,0.0486,0.0213,-0.0246,0.0021,0.0079,-32.175,-31.05,3.075,,adl
8.54554,-0.0256,0.0486,0.0213,-0.0246,0.0021,0.0079,-32.175,-31.05,3.075,,adl
8.548467,0.0146,0.1002,0.0282,-0.0246,0.0021,0.0079,-32.175,-31.05,3.075,,adl
8.550635,0.0146,0.1002,0.0282,-0.0246,0.0021,0.0079,-31.65,-31.65,2.25,,adl
8.560515,0.0146,0.1002,0.0282,-0.0246,0.0021,0.0079,-31.65,-31.65,2.25,,adl
8.562464,0.0051,0.1006,0.1118,-0.0246,0.0021,0.0079,-31.65,-31.65,2.25,,adl
8.584601,0.0051,0.1006,0.1118,-0.0246,0.0021,0.0079,-31.65,-31.65,2.25,,adl
8.587676,-0.0049,0.0933,0.1248,-0.0246,0.0021,0.0079,-31.65,-31.65,2.25,,adl
8.591327,-0.0049,0.0933,0.1248,-0.0134,-0.0081,0.0034,-31.65,-31.65,2.25,,adl
8.603967,-0.0049,0.0933,0.1248,-0.0134,-0.0081,0.0034,-31.65,-31.65,2.25,,adl
8.607408,-0.001,0.0616,0.1371,-0.0134,-0.0081,0.0034,-31.65,-31.65,2.25,,adl
8.614993,-0.001,0.0616,0.1371,-0.0134,-0.0081,0.0034,-31.05,-31.35,2.775,,adl
8.623559,-0.001,0.0616,0.1371,-0.0134,-0.0081,0.0034,-31.05,-31.35,2.775,,adl
8.625578,-0.0095,0.0001,-0.0836,-0.0134,-0.0081,0.0034,-31.05,-31.35,2.775,,adl
8.642815,-0.0095,0.0001,-0.0836,-0.0134,-0.0081,0.0034,-31.05,-31.35,2.775,,adl
8.645467,-0.0328,-0.0082,0.1792,-0.0134,-0.0081,0.0034,-31.05,-31.35,2.775,,adl
8.657782,-0.0328,-0.0082,0.1792,0.0055,0.018,-0.002,-31.05,-31.35,2.775,,adl
8.660401,-0.0328,-0.0082,0.1792,0.0055,0.018,-0.002,-31.05,-31.35,2.775,,adl
8.661829,-0.0696,0.0002,0.109,0.0055,0.018,-0.002,-31.05,-31.35,2.775,,adl
8.682516,-0.0696,0.0002,0.109,0.0055,0.018,-0.002,-31.05,-31.35,2.775,,adl
8.685029,-0.0069,0.0265,0.048,0.0055,0.018,-0.002,-31.05,-31.35,2.775,,adl
8.686484,-0.0069,0.0265,0.048,0.0055,0.018,-0.002,-32.25,-30.45,2.55,,adl
8.702013,-0.0069,0.0265,0.048,0.0055,0.018,-0.002,-32.25,-30.45,2.55,,adl
8.703955,-0.0115,0.0119,0.1185,0.0055,0.018,-0.002,-32.25,-30.45,2.55,,adl
8.721342,-0.0115,0.0119,0.1185,0.0055,0.018,-0.002,-32.25,-30.45,2.55,,adl
8.723325,0.0187,-0.0041,0.141,0.0055,0.018,-0.002,-32.25,-30.45,2.55,,adl
8.725816,0.0187,-0.0041,0.141,-0.0066,-0.0049,-0.0005,-32.25,-30.45,2.55,,adl
8.740687,0.0187,-0.0041,0.141,-0.0066,-0.0049,-0.0005,-32.25,-30.45,2.55,,adl
8.743306,0.0513,-0.0624,0.2751,-0.0066,-0.0049,-0.0005,-32.25,-30.45,2.55,,adl
8.754434,0.0513,-0.0624,0.2751,-0.0066,-0.0049,-0.0005,-32.175,-30.75,2.85,,adl
8.760047,0.0513,-0.0624,0.2751,-0.0066,-0.0049,-0.0005,-32.175,-30.75,2.85,,adl
8.761953,0.0259,-0.0546,0.166,-0.0066,-0.0049,-0.0005,-32.175,-30.75,2.85,,adl
8.779849,0.0259,-0.0546,0.166,-0.0066,-0.0049,-0.0005,-32.175,-30.75,2.85,,adl
8.78269,0.0004,0.0206,0.1064,-0.0066,-0.0049,-0.0005,-32.175,-30.75,2.85,,adl
8.803084,0.0004,0.0206,0.1064,0.0133,0.0052,-0.0006,-32.175,-30.75,2.85,,adl
8.805914,0.0004,0.0206,0.1064,0.0133,0.0052,-0.0006,-32.175,-30.75,2.85,,adl
8.807297,-0.0096,0.0892,0.0941,0.0133,0.0052,-0.0006,-32.175,-30.75,2.85,,adl
8.824654,-0.0096,0.0892,0.0941,0.0133,0.0052,-0.0006,-32.175,-30.75,2.85,,adl
8.827168,0.0377,0.0889,0.1688,0.0133,0.0052,-0.0006,-32.175,-30.75,2.85,,adl
8.829043,0.0377,0.0889,0.1688,0.0133,0.0052,-0.0006,-32.1,-30.45,2.55,,adl
8.843513,0.0377,0.0889,0.1688,0.0133,0.0052,-0.0006,-32.1,-30.45,2.55,,adl
8.845988,0.0439,0.0541,0.1533,0.0133,0.0052,-0.0006,-32.1,-30.45,2.55,,adl
8.860106,0.0439,0.0541,0.1533,0.0133,0.0052,-0.0006,-32.1,-30.45,2.55,,adl
8.863616,0.0284,0.0643,0.1258,0.0133,0.0052,-0.0006,-32.1,-30.45,2.55,,adl
8.86826,0.0284,0.0643,0.1258,0.0099,0.007,0.0005,-32.1,-30.45,2.55,,adl
8.885184,0.0284,0.0643,0.1258,0.0099,0.007,0.0005,-32.1,-30.45,2.55,,adl
8.887522,0.0105,0.0758,0.1751,0.0099,0.007,0.0005,-32.1,-30.45,2.55,,adl
8.894688,0.0105,0.0758,0.1751,0.0099,0.007,0.0005,-31.725,-31.125,2.025,,adl
8.902021,0.0105,0.0758,0.1751,0.0099,0.007,0.0005,-31.725,-31.125,2.025,,adl
8.903876,0.0364,0.0721,0.2874,0.0099,0.007,0.0005,-31.725,-31.125,2.025,,adl
8.921714,0.0364,0.0721,0.2874,0.0099,0.007,0.0005,-31.725,-31.125,2.025,,adl
8.924875,0.0854,0.0271,0.4822,0.0099,0.007,0.0005,-31.725,-31.125,2.025,,adl
8.936244,0.0854,0.0271,0.4822,0.0447,0.0171,0.0079,-31.725,-31.125,2.025,,adl
8.941093,0.0854,0.0271,0.4822,0.0447,0.0171,0.0079,-31.725,-31.125,2.025,,adl
8.943257,0.2018,0.0379,0.6082,0.0447,0.0171,0.0079,-31.725,-31.125,2.025,,adl
8.959793,0.2018,0.0379,0.6082,0.0447,0.0171,0.0079,-31.725,-31.125,2.025,,adl
8.961766,0.3221,0.099,-0.1874,0.0447,0.0171,0.0079,-31.725,-31.125,2.025,,adl
8.96855,0.3221,0.099,-0.1874,0.0447,0.0171,0.0079,-31.5,-31.05,2.325,,adl
8.980866,0.3221,0.099,-0.1874,0.0447,0.0171,0.0079,-31.5,-31.05,2.325,,adl
8.98279,0.1838,0.4418,0.3947,0.0447,0.0171,0.0079,-31.5,-31.05,2.325,,adl
9.001234,0.1838,0.4418,0.3947,0.0447,0.0171,0.0079,-31.5,-31.05,2.325,,adl
9.003356,-0.1658,0.241,0.4252,0.0447,0.0171,0.0079,-31.5,-31.05,2.325,,adl
9.005555,-0.1658,0.241,0.4252,0.3344,0.093,-0.0299,-31.5,-31.05,2.325,,adl
9.019687,-0.1658,0.241,0.4252,0.3344,0.093,-0.0299,-31.5,-31.05,2.325,,adl
9.022133,-0.25,-0.2857,-0.5114,0.3344,0.093,-0.0299,-31.5,-31.05,2.325,,adl
9.034796,-0.25,-0.2857,-0.5114,0.3344,0.093,-0.0299,-31.125,-30.825,3.15,,adl
9.044524,-0.25,-0.2857,-0.5114,0.3344,0.093,-0.0299,-31.125,-30.825,3.15,,adl
9.046302,-0.2241,-0.3949,-0.2843,0.3344,0.093,-0.0299,-31.125,-30.825,3.15,,adl
9.060706,-0.2241,-0.3949,-0.2843,0.3344,0.093,-0.0299,-31.125,-30.825,3.15,,adl
9.063715,-0.1332,-0.2837,0.1158,0.3344,0.093,-0.0299,-31.125,-30.825,3.15,,adl
9.078476,-0.1332,-0.2837,0.1158,0.2017,0.045,-0.0287,-31.125,-30.825,3.15,,adl
9.085576,-0.1332,-0.2837,0.1158,0.2017,0.045,-0.0287,-31.125,-30.825,3.15,,adl
9.087105,-0.0724,-0.366,-0.2404,0.2017,0.045,-0.0287,-31.125,-30.825,3.15,,adl
9.103284,-0.0724,-0.366,-0.2404,0.2017,0.045,-0.0287,-31.125,-30.825,3.15,,adl
9.106705,-0.1338,-0.2337,-0.2145,0.2017,0.045,-0.0287,-31.125,-30.825,3.15,,adl
9.10897,-0.1338,-0.2337,-0.2145,0.2017,0.045,-0.0287,-30.975,-30.75,3.525,,adl
9.12251,-0.1338,-0.2337,-0.2145,0.2017,0.045,-0.0287,-30.975,-30.75,3.525,,adl
9.125591,0.0092,0.0798,0.1311,0.2017,0.045,-0.0287,-30.975,-30.75,3.525,,adl
9.142258,0.0092,0.0798,0.1311,0.2017,0.045,-0.0287,-30.975,-30.75,3.525,,adl
9.144532,0.0314,0.1768,0.1519,0.2017,0.045,-0.0287,-30.975,-30.75,3.525,,adl
9.148775,0.0314,0.1768,0.1519,0.0063,-0.0421,-0.0238,-30.975,-30.75,3.525,,adl
9.160543,0.0314,0.1768,0.1519,0.0063,-0.0421,-0.0238,-30.975,-30.75,3.525,,adl
9.162716,-0.0326,0.0898,0.081,0.0063,-0.0421,-0.0238,-30.975,-30.75,3.525,,adl
9.175018,-0.0326,0.0898,0.081,0.0063,-0.0421,-0.0238,-31.725,-30.675,3.45,,adl
9.181174,-0.0326,0.0898,0.081,0.0063,-0.0421,-0.0238,-31.725,-30.675,3.45,,adl
9.182881,-0.0752,0.0259,0.3136,0.0063,-0.0421,-0.0238,-31.725,-30.675,3.45,,adl
9.201727,-0.0752,0.0259,0.3136,0.0063,-0.0421,-0.0238,-31.725,-30.675,3.45,,adl
9.204557,-0.0707,-0.0153,0.6597,0.0063,-0.0421,-0.0238,-31.725,-30.675,3.45,,adl
9.218159,-0.0707,-0.0153,0.6597,-0.0646,-0.0947,0.0211,-31.725,-30.675,3.45,,adl
9.221768,-0.0707,-0.0153,0.6597,-0.0646,-0.0947,0.0211,-31.725,-30.675,3.45,,adl
9.223471,0.2148,0.0105,0.2981,-0.0646,-0.0947,0.0211,-31.725,-30.675,3.45,,adl
9.239805,0.2148,0.0105,0.2981,-0.0646,-0.0947,0.0211,-31.725,-30.675,3.45,,adl
9.241763,0.347,0.3039,-0.2424,-0.0646,-0.0947,0.0211,-31.725,-30.675,3.45,,adl
9.244447,0.347,0.3039,-0.2424,-0.0646,-0.0947,0.0211,-32.175,-30.675,3.525,,adl
9.259249,0.347,0.3039,-0.2424,-0.0646,-0.0947,0.0211,-32.175,-30.675,3.525,,adl
9.261084,0.174,0.6442,-0.034,-0.0646,-0.0947,0.0211,-32.175,-30.675,3.525,,adl
9.278833,0.174,0.6442,-0.034,-0.0646,-0.0947,0.0211,-32.175,-30.675,3.525,,adl
9.28162,-0.0265,0.6247,0.1018,-0.0646,-0.0947,0.0211,-32.175,-30.675,3.525,,adl
9.284113,-0.0265,0.6247,0.1018,0.0591,0.0357,-0.0067,-32.175,-30.675,3.525,,adl
9.303053,-0.0265,0.6247,0.1018,0.0591,0.0357,-0.0067,-32.175,-30.675,3.525,,adl
9.305807,-0.1385,0.1576,-0.1289,0.0591,0.0357,-0.0067,-32.175,-30.675,3.525,,adl
9.319141,-0.1385,0.1576,-0.1289,0.0591,0.0357,-0.0067,-32.175,-30.675,3.525,,adl
9.321693,-0.0657,-0.2193,0.0954,0.0591,0.0357,-0.0067,-32.175,-30.675,3.525,,adl
9.323622,-0.0657,-0.2193,0.0954,0.0591,0.0357,-0.0067,-31.875,-30.825,3.45,,adl
9.337438,-0.0657,-0.2193,0.0954,0.0591,0.0357,-0.0067,-31.875,-30.825,3.45,,adl
9.33976,0.1553,-0.2732,0.4295,0.0591,0.0357,-0.0067,-31.875,-30.825,3.45,,adl
9.352076,0.1553,-0.2732,0.4295,0.1524,0.0997,-0.0104,-31.875,-30.825,3.45,,adl
9.357832,0.1553,-0.2732,0.4295,0.1524,0.0997,-0.0104,-31.875,-30.825,3.45,,adl
9.359807,0.1692,-0.0968,0.6127,0.1524,0.0997,-0.0104,-31.875,-30.825,3.45,,adl
9.376923,0.1692,-0.0968,0.6127,0.1524,0.0997,-0.0104,-31.875,-30.825,3.45,,adl
9.38073,0.0296,-0.0814,0.0161,0.1524,0.0997,-0.0104,-31.875,-30.825,3.45,,adl
9.385489,0.0296,-0.0814,0.0161,0.1524,0.0997,-0.0104,-30.9,-31.05,3.375,,adl
9.397924,0.0296,-0.0814,0.0161,0.1524,0.0997,-0.0104,-30.9,-31.05,3.375,,adl
9.400435,-0.2344,-0.1095,-0.3004,0.1524,0.0997,-0.0104,-30.9,-31.05,3.375,,adl
9.420965,-0.2344,-0.1095,-0.3004,0.1524,0.0997,-0.0104,-30.9,-31.05,3.375,,adl
9.423574,-0.4014,-0.0996,0.3256,0.1524,0.0997,-0.0104,-30.9,-31.05,3.375,,adl
9.425988,-0.4014,-0.0996,0.3256,0.0803,0.0556,-0.0171,-30.9,-31.05,3.375,,adl
9.440413,-0.4014,-0.0996,0.3256,0.0803,0.0556,-0.0171,-30.9,-31.05,3.375,,adl
9.442326,0.1085,0.076,0.3331,0.0803,0.0556,-0.0171,-30.9,-31.05,3.375,,adl
9.456455,0.1085,0.076,0.3331,0.0803,0.0556,-0.0171,-30.9,-31.05,3.375,,adl
9.45825,0.2428,0.1312,0.067,0.0803,0.0556,-0.0171,-30.9,-31.05,3.375,,adl
9.459678,0.2428,0.1312,0.067,0.0803,0.0556,-0.0171,-30.975,-31.05,3.15,,adl
9.480752,0.2428,0.1312,0.067,0.0803,0.0556,-0.0171,-30.975,-31.05,3.15,,adl
9.483348,0.0743,-0.0024,-0.4623,0.0803,0.0556,-0.0171,-30.975,-31.05,3.15,,adl
9.494356,0.0743,-0.0024,-0.4623,0.0159,-0.0089,-0.0322,-30.975,-31.05,3.15,,adl
9.501822,0.0743,-0.0024,-0.4623,0.0159,-0.0089,-0.0322,-30.975,-31.05,3.15,,adl
9.503626,-0.0736,-0.0932,-0.1912,0.0159,-0.0089,-0.0322,-30.975,-31.05,3.15,,adl
9.519145,-0.0736,-0.0932,-0.1912,0.0159,-0.0089,-0.0322,-30.975,-31.05,3.15,,adl
9.521745,-0.0838,-0.0525,0.4564,0.0159,-0.0089,-0.0322,-30.975,-31.05,3.15,,adl
9.524672,-0.0838,-0.0525,0.4564,0.0159,-0.0089,-0.0322,-31.275,-31.05,3.15,,adl
9.538241,-0.0838,-0.0525,0.4564,0.0159,-0.0089,-0.0322,-31.275,-31.05,3.15,,adl
9.540862,-0.0502,-0.0225,0.8067,0.0159,-0.0089,-0.0322,-31.275,-31.05,3.15,,adl
9.557484,-0.0502,-0.0225,0.8067,0.0159,-0.0089,-0.0322,-31.275,-31.05,3.15,,adl
9.560378,-0.0301,-0.0385,0.3994,0.0159,-0.0089,-0.0322,-31.275,-31.05,3.15,,adl
9.564218,-0.0301,-0.0385,0.3994,-0.1518,-0.0855,0.0163,-31.275,-31.05,3.15,,adl
9.576894,-0.0301,-0.0385,0.3994,-0.1518,-0.0855,0.0163,-31.275,-31.05,3.15,,adl
9.57937,-0.1326,-0.0262,0.0265,-0.1518,-0.0855,0.0163,-31.275,-31.05,3.15,,adl
9.594619,-0.1326,-0.0262,0.0265,-0.1518,-0.0855,0.0163,-31.275,-31.05,3.15,,adl
9.597143,-0.1823,-0.0542,0.1002,-0.1518,-0.0855,0.0163,-31.275,-31.05,3.15,,adl
9.599129,-0.1823,-0.0542,0.1002,-0.1518,-0.0855,0.0163,-31.275,-30.45,3.825,,adl
9.616366,-0.1823,-0.0542,0.1002,-0.1518,-0.0855,0.0163,-31.275,-30.45,3.825,,adl
9.619587,-0.1252,-0.0866,0.3051,-0.1518,-0.0855,0.0163,-31.275,-30.45,3.825,,adl
9.632432,-0.1252,-0.0866,0.3051,-0.0837,-0.1087,0.0321,-31.275,-30.45,3.825,,adl
9.636494,-0.1252,-0.0866,0.3051,-0.0837,-0.1087,0.0321,-31.275,-30.45,3.825,,adl
9.639661,0.011,-0.034,0.2494,-0.0837,-0.1087,0.0321,-31.275,-30.45,3.825,,adl
9.655686,0.011,-0.034,0.2494,-0.0837,-0.1087,0.0321,-31.275,-30.45,3.825,,adl
9.658198,0.0831,0.0902,0.4623,-0.0837,-0.1087,0.0321,-31.275,-30.45,3.825,,adl
9.660087,0.0831,0.0902,0.4623,-0.0837,-0.1087,0.0321,-31.5,-30.75,3.45,,adl
9.679722,0.0831,0.0902,0.4623,-0.0837,-0.1087,0.0321,-31.5,-30.75,3.45,,adl
9.682465,0.1574,0.0506,0.357,-0.0837,-0.1087,0.0321,-31.5,-30.75,3.45,,adl
9.700388,0.1574,0.0506,0.357,-0.0837,-0.1087,0.0321,-31.5,-30.75,3.45,,adl
9.703601,0.1217,-0.0121,0.1094,-0.0837,-0.1087,0.0321,-31.5,-30.75,3.45,,adl
9.70652,0.1217,-0.0121,0.1094,-0.0394,-0.004,0.0199,-31.5,-30.75,3.45,,adl
9.719489,0.1217,-0.0121,0.1094,-0.0394,-0.004,0.0199,-31.5,-30.75,3.45,,adl
9.724729,-0.0278,0.0628,-0.0356,-0.0394,-0.004,0.0199,-31.5,-30.75,3.45,,adl
9.735386,-0.0278,0.0628,-0.0356,-0.0394,-0.004,0.0199,-31.2,-31.05,3.675,,adl
9.738224,-0.0278,0.0628,-0.0356,-0.0394,-0.004,0.0199,-31.2,-31.05,3.675,,adl
9.739852,-0.0626,0.1346,-0.1407,-0.0394,-0.004,0.0199,-31.2,-31.05,3.675,,adl
9.757924,-0.0626,0.1346,-0.1407,-0.0394,-0.004,0.0199,-31.2,-31.05,3.675,,adl
9.760791,0.0355,0.2011,-0.1329,-0.0394,-0.004,0.0199,-31.2,-31.05,3.675,,adl
9.773409,0.0355,0.2011,-0.1329,-0.0725,0.0331,0.0145,-31.2,-31.05,3.675,,adl
9.7776,0.0355,0.2011,-0.1329,-0.0725,0.0331,0.0145,-31.2,-31.05,3.675,,adl
9.77939,0.0758,0.2394,0.1548,-0.0725,0.0331,0.0145,-31.2,-31.05,3.675,,adl
9.797584,0.0758,0.2394,0.1548,-0.0725,0.0331,0.0145,-31.2,-31.05,3.675,,adl
9.800093,0.1579,0.1555,0.1859,-0.0725,0.0331,0.0145,-31.2,-31.05,3.675,,adl
9.801672,0.1579,0.1555,0.1859,-0.0725,0.0331,0.0145,-31.725,-31.425,3.45,,adl
9.81726,0.1579,0.1555,0.1859,-0.0725,0.0331,0.0145,-31.725,-31.425,3.45,,adl
9.820296,0.129,0.0537,0.1208,-0.0725,0.0331,0.0145,-31.725,-31.425,3.45,,adl
9.837739,0.129,0.0537,0.1208,-0.0725,0.0331,0.0145,-31.725,-31.425,3.45,,adl
9.84092,0.0408,0.0369,0.1693,-0.0725,0.0331,0.0145,-31.725,-31.425,3.45,,adl
9.842909,0.0408,0.0369,0.1693,-0.0993,-0.0031,0.0115,-31.725,-31.425,3.45,,adl
9.856042,0.0408,0.0369,0.1693,-0.0993,-0.0031,0.0115,-31.725,-31.425,3.45,,adl
9.858483,-0.0168,0.03,0.0332,-0.0993,-0.0031,0.0115,-31.725,-31.425,3.45,,adl
9.868683,-0.0168,0.03,0.0332,-0.0993,-0.0031,0.0115,-31.65,-30.45,3.075,,adl
9.875405,-0.0168,0.03,0.0332,-0.0993,-0.0031,0.0115,-31.65,-30.45,3.075,,adl
9.877261,0.0047,0.0624,-0.0335,-0.0993,-0.0031,0.0115,-31.65,-30.45,3.075,,adl
9.895009,0.0047,0.0624,-0.0335,-0.0993,-0.0031,0.0115,-31.65,-30.45,3.075,,adl
9.897337,0.0259,0.1451,0.1555,-0.0993,-0.0031,0.0115,-31.65,-30.45,3.075,,adl
9.910066,0.0259,0.1451,0.1555,-0.1038,-0.0283,0.0026,-31.65,-30.45,3.075,,adl
9.913211,0.0259,0.1451,0.1555,-0.1038,-0.0283,0.0026,-31.65,-30.45,3.075,,adl
9.914832,-0.0057,0.1262,0.366,-0.1038,-0.0283,0.0026,-31.65,-30.45,3.075,,adl
9.938869,-0.0057,0.1262,0.366,-0.1038,-0.0283,0.0026,-31.65,-30.45,3.075,,adl
9.942237,0.007,0.0266,0.2471,-0.1038,-0.0283,0.0026,-31.65,-30.45,3.075,,adl
9.944671,0.007,0.0266,0.2471,-0.1038,-0.0283,0.0026,-31.275,-30.975,2.85,,adl
9.958669,0.007,0.0266,0.2471,-0.1038,-0.0283,0.0026,-31.275,-30.975,2.85,,adl
9.961118,-0.0324,0.0145,0.1648,-0.1038,-0.0283,0.0026,-31.275,-30.975,2.85,,adl
9.978032,-0.0324,0.0145,0.1648,-0.1038,-0.0283,0.0026,-31.275,-30.975,2.85,,adl
9.980406,-0.0685,0.0095,0.0215,-0.1038,-0.0283,0.0026,-31.275,-30.975,2.85,,adl
9.985178,-0.0685,0.0095,0.0215,0.0037,-0.0044,-0.0089,-31.275,-30.975,2.85,,adl
9.998736,-0.0685,0.0095,0.0215,0.0037,-0.0044,-0.0089,-31.275,-30.975,2.85,,adl
10.002081,-0.0233,0.0222,-0.0393,0.0037,-0.0044,-0.0089,-31.275,-30.975,2.85,,adl
10.007783,-0.0233,0.0222,-0.0393,0.0037,-0.0044,-0.0089,-31.35,-30.675,2.85,,adl
10.017014,-0.0233,0.0222,-0.0393,0.0037,-0.0044,-0.0089,-31.35,-30.675,2.85,,adl
10.018935,-0.0375,0.0908,0.1668,0.0037,-0.0044,-0.0089,-31.35,-30.675,2.85,,adl
10.037894,-0.0375,0.0908,0.1668,0.0037,-0.0044,-0.0089,-31.35,-30.675,2.85,,adl
10.040124,0.0318,0.1122,0.2299,0.0037,-0.0044,-0.0089,-31.35,-30.675,2.85,,adl
10.051395,0.0318,0.1122,0.2299,0.0026,0.0102,0.0008,-31.35,-30.675,2.85,,adl
10.056594,0.0318,0.1122,0.2299,0.0026,0.0102,0.0008,-31.35,-30.675,2.85,,adl
10.057806,0.0418,0.0324,0.0474,0.0026,0.0102,0.0008,-31.35,-30.675,2.85,,adl
10.076063,0.0418,0.0324,0.0474,0.0026,0.0102,0.0008,-31.35,-30.675,2.85,,adl
10.078564,-0.0672,-0.0192,0.1379,0.0026,0.0102,0.0008,-31.35,-30.675,2.85,,adl
10.07997,-0.0672,-0.0192,0.1379,0.0026,0.0102,0.0008,-31.8,-30.75,2.625,,adl
10.095232,-0.0672,-0.0192,0.1379,0.0026,0.0102,0.0008,-31.8,-30.75,2.625,,adl
10.097862,-0.0608,-0.0187,0.2093,0.0026,0.0102,0.0008,-31.8,-30.75,2.625,,adl
10.11084,-0.0608,-0.0187,0.2093,0.0026,0.0102,0.0008,-31.8,-30.75,2.625,,adl
10.113491,-0.0097,0.014,0.1741,0.0026,0.0102,0.0008,-31.8,-30.75,2.625,,adl
10.120047,-0.0097,0.014,0.1741,-0.0029,0.0005,0.0076,-31.8,-30.75,2.625,,adl
10.138027,-0.0097,0.014,0.1741,-0.0029,0.0005,0.0076,-31.8,-30.75,2.625,,adl
10.141623,0.0024,0.0655,0.1557,-0.0029,0.0005,0.0076,-31.8,-30.75,2.625,,adl
10.145107,0.0024,0.0655,0.1557,-0.0029,0.0005,0.0076,-31.65,-31.05,2.55,,adl
10.154868,0.0024,0.0655,0.1557,-0.0029,0.0005,0.0076,-31.65,-31.05,2.55,,adl
10.15678,-0.0384,0.0735,-0.1165,-0.0029,0.0005,0.0076,-31.65,-31.05,2.55,,adl
10.17366,-0.0384,0.0735,-0.1165,-0.0029,0.0005,0.0076,-31.65,-31.05,2.55,,adl
10.175458,-0.0865,0.068,0.249,-0.0029,0.0005,0.0076,-31.65,-31.05,2.55,,adl
10.18802,-0.0865,0.068,0.249,-0.035,0.0049,0.0053,-31.65,-31.05,2.55,,adl
10.193372,-0.0865,0.068,0.249,-0.035,0.0049,0.0053,-31.65,-31.05,2.55,,adl
10.195408,-0.0344,0.0288,0.1774,-0.035,0.0049,0.0053,-31.65,-31.05,2.55,,adl
10.209945,-0.0344,0.0288,0.1774,-0.035,0.0049,0.0053,-31.65,-31.05,2.55,,adl
10.213242,0.0316,0.0277,0.0814,-0.035,0.0049,0.0053,-31.65,-31.05,2.55,,adl
10.221337,0.0316,0.0277,0.0814,-0.035,0.0049,0.0053,-32.55,-30.675,2.85,,adl
10.232629,0.0316,0.0277,0.0814,-0.035,0.0049,0.0053,-32.55,-30.675,2.85,,adl
10.234941,0.0281,0.0469,0.1872,-0.035,0.0049,0.0053,-32.55,-30.675,2.85,,adl
10.251924,0.0281,0.0469,0.1872,-0.035,0.0049,0.0053,-32.55,-30.675,2.85,,adl
10.254294,0.1444,0.054,0.5527,-0.035,0.0049,0.0053,-32.55,-30.675,2.85,,adl
10.256952,0.1444,0.054,0.5527,-0.036,-0.0058,0.0057,-32.55,-30.675,2.85,,adl
10.27205,0.1444,0.054,0.5527,-0.036,-0.0058,0.0057,-32.55,-30.675,2.85,,adl
10.275101,0.1237,-0.0728,0.5985,-0.036,-0.0058,0.0057,-32.55,-30.675,2.85,,adl
10.284815,0.1237,-0.0728,0.5985,-0.036,-0.0058,0.0057,-31.95,-31.35,2.625,,adl
10.291234,0.1237,-0.0728,0.5985,-0.036,-0.0058,0.0057,-31.95,-31.35,2.625,,adl
10.293708,0.099,-0.2778,0.2259,-0.036,-0.0058,0.0057,-31.95,-31.35,2.625,,adl
10.310902,0.099,-0.2778,0.2259,-0.036,-0.0058,0.0057,-31.95,-31.35,2.625,,adl
10.314019,0.0354,-0.1971,0.1326,-0.036,-0.0058,0.0057,-31.95,-31.35,2.625,,adl
10.329981,0.0354,-0.1971,0.1326,0.0794,0.0371,-0.002,-31.95,-31.35,2.625,,adl
10.334594,0.0354,-0.1971,0.1326,0.0794,0.0371,-0.002,-31.95,-31.35,2.625,,adl
10.336258,-0.0353,0.1654,0.0349,0.0794,0.0371,-0.002,-31.95,-31.35,2.625,,adl
10.354655,-0.0353,0.1654,0.0349,0.0794,0.0371,-0.002,-31.95,-31.35,2.625,,adl
10.357098,-0.0304,0.4088,-0.0879,0.0794,0.0371,-0.002,-31.95,-31.35,2.625,,adl
10.358877,-0.0304,0.4088,-0.0879,0.0794,0.0371,-0.002,-31.35,-30.825,3.375,,adl
10.373644,-0.0304,0.4088,-0.0879,0.0794,0.0371,-0.002,-31.35,-30.825,3.375,,adl
10.375609,-0.032,0.3525,-0.0582,0.0794,0.0371,-0.002,-31.35,-30.825,3.375,,adl
10.394037,-0.032,0.3525,-0.0582,0.0794,0.0371,-0.002,-31.35,-30.825,3.375,,adl
10.397129,0.0084,0.0661,-0.0378,0.0794,0.0371,-0.002,-31.35,-30.825,3.375,,adl
10.399864,0.0084,0.0661,-0.0378,0.0363,0.0144,-0.005,-31.35,-30.825,3.375,,adl
10.410427,0.0084,0.0661,-0.0378,0.0363,0.0144,-0.005,-31.35,-30.825,3.375,,adl
10.412579,0.0335,-0.063,0.2131,0.0363,0.0144,-0.005,-31.35,-30.825,3.375,,adl
10.425164,0.0335,-0.063,0.2131,0.0363,0.0144,-0.005,-31.65,-31.125,2.55,,adl
10.432929,0.0335,-0.063,0.2131,0.0363,0.0144,-0.005,-31.65,-31.125,2.55,,adl
10.435227,0.0305,-0.0608,0.2426,0.0363,0.0144,-0.005,-31.65,-31.125,2.55,,adl
10.45281,0.0305,-0.0608,0.2426,0.0363,0.0144,-0.005,-31.65,-31.125,2.55,,adl
10.454932,-0.0391,-0.018,0.1464,0.0363,0.0144,-0.005,-31.65,-31.125,2.55,,adl
10.468898,-0.0391,-0.018,0.1464,0.0127,0.0221,0.0084,-31.65,-31.125,2.55,,adl
10.472363,-0.0391,-0.018,0.1464,0.0127,0.0221,0.0084,-31.65,-31.125,2.55,,adl
10.47396,-0.0444,0.0375,0.1503,0.0127,0.0221,0.0084,-31.65,-31.125,2.55,,adl
10.491333,-0.0444,0.0375,0.1503,0.0127,0.0221,0.0084,-31.65,-31.125,2.55,,adl
10.493701,0.0118,0.0684,0.0642,0.0127,0.0221,0.0084,-31.65,-31.125,2.55,,adl
10.495039,0.0118,0.0684,0.0642,0.0127,0.0221,0.0084,-31.65,-30.75,3.075,,adl
10.510397,0.0118,0.0684,0.0642,0.0127,0.0221,0.0084,-31.65,-30.75,3.075,,adl
10.512373,-0.0136,0.1235,0.0776,0.0127,0.0221,0.0084,-31.65,-30.75,3.075,,adl
10.531548,-0.0136,0.1235,0.0776,0.0127,0.0221,0.0084,-31.65,-30.75,3.075,,adl
10.534427,-0.0189,0.0772,0.1706,0.0127,0.0221,0.0084,-31.65,-30.75,3.075,,adl
10.536815,-0.0189,0.0772,0.1706,-0.015,0.0067,-0.0044,-31.65,-30.75,3.075,,adl
10.553634,-0.0189,0.0772,0.1706,-0.015,0.0067,-0.0044,-31.65,-30.75,3.075,,adl
10.55676,0.0136,-0.0322,0.2453,-0.015,0.0067,-0.0044,-31.65,-30.75,3.075,,adl
10.570004,0.0136,-0.0322,0.2453,-0.015,0.0067,-0.0044,-31.575,-31.05,3.225,,adl
10.572877,0.0136,-0.0322,0.2453,-0.015,0.0067,-0.0044,-31.575,-31.05,3.225,,adl
10.574196,0.0084,-0.0756,0.2974,-0.015,0.0067,-0.0044,-31.575,-31.05,3.225,,adl
10.589969,0.0084,-0.0756,0.2974,-0.015,0.0067,-0.0044,-31.575,-31.05,3.225,,adl
10.592246,-0.0168,-0.0114,0.2839,-0.015,0.0067,-0.0044,-31.575,-31.05,3.225,,adl
10.609727,-0.0168,-0.0114,0.2839,0.0076,0.0017,-0.0012,-31.575,-31.05,3.225,,adl
10.61089,-0.0168,-0.0114,0.2839,0.0076,0.0017,-0.0012,-31.575,-31.05,3.225,,adl
10.611665,0.0188,0.0633,0.0444,0.0076,0.0017,-0.0012,-31.575,-31.05,3.225,,adl
10.635165,0.0188,0.0633,0.0444,0.0076,0.0017,-0.0012,-31.575,-31.05,3.225,,adl
10.636833,0.0331,0.1167,0.0443,0.0076,0.0017,-0.0012,-31.575,-31.05,3.225,,adl
10.637782,0.0331,0.1167,0.0443,0.0076,0.0017,-0.0012,-32.175,-30.75,3.225,,adl
10.653051,0.0331,0.1167,0.0443,0.0076,0.0017,-0.0012,-32.175,-30.75,3.225,,adl
10.653993,-0.001,0.1121,0.1337,0.0076,0.0017,-0.0012,-32.175,-30.75,3.225,,adl
10.672799,-0.001,0.1121,0.1337,0.0076,0.0017,-0.0012,-32.175,-30.75,3.225,,adl
10.67403,0.0001,0.0626,0.2599,0.0076,0.0017,-0.0012,-32.175,-30.75,3.225,,adl
10.678295,0.0001,0.0626,0.2599,-0.0295,-0.013,-0.0006,-32.175,-30.75,3.225,,adl
10.693847,0.0001,0.0626,0.2599,-0.0295,-0.013,-0.0006,-32.175,-30.75,3.225,,adl
10.695381,0.0516,0.0315,0.2951,-0.0295,-0.013,-0.0006,-32.175,-30.75,3.225,,adl
10.705368,0.0516,0.0315,0.2951,-0.0295,-0.013,-0.0006,-31.05,-30.825,2.85,,adl
10.711226,0.0516,0.0315,0.2951,-0.0295,-0.013,-0.0006,-31.05,-30.825,2.85,,adl
10.712644,0.0609,0.0039,0.1933,-0.0295,-0.013,-0.0006,-31.05,-30.825,2.85,,adl
10.732279,0.0609,0.0039,0.1933,-0.0295,-0.013,-0.0006,-31.05,-30.825,2.85,,adl
10.734089,0.0181,-0.0157,0.0865,-0.0295,-0.013,-0.0006,-31.05,-30.825,2.85,,adl
10.746734,0.0181,-0.0157,0.0865,-0.0029,-0.0034,-0.0017,-31.05,-30.825,2.85,,adl
10.751887,0.0181,-0.0157,0.0865,-0.0029,-0.0034,-0.0017,-31.05,-30.825,2.85,,adl
10.753579,-0.016,0.0128,0.109,-0.0029,-0.0034,-0.0017,-31.05,-30.825,2.85,,adl
10.77186,-0.016,0.0128,0.109,-0.0029,-0.0034,-0.0017,-31.05,-30.825,2.85,,adl
10.773458,-0.0119,0.0565,0.1707,-0.0029,-0.0034,-0.0017,-31.05,-30.825,2.85,,adl
10.777206,-0.0119,0.0565,0.1707,-0.0029,-0.0034,-0.0017,-32.625,-30.75,2.625,,adl
10.79028,-0.0119,0.0565,0.1707,-0.0029,-0.0034,-0.0017,-32.625,-30.75,2.625,,adl
10.792403,-0.0082,0.0731,0.1459,-0.0029,-0.0034,-0.0017,-32.625,-30.75,2.625,,adl
10.809868,-0.0082,0.0731,0.1459,-0.0029,-0.0034,-0.0017,-32.625,-30.75,2.625,,adl
10.812708,-0.039,0.0618,0.1848,-0.0029,-0.0034,-0.0017,-32.625,-30.75,2.625,,adl
10.817012,-0.039,0.0618,0.1848,-0.0148,0.0044,-0.0003,-32.625,-30.75,2.625,,adl
10.832097,-0.039,0.0618,0.1848,-0.0148,0.0044,-0.0003,-32.625,-30.75,2.625,,adl
10.835824,-0.0156,0.0343,0.1577,-0.0148,0.0044,-0.0003,-32.625,-30.75,2.625,,adl
10.844979,-0.0156,0.0343,0.1577,-0.0148,0.0044,-0.0003,-31.5,-30.75,2.625,,adl
10.847376,-0.0156,0.0343,0.1577,-0.0148,0.0044,-0.0003,-31.5,-30.75,2.625,,adl
10.849674,0.0158,0.0289,0.1486,-0.0148,0.0044,-0.0003,-31.5,-30.75,2.625,,adl
10.872985,0.0158,0.0289,0.1486,-0.0148,0.0044,-0.0003,-31.5,-30.75,2.625,,adl
10.875213,-0.0211,0.0218,0.0893,-0.0148,0.0044,-0.0003,-31.5,-30.75,2.625,,adl
10.887817,-0.0211,0.0218,0.0893,-0.0266,0.0168,-0.0011,-31.5,-30.75,2.625,,adl
10.892672,-0.0211,0.0218,0.0893,-0.0266,0.0168,-0.0011,-31.5,-30.75,2.625,,adl
10.894209,-0.0393,0.0484,0.1431,-0.0266,0.0168,-0.0011,-31.5,-30.75,2.625,,adl
10.910273,-0.0393,0.0484,0.1431,-0.0266,0.0168,-0.0011,-31.5,-30.75,2.625,,adl
10.912083,0.0227,0.0756,0.1402,-0.0266,0.0168,-0.0011,-31.5,-30.75,2.625,,adl
10.919993,0.0227,0.0756,0.1402,-0.0266,0.0168,-0.0011,-31.65,-30.825,2.925,,adl
10.934175,0.0227,0.0756,0.1402,-0.0266,0.0168,-0.0011,-31.65,-30.825,2.925,,adl
10.93665,0.0658,0.0806,0.2466,-0.0266,0.0168,-0.0011,-31.65,-30.825,2.925,,adl
10.951482,0.0658,0.0806,0.2466,-0.0266,0.0168,-0.0011,-31.65,-30.825,2.925,,adl
10.953996,0.0501,0.0312,0.1114,-0.0266,0.0168,-0.0011,-31.65,-30.825,2.925,,adl
10.955995,0.0501,0.0312,0.1114,-0.0269,0.0052,0.0023,-31.65,-30.825,2.925,,adl
10.970751,0.0501,0.0312,0.1114,-0.0269,0.0052,0.0023,-31.65,-30.825,2.925,,adl
10.97318,0.0044,0.029,0.2819,-0.0269,0.0052,0.0023,-31.65,-30.825,2.925,,adl
10.984486,0.0044,0.029,0.2819,-0.0269,0.0052,0.0023,-32.1,-31.05,2.55,,adl
10.990847,0.0044,0.029,0.2819,-0.0269,0.0052,0.0023,-32.1,-31.05,2.55,,adl
10.992466,-0.0531,0.0475,0.1733,-0.0269,0.0052,0.0023,-32.1,-31.05,2.55,,adl
11.010475,-0.0531,0.0475,0.1733,-0.0269,0.0052,0.0023,-32.1,-31.05,2.55,,adl
11.01265,0.009,0.0756,0.0319,-0.0269,0.0052,0.0023,-32.1,-31.05,2.55,,adl
11.024656,0.009,0.0756,0.0319,0.0053,0.0357,0.0014,-32.1,-31.05,2.55,,adl
11.035589,0.009,0.0756,0.0319,0.0053,0.0357,0.0014,-32.1,-31.05,2.55,,adl
11.037666,0.0046,0.0879,0.1009,0.0053,0.0357,0.0014,-32.1,-31.05,2.55,,adl
11.049717,0.0046,0.0879,0.1009,0.0053,0.0357,0.0014,-32.1,-31.05,2.55,,adl
11.051949,-0.0137,0.051,0.1913,0.0053,0.0357,0.0014,-32.1,-31.05,2.55,,adl
11.054328,-0.0137,0.051,0.1913,0.0053,0.0357,0.0014,-32.1,-31.05,2.625,,adl
11.069172,-0.0137,0.051,0.1913,0.0053,0.0357,0.0014,-32.1,-31.05,2.625,,adl
11.071249,0.0328,-0.0329,0.3669,0.0053,0.0357,0.0014,-32.1,-31.05,2.625,,adl
11.08902,0.0328,-0.0329,0.3669,0.0053,0.0357,0.0014,-32.1,-31.05,2.625,,adl
11.091213,0.0135,-0.0776,0.2617,0.0053,0.0357,0.0014,-32.1,-31.05,2.625,,adl
11.09316,0.0135,-0.0776,0.2617,0.0139,-0.0102,-0.0027,-32.1,-31.05,2.625,,adl
11.107977,0.0135,-0.0776,0.2617,0.0139,-0.0102,-0.0027,-32.1,-31.05,2.625,,adl
11.110637,-0.0154,-0.0093,0.1331,0.0139,-0.0102,-0.0027,-32.1,-31.05,2.625,,adl
11.124784,-0.0154,-0.0093,0.1331,0.0139,-0.0102,-0.0027,-32.1,-31.05,2.625,,adl
11.12745,-0.011,0.0963,0.0647,0.0139,-0.0102,-0.0027,-32.1,-31.05,2.625,,adl
11.12904,-0.011,0.0963,0.0647,0.0139,-0.0102,-0.0027,-31.35,-31.05,3.15,,adl
11.147123,-0.011,0.0963,0.0647,0.0139,-0.0102,-0.0027,-31.35,-31.05,3.15,,adl
11.150298,0.043,0.1514,0.1685,0.0139,-0.0102,-0.0027,-31.35,-31.05,3.15,,adl
11.161379,0.043,0.1514,0.1685,0.0212,-0.0053,-0.0055,-31.35,-31.05,3.15,,adl
11.166513,0.043,0.1514,0.1685,0.0212,-0.0053,-0.0055,-31.35,-31.05,3.15,,adl
11.168725,0.0767,0.0875,0.2096,0.0212,-0.0053,-0.0055,-31.35,-31.05,3.15,,adl
11.186024,0.0767,0.0875,0.2096,0.0212,-0.0053,-0.0055,-31.35,-31.05,3.15,,adl
11.188673,0.0295,0.0376,0.136,0.0212,-0.0053,-0.0055,-31.35,-31.05,3.15,,adl
11.194305,0.0295,0.0376,0.136,0.0212,-0.0053,-0.0055,-31.425,-30.75,2.25,,adl
11.211598,0.0295,0.0376,0.136,0.0212,-0.0053,-0.0055,-31.425,-30.75,2.25,,adl
11.215861,-0.0228,0.0605,0.1061,0.0212,-0.0053,-0.0055,-31.425,-30.75,2.25,,adl
11.239571,-0.0228,0.0605,0.1061,0.0212,-0.0053,-0.0055,-31.425,-30.75,2.25,,adl
11.242531,-0.0084,0.071,0.1457,0.0212,-0.0053,-0.0055,-31.425,-30.75,2.25,,adl
11.245589,-0.0084,0.071,0.1457,0.0128,-0.0063,-0.0034,-31.425,-30.75,2.25,,adl
11.250968,-0.0084,0.071,0.1457,0.0128,-0.0063,-0.0034,-31.425,-30.75,2.25,,adl
11.253384,0.0048,0.0316,0.2274,0.0128,-0.0063,-0.0034,-31.425,-30.75,2.25,,adl
11.269282,0.0048,0.0316,0.2274,0.0128,-0.0063,-0.0034,-31.8,-30.675,2.775,,adl
11.271812,0.0048,0.0316,0.2274,0.0128,-0.0063,-0.0034,-31.8,-30.675,2.775,,adl
11.27357,0.0102,-0.0093,0.2447,0.0128,-0.0063,-0.0034,-31.8,-30.675,2.775,,adl
11.28957,0.0102,-0.0093,0.2447,0.0128,-0.0063,-0.0034,-31.8,-30.675,2.775,,adl
11.291589,-0.0262,0.0084,0.1065,0.0128,-0.0063,-0.0034,-31.8,-30.675,2.775,,adl
11.30334,-0.0262,0.0084,0.1065,0.0125,-0.0029,0.002,-31.8,-30.675,2.775,,adl
11.312045,-0.0262,0.0084,0.1065,0.0125,-0.0029,0.002,-31.8,-30.675,2.775,,adl
11.313596,0.0109,0.0474,0.0266,0.0125,-0.0029,0.002,-31.8,-30.675,2.775,,adl
11.328435,0.0109,0.0474,0.0266,0.0125,-0.0029,0.002,-31.8,-30.675,2.775,,adl
11.330285,0.0092,0.0543,0.0705,0.0125,-0.0029,0.002,-31.8,-30.675,2.775,,adl
11.333973,0.0092,0.0543,0.0705,0.0125,-0.0029,0.002,-31.65,-30.675,2.85,,adl
11.347776,0.0092,0.0543,0.0705,0.0125,-0.0029,0.002,-31.65,-30.675,2.85,,adl
11.350666,0.0072,0.0042,0.2943,0.0125,-0.0029,0.002,-31.65,-30.675,2.85,,adl
11.366926,0.0072,0.0042,0.2943,0.0125,-0.0029,0.002,-31.65,-30.675,2.85,,adl
11.369385,0.0113,-0.0176,0.3003,0.0125,-0.0029,0.002,-31.65,-30.675,2.85,,adl
11.371666,0.0113,-0.0176,0.3003,-0.0305,-0.0063,0.0015,-31.65,-30.675,2.85,,adl
11.386308,0.0113,-0.0176,0.3003,-0.0305,-0.0063,0.0015,-31.65,-30.675,2.85,,adl
11.388404,-0.0356,0.0326,0.21,-0.0305,-0.0063,0.0015,-31.65,-30.675,2.85,,adl
11.40168,-0.0356,0.0326,0.21,-0.0305,-0.0063,0.0015,-32.1,-30.675,2.55,,adl
11.405758,-0.0356,0.0326,0.21,-0.0305,-0.0063,0.0015,-32.1,-30.675,2.55,,adl
11.407205,-0.014,0.0788,0.1279,-0.0305,-0.0063,0.0015,-32.1,-30.675,2.55,,adl
11.425515,-0.014,0.0788,0.1279,-0.0305,-0.0063,0.0015,-32.1,-30.675,2.55,,adl
11.428384,0.0342,0.0643,0.0654,-0.0305,-0.0063,0.0015,-32.1,-30.675,2.55,,adl
11.440516,0.0342,0.0643,0.0654,-0.0137,-0.0003,-0.0011,-32.1,-30.675,2.55,,adl
11.445088,0.0342,0.0643,0.0654,-0.0137,-0.0003,-0.0011,-32.1,-30.675,2.55,,adl
11.446668,0.0411,0.0672,0.142,-0.0137,-0.0003,-0.0011,-32.1,-30.675,2.55,,adl
11.460654,0.0411,0.0672,0.142,-0.0137,-0.0003,-0.0011,-32.1,-30.675,2.55,,adl
11.46303,0.0263,0.0722,0.2004,-0.0137,-0.0003,-0.0011,-32.1,-30.675,2.55,,adl
11.470447,0.0263,0.0722,0.2004,-0.0137,-0.0003,-0.0011,-31.65,-30.225,2.25,,adl
11.489242,0.0263,0.0722,0.2004,-0.0137,-0.0003,-0.0011,-31.65,-30.225,2.25,,adl
11.491552,0.008,0.0674,0.2439,-0.0137,-0.0003,-0.0011,-31.65,-30.225,2.25,,adl
11.509233,0.008,0.0674,0.2439,-0.0137,-0.0003,-0.0011,-31.65,-30.225,2.25,,adl
11.511409,0.0084,0.0346,0.1414,-0.0137,-0.0003,-0.0011,-31.65,-30.225,2.25,,adl
11.513125,0.0084,0.0346,0.1414,-0.0134,0.0043,0.0002,-31.65,-30.225,2.25,,adl
11.528768,0.0084,0.0346,0.1414,-0.0134,0.0043,0.0002,-31.65,-30.225,2.25,,adl
11.53141,0.0236,0.0131,0.0804,-0.0134,0.0043,0.0002,-31.65,-30.225,2.25,,adl
11.538549,0.0236,0.0131,0.0804,-0.0134,0.0043,0.0002,-32.475,-31.35,1.95,,adl
11.549931,0.0236,0.0131,0.0804,-0.0134,0.0043,0.0002,-32.475,-31.35,1.95,,adl
11.552583,0.0084,0.0266,0.163,-0.0134,0.0043,0.0002,-32.475,-31.35,1.95,,adl
11.569042,0.0084,0.0266,0.163,-0.0134,0.0043,0.0002,-32.475,-31.35,1.95,,adl
11.573146,0.014,0.0333,0.2754,-0.0134,0.0043,0.0002,-32.475,-31.35,1.95,,adl
11.584808,0.014,0.0333,0.2754,-0.009,-0.0024,-0.0049,-32.475,-31.35,1.95,,adl
11.590067,0.014,0.0333,0.2754,-0.009,-0.0024,-0.0049,-32.475,-31.35,1.95,,adl
11.591808,-0.0205,0.027,0.1711,-0.009,-0.0024,-0.0049,-32.475,-31.35,1.95,,adl
11.606806,-0.0205,0.027,0.1711,-0.009,-0.0024,-0.0049,-32.475,-31.35,1.95,,adl
11.609332,-0.0209,0.061,0.0922,-0.009,-0.0024,-0.0049,-32.475,-31.35,1.95,,adl
11.611213,-0.0209,0.061,0.0922,-0.009,-0.0024,-0.0049,-32.25,-31.05,2.775,,adl
11.626312,-0.0209,0.061,0.0922,-0.009,-0.0024,-0.0049,-32.25,-31.05,2.775,,adl
11.629431,-0.0026,0.0839,0.097,-0.009,-0.0024,-0.0049,-32.25,-31.05,2.775,,adl
11.645782,-0.0026,0.0839,0.097,-0.009,-0.0024,-0.0049,-32.25,-31.05,2.775,,adl
11.649037,0.0064,0.0668,0.1067,-0.009,-0.0024,-0.0049,-32.25,-31.05,2.775,,adl
11.651121,0.0064,0.0668,0.1067,-0.0173,-0.0105,-0.0014,-32.25,-31.05,2.775,,adl
11.660102,0.0064,0.0668,0.1067,-0.0173,-0.0105,-0.0014,-32.25,-31.05,2.775,,adl
11.66246,0.0285,0.0569,0.1719,-0.0173,-0.0105,-0.0014,-32.25,-31.05,2.775,,adl
11.675118,0.0285,0.0569,0.1719,-0.0173,-0.0105,-0.0014,-31.575,-30.45,2.775,,adl
11.686426,0.0285,0.0569,0.1719,-0.0173,-0.0105,-0.0014,-31.575,-30.45,2.775,,adl
11.688465,0.0194,0.0529,0.1835,-0.0173,-0.0105,-0.0014,-31.575,-30.45,2.775,,adl
11.704589,0.0194,0.0529,0.1835,-0.0173,-0.0105,-0.0014,-31.575,-30.45,2.775,,adl
11.707636,-0.0053,0.0704,0.164,-0.0173,-0.0105,-0.0014,-31.575,-30.45,2.775,,adl
11.724711,-0.0053,0.0704,0.164,-0.0195,-0.0133,-0.0018,-31.575,-30.45,2.775,,adl
11.729001,-0.0053,0.0704,0.164,-0.0195,-0.0133,-0.0018,-31.575,-30.45,2.775,,adl
11.730709,0.0121,0.0512,0.1229,-0.0195,-0.0133,-0.0018,-31.575,-30.45,2.775,,adl
11.748838,0.0121,0.0512,0.1229,-0.0195,-0.0133,-0.0018,-31.575,-30.45,2.775,,adl
11.751871,-0.0306,0.0271,0.0108,-0.0195,-0.0133,-0.0018,-31.575,-30.45,2.775,,adl
11.753986,-0.0306,0.0271,0.0108,-0.0195,-0.0133,-0.0018,-31.5,-30.75,2.85,,adl
11.77012,-0.0306,0.0271,0.0108,-0.0195,-0.0133,-0.0018,-31.5,-30.75,2.85,,adl
11.772895,-0.0604,0.0491,0.3189,-0.0195,-0.0133,-0.0018,-31.5,-30.75,2.85,,adl
11.787601,-0.0604,0.0491,0.3189,-0.0195,-0.0133,-0.0018,-31.5,-30.75,2.85,,adl
11.790874,-0.0246,0.0693,0.1318,-0.0195,-0.0133,-0.0018,-31.5,-30.75,2.85,,adl
11.792939,-0.0246,0.0693,0.1318,-0.0362,-0.0012,-0.0035,-31.5,-30.75,2.85,,adl
11.807403,-0.0246,0.0693,0.1318,-0.0362,-0.0012,-0.0035,-31.5,-30.75,2.85,,adl
11.810885,0.0164,0.0701,0.1059,-0.0362,-0.0012,-0.0035,-31.5,-30.75,2.85,,adl
11.819151,0.0164,0.0701,0.1059,-0.0362,-0.0012,-0.0035,-31.8,-30.975,0.975,,adl
11.826922,0.0164,0.0701,0.1059,-0.0362,-0.0012,-0.0035,-31.8,-30.975,0.975,,adl
11.828745,-0.0091,0.0436,0.1621,-0.0362,-0.0012,-0.0035,-31.8,-30.975,0.975,,adl
11.847114,-0.0091,0.0436,0.1621,-0.0362,-0.0012,-0.0035,-31.8,-30.975,0.975,,adl
11.849819,0.0112,0.0183,0.2336,-0.0362,-0.0012,-0.0035,-31.8,-30.975,0.975,,adl
11.860885,0.0112,0.0183,0.2336,-0.0313,-0.0298,-0.002,-31.8,-30.975,0.975,,adl
11.870174,0.0112,0.0183,0.2336,-0.0313,-0.0298,-0.002,-31.8,-30.975,0.975,,adl
11.871949,0.0551,-0.0291,0.3012,-0.0313,-0.0298,-0.002,-31.8,-30.975,0.975,,adl
11.88638,0.0551,-0.0291,0.3012,-0.0313,-0.0298,-0.002,-32.25,-30.675,2.85,,adl
11.8903,0.0551,-0.0291,0.3012,-0.0313,-0.0298,-0.002,-32.25,-30.675,2.85,,adl
11.891863,0.0382,-0.0467,0.2214,-0.0313,-0.0298,-0.002,-32.25,-30.675,2.85,,adl
11.905084,0.0382,-0.0467,0.2214,-0.0313,-0.0298,-0.002,-32.25,-30.675,2.85,,adl
11.90804,0.0126,0.0179,0.1065,-0.0313,-0.0298,-0.002,-32.25,-30.675,2.85,,adl
11.924608,0.0126,0.0179,0.1065,-0.0313,-0.0298,-0.002,-32.25,-30.675,2.85,,adl
11.92704,-0.0192,0.0978,0.0653,-0.0313,-0.0298,-0.002,-32.25,-30.675,2.85,,adl
11.934694,-0.0192,0.0978,0.0653,-0.0144,-0.022,-0.0017,-32.25,-30.675,2.85,,adl
11.943619,-0.0192,0.0978,0.0653,-0.0144,-0.022,-0.0017,-32.25,-30.675,2.85,,adl
11.945519,-0.0209,0.1379,0.1439,-0.0144,-0.022,-0.0017,-32.25,-30.675,2.85,,adl
11.954412,-0.0209,0.1379,0.1439,-0.0144,-0.022,-0.0017,-32.25,-30.825,2.025,,adl
