time,ax,ay,az,wx,wy,wz,Bx,By,Bz,Unnamed: 10,label
0.059822,0.0,0.0,0.0,0.0,0.0,0.0,0.0,0.0,0.0,,adl
0.07688,0.0,0.0,0.0,0.0,0.0,0.0,0.0,0.0,0.0,,adl
0.079244,0.0,0.0,0.0,0.0,0.0,0.0,-13.8,8.325,-41.85,,adl
0.100119,0.0,0.0,0.0,0.0,0.0,0.0,-13.8,8.325,-41.85,,adl
0.101821,-0.0018,0.0093,-0.0201,0.0,0.0,0.0,-13.8,8.325,-41.85,,adl
0.119357,-0.0018,0.0093,-0.0201,0.0,0.0,0.0,-13.8,8.325,-41.85,,adl
0.121119,-0.0215,0.0418,-0.0101,0.0,0.0,0.0,-13.8,8.325,-41.85,,adl
0.122672,-0.0215,0.0418,-0.0101,0.0279,0.0223,-0.014,-13.8,8.325,-41.85,,adl
0.142765,-0.0215,0.0418,-0.0101,0.0279,0.0223,-0.014,-13.8,8.325,-41.85,,adl
0.145831,0.0411,0.0661,-0.0016,0.0279,0.0223,-0.014,-13.8,8.325,-41.85,,adl
0.14854,0.0411,0.0661,-0.0016,0.0279,0.0223,-0.014,-14.55,7.425,-42.45,,adl
0.159364,0.0411,0.0661,-0.0016,0.0279,0.0223,-0.014,-14.55,7.425,-42.45,,adl
0.161625,0.1339,0.1251,-0.3288,0.0279,0.0223,-0.014,-14.55,7.425,-42.45,,adl
0.176819,0.1339,0.1251,-0.3288,0.0279,0.0223,-0.014,-14.55,7.425,-42.45,,adl
0.178988,0.0189,0.1195,0.2316,0.0279,0.0223,-0.014,-14.55,7.425,-42.45,,adl
0.190344,0.0189,0.1195,0.2316,-0.0003,0.0257,-0.0229,-14.55,7.425,-42.45,,adl
0.195204,0.0189,0.1195,0.2316,-0.0003,0.0257,-0.0229,-14.55,7.425,-42.45,,adl
0.196594,0.1453,-0.0825,0.3003,-0.0003,0.0257,-0.0229,-14.55,7.425,-42.45,,adl
0.214993,0.1453,-0.0825,0.3003,-0.0003,0.0257,-0.0229,-14.55,7.425,-42.45,,adl
0.217931,0.056,0.0481,-0.3462,-0.0003,0.0257,-0.0229,-14.55,7.425,-42.45,,adl
0.220079,0.056,0.0481,-0.3462,-0.0003,0.0257,-0.0229,-14.85,8.175,-42.0,,adl
0.23803,0.056,0.0481,-0.3462,-0.0003,0.0257,-0.0229,-14.85,8.175,-42.0,,adl
0.240496,-0.0085,0.1315,0.1607,-0.0003,0.0257,-0.0229,-14.85,8.175,-42.0,,adl
0.257707,-0.0085,0.1315,0.1607,-0.0003,0.0257,-0.0229,-14.85,8.175,-42.0,,adl
0.259895,0.0719,0.0233,0.1853,-0.0003,0.0257,-0.0229,-14.85,8.175,-42.0,,adl
0.261675,0.0719,0.0233,0.1853,-0.004,0.0654,-0.0408,-14.85,8.175,-42.0,,adl
0.274186,0.0719,0.0233,0.1853,-0.004,0.0654,-0.0408,-14.85,8.175,-42.0,,adl
0.27659,0.1905,0.0076,0.1426,-0.004,0.0654,-0.0408,-14.85,8.175,-42.0,,adl
0.287936,0.1905,0.0076,0.1426,-0.004,0.0654,-0.0408,-14.925,8.625,-42.15,,adl
0.294989,0.1905,0.0076,0.1426,-0.004,0.0654,-0.0408,-14.925,8.625,-42.15,,adl
0.296119,0.1515,0.0401,0.112,-0.004,0.0654,-0.0408,-14.925,8.625,-42.15,,adl
0.318819,0.1515,0.0401,0.112,-0.004,0.0654,-0.0408,-14.925,8.625,-42.15,,adl
0.32043,-0.0338,0.0635,0.1077,-0.004,0.0654,-0.0408,-14.925,8.625,-42.15,,adl
0.333711,-0.0338,0.0635,0.1077,-0.015,0.1301,-0.0493,-14.925,8.625,-42.15,,adl
0.340482,-0.0338,0.0635,0.1077,-0.015,0.1301,-0.0493,-14.925,8.625,-42.15,,adl
0.342024,-0.0677,0.2072,0.0141,-0.015,0.1301,-0.0493,-14.925,8.625,-42.15,,adl
0.357616,-0.0677,0.2072,0.0141,-0.015,0.1301,-0.0493,-14.925,8.625,-42.15,,adl
0.35937,0.0147,0.1595,0.0532,-0.015,0.1301,-0.0493,-14.925,8.625,-42.15,,adl
0.360999,0.0147,0.1595,0.0532,-0.015,0.1301,-0.0493,-14.4,8.4,-41.625,,adl
0.377732,0.0147,0.1595,0.0532,-0.015,0.1301,-0.0493,-14.4,8.4,-41.625,,adl
0.378952,-0.02,0.061,0.0767,-0.015,0.1301,-0.0493,-14.4,8.4,-41.625,,adl
0.397183,-0.02,0.061,0.0767,-0.015,0.1301,-0.0493,-14.4,8.4,-41.625,,adl
0.399327,-0.0062,0.0262,0.1865,-0.015,0.1301,-0.0493,-14.4,8.4,-41.625,,adl
0.401135,-0.0062,0.0262,0.1865,-0.0547,0.1617,-0.0608,-14.4,8.4,-41.625,,adl
0.415468,-0.0062,0.0262,0.1865,-0.0547,0.1617,-0.0608,-14.4,8.4,-41.625,,adl
0.418054,0.0484,-0.0307,0.2543,-0.0547,0.1617,-0.0608,-14.4,8.4,-41.625,,adl
0.427133,0.0484,-0.0307,0.2543,-0.0547,0.1617,-0.0608,-13.65,7.5,-42.525,,adl
0.435456,0.0484,-0.0307,0.2543,-0.0547,0.1617,-0.0608,-13.65,7.5,-42.525,,adl
0.43766,0.0688,-0.0792,0.2102,-0.0547,0.1617,-0.0608,-13.65,7.5,-42.525,,adl
0.455756,0.0688,-0.0792,0.2102,-0.0547,0.1617,-0.0608,-13.65,7.5,-42.525,,adl
0.45891,0.0563,0.0436,0.1333,-0.0547,0.1617,-0.0608,-13.65,7.5,-42.525,,adl
0.471916,0.0563,0.0436,0.1333,-0.042,0.1956,-0.0814,-13.65,7.5,-42.525,,adl
0.47437,0.0563,0.0436,0.1333,-0.042,0.1956,-0.0814,-13.65,7.5,-42.525,,adl
0.475777,-0.0029,0.1204,-0.0077,-0.042,0.1956,-0.0814,-13.65,7.5,-42.525,,adl
0.494159,-0.0029,0.1204,-0.0077,-0.042,0.1956,-0.0814,-13.65,7.5,-42.525,,adl
0.496783,-0.0728,0.1413,-0.0806,-0.042,0.1956,-0.0814,-13.65,7.5,-42.525,,adl
0.49854,-0.0728,0.1413,-0.0806,-0.042,0.1956,-0.0814,-13.65,7.95,-41.925,,adl
0.513781,-0.0728,0.1413,-0.0806,-0.042,0.1956,-0.0814,-13.65,7.95,-41.925,,adl
0.516593,-0.1605,0.1329,-0.0491,-0.042,0.1956,-0.0814,-13.65,7.95,-41.925,,adl
0.537155,-0.1605,0.1329,-0.0491,-0.042,0.1956,-0.0814,-13.65,7.95,-41.925,,adl
0.539714,-0.2192,0.01,-0.0036,-0.042,0.1956,-0.0814,-13.65,7.95,-41.925,,adl
0.541614,-0.2192,0.01,-0.0036,-0.0556,0.1552,-0.0883,-13.65,7.95,-41.925,,adl
0.547967,-0.2192,0.01,-0.0036,-0.0556,0.1552,-0.0883,-13.65,7.95,-41.925,,adl
0.549748,-0.0874,0.0259,-0.0555,-0.0556,0.1552,-0.0883,-13.65,7.95,-41.925,,adl
0.567555,-0.0874,0.0259,-0.0555,-0.0556,0.1552,-0.0883,-13.65,7.95,-41.925,,adl
0.57029,0.0171,0.0374,-0.0264,-0.0556,0.1552,-0.0883,-13.65,7.95,-41.925,,adl
0.571874,0.0171,0.0374,-0.0264,-0.0556,0.1552,-0.0883,-13.5,8.325,-42.825,,adl
0.597421,0.0171,0.0374,-0.0264,-0.0556,0.1552,-0.0883,-13.5,8.325,-42.825,,adl
0.600041,-0.0846,0.0524,-0.017,-0.0556,0.1552,-0.0883,-13.5,8.325,-42.825,,adl
0.611658,-0.0846,0.0524,-0.017,-0.0603,0.1048,-0.0863,-13.5,8.325,-42.825,,adl
0.617653,-0.0846,0.0524,-0.017,-0.0603,0.1048,-0.0863,-13.5,8.325,-42.825,,adl
0.619363,-0.1888,0.1423,-0.0309,-0.0603,0.1048,-0.0863,-13.5,8.325,-42.825,,adl
0.637656,-0.1888,0.1423,-0.0309,-0.0603,0.1048,-0.0863,-13.5,8.325,-42.825,,adl
0.641502,-0.2056,0.1694,-0.0622,-0.0603,0.1048,-0.0863,-13.5,8.325,-42.825,,adl
0.643435,-0.2056,0.1694,-0.0622,-0.0603,0.1048,-0.0863,-12.75,8.775,-42.45,,adl
0.656315,-0.2056,0.1694,-0.0622,-0.0603,0.1048,-0.0863,-12.75,8.775,-42.45,,adl
0.65787,-0.0529,0.0999,-0.0661,-0.0603,0.1048,-0.0863,-12.75,8.775,-42.45,,adl
0.675535,-0.0529,0.0999,-0.0661,-0.0603,0.1048,-0.0863,-12.75,8.775,-42.45,,adl
0.677639,0.1259,0.027,0.0314,-0.0603,0.1048,-0.0863,-12.75,8.775,-42.45,,adl
0.680927,0.1259,0.027,0.0314,-0.0493,0.0518,-0.0797,-12.75,8.775,-42.45,,adl
0.695634,0.1259,0.027,0.0314,-0.0493,0.0518,-0.0797,-12.75,8.775,-42.45,,adl
0.69717,0.0236,-0.0057,0.1168,-0.0493,0.0518,-0.0797,-12.75,8.775,-42.45,,adl
0.707632,0.0236,-0.0057,0.1168,-0.0493,0.0518,-0.0797,-12.6,8.55,-42.375,,adl
0.715333,0.0236,-0.0057,0.1168,-0.0493,0.0518,-0.0797,-12.6,8.55,-42.375,,adl
0.71775,-0.2742,-0.0304,0.0915,-0.0493,0.0518,-0.0797,-12.6,8.55,-42.375,,adl
0.73481,-0.2742,-0.0304,0.0915,-0.0493,0.0518,-0.0797,-12.6,8.55,-42.375,,adl
0.737602,-0.3162,-0.0509,0.0747,-0.0493,0.0518,-0.0797,-12.6,8.55,-42.375,,adl
0.748046,-0.3162,-0.0509,0.0747,-0.0493,0.0518,-0.0797,-12.6,8.55,-42.375,,adl
0.749609,-0.0503,0.0426,0.1672,-0.0493,0.0518,-0.0797,-12.6,8.55,-42.375,,adl
0.75093,-0.0503,0.0426,0.1672,0.0027,0.067,-0.0927,-12.6,8.55,-42.375,,adl
0.772746,-0.0503,0.0426,0.1672,0.0027,0.067,-0.0927,-12.6,8.55,-42.375,,adl
0.775413,0.2388,0.0988,0.0423,0.0027,0.067,-0.0927,-12.6,8.55,-42.375,,adl
0.778054,0.2388,0.0988,0.0423,0.0027,0.067,-0.0927,-12.75,8.625,-42.975,,adl
0.793126,0.2388,0.0988,0.0423,0.0027,0.067,-0.0927,-12.75,8.625,-42.975,,adl
0.795257,0.3611,0.1513,-0.2262,0.0027,0.067,-0.0927,-12.75,8.625,-42.975,,adl
0.813044,0.3611,0.1513,-0.2262,0.0027,0.067,-0.0927,-12.75,8.625,-42.975,,adl
0.816335,0.2274,0.0612,0.224,0.0027,0.067,-0.0927,-12.75,8.625,-42.975,,adl
0.818317,0.2274,0.0612,0.224,-0.0046,0.0773,-0.0741,-12.75,8.625,-42.975,,adl
0.836629,0.2274,0.0612,0.224,-0.0046,0.0773,-0.0741,-12.75,8.625,-42.975,,adl
0.838757,0.3391,-0.0886,0.2167,-0.0046,0.0773,-0.0741,-12.75,8.625,-42.975,,adl
0.847099,0.3391,-0.0886,0.2167,-0.0046,0.0773,-0.0741,-12.15,7.575,-43.05,,adl
0.856777,0.3391,-0.0886,0.2167,-0.0046,0.0773,-0.0741,-12.15,7.575,-43.05,,adl
0.859539,0.2709,0.056,-0.2772,-0.0046,0.0773,-0.0741,-12.15,7.575,-43.05,,adl
0.875673,0.2709,0.056,-0.2772,-0.0046,0.0773,-0.0741,-12.15,7.575,-43.05,,adl
0.878156,0.2147,0.0627,0.215,-0.0046,0.0773,-0.0741,-12.15,7.575,-43.05,,adl
0.889845,0.2147,0.0627,0.215,-0.0011,0.1106,-0.1138,-12.15,7.575,-43.05,,adl
0.894663,0.2147,0.0627,0.215,-0.0011,0.1106,-0.1138,-12.15,7.575,-43.05,,adl
0.895944,0.1916,-0.0414,0.1941,-0.0011,0.1106,-0.1138,-12.15,7.575,-43.05,,adl
0.915168,0.1916,-0.0414,0.1941,-0.0011,0.1106,-0.1138,-12.15,7.575,-43.05,,adl
0.916496,0.1778,0.027,0.0549,-0.0011,0.1106,-0.1138,-12.15,7.575,-43.05,,adl
0.917804,0.1778,0.027,0.0549,-0.0011,0.1106,-0.1138,-11.55,7.8,-42.975,,adl
0.93516,0.1778,0.027,0.0549,-0.0011,0.1106,-0.1138,-11.55,7.8,-42.975,,adl
0.93669,0.1745,0.0562,-0.011,-0.0011,0.1106,-0.1138,-11.55,7.8,-42.975,,adl
0.954748,0.1745,0.0562,-0.011,-0.0011,0.1106,-0.1138,-11.55,7.8,-42.975,,adl
0.956372,0.1321,0.0535,0.0311,-0.0011,0.1106,-0.1138,-11.55,7.8,-42.975,,adl
0.959983,0.1321,0.0535,0.0311,0.0119,0.1245,-0.0903,-11.55,7.8,-42.975,,adl
0.97484,0.1321,0.0535,0.0311,0.0119,0.1245,-0.0903,-11.55,7.8,-42.975,,adl
0.975957,0.094,0.0505,-0.0407,0.0119,0.1245,-0.0903,-11.55,7.8,-42.975,,adl
0.98856,0.094,0.0505,-0.0407,0.0119,0.1245,-0.0903,-11.85,7.65,-43.05,,adl
0.994174,0.094,0.0505,-0.0407,0.0119,0.1245,-0.0903,-11.85,7.65,-43.05,,adl
0.995619,0.0672,0.0703,-0.0868,0.0119,0.1245,-0.0903,-11.85,7.65,-43.05,,adl
1.014348,0.0672,0.0703,-0.0868,0.0119,0.1245,-0.0903,-11.85,7.65,-43.05,,adl
1.016091,0.0842,0.0222,0.0317,0.0119,0.1245,-0.0903,-11.85,7.65,-43.05,,adl
1.027107,0.0842,0.0222,0.0317,-0.0125,0.0747,-0.0512,-11.85,7.65,-43.05,,adl
1.038124,0.0842,0.0222,0.0317,-0.0125,0.0747,-0.0512,-11.85,7.65,-43.05,,adl
1.040077,0.1286,0.0311,-0.1514,-0.0125,0.0747,-0.0512,-11.85,7.65,-43.05,,adl
1.047737,0.1286,0.0311,-0.1514,-0.0125,0.0747,-0.0512,-11.85,7.65,-43.05,,adl
1.049345,0.1745,0.0527,-0.0262,-0.0125,0.0747,-0.0512,-11.85,7.65,-43.05,,adl
1.057918,0.1745,0.0527,-0.0262,-0.0125,0.0747,-0.0512,-11.55,7.8,-43.425,,adl
1.070876,0.1745,0.0527,-0.0262,-0.0125,0.0747,-0.0512,-11.55,7.8,-43.425,,adl
1.072596,0.1586,-0.0278,-0.0791,-0.0125,0.0747,-0.0512,-11.55,7.8,-43.425,,adl
1.09102,0.1586,-0.0278,-0.0791,-0.0125,0.0747,-0.0512,-11.55,7.8,-43.425,,adl
1.093618,0.1445,0.0094,-0.079,-0.0125,0.0747,-0.0512,-11.55,7.8,-43.425,,adl
1.095249,0.1445,0.0094,-0.079,-0.0411,0.0053,-0.016,-11.55,7.8,-43.425,,adl
1.110469,0.1445,0.0094,-0.079,-0.0411,0.0053,-0.016,-11.55,7.8,-43.425,,adl
1.11274,0.2233,0.1096,-0.1464,-0.0411,0.0053,-0.016,-11.55,7.8,-43.425,,adl
1.127226,0.2233,0.1096,-0.1464,-0.0411,0.0053,-0.016,-11.55,7.8,-43.425,,adl
1.130304,0.352,-0.0082,-0.0599,-0.0411,0.0053,-0.016,-11.55,7.8,-43.425,,adl
1.132344,0.352,-0.0082,-0.0599,-0.0411,0.0053,-0.016,-11.25,7.65,-43.125,,adl
1.147949,0.352,-0.0082,-0.0599,-0.0411,0.0053,-0.016,-11.25,7.65,-43.125,,adl
1.150179,0.422,-0.1103,0.045,-0.0411,0.0053,-0.016,-11.25,7.65,-43.125,,adl
1.168851,0.422,-0.1103,0.045,-0.0273,-0.0241,0.0162,-11.25,7.65,-43.125,,adl
1.173665,0.422,-0.1103,0.045,-0.0273,-0.0241,0.0162,-11.25,7.65,-43.125,,adl
1.175112,0.434,0.0027,0.0122,-0.0273,-0.0241,0.0162,-11.25,7.65,-43.125,,adl
1.193541,0.434,0.0027,0.0122,-0.0273,-0.0241,0.0162,-11.25,7.65,-43.125,,adl
1.195578,0.3109,0.1291,-0.0465,-0.0273,-0.0241,0.0162,-11.25,7.65,-43.125,,adl
1.198364,0.3109,0.1291,-0.0465,-0.0273,-0.0241,0.0162,-11.625,7.875,-43.05,,adl
1.212945,0.3109,0.1291,-0.0465,-0.0273,-0.0241,0.0162,-11.625,7.875,-43.05,,adl
1.216025,0.2124,0.1601,-0.1085,-0.0273,-0.0241,0.0162,-11.625,7.875,-43.05,,adl
1.233513,0.2124,0.1601,-0.1085,-0.0273,-0.0241,0.0162,-11.625,7.875,-43.05,,adl
1.23689,0.1391,0.0915,-0.1223,-0.0273,-0.0241,0.0162,-11.625,7.875,-43.05,,adl
1.238734,0.1391,0.0915,-0.1223,0.0018,-0.0564,0.0235,-11.625,7.875,-43.05,,adl
1.24788,0.1391,0.0915,-0.1223,0.0018,-0.0564,0.0235,-11.625,7.875,-43.05,,adl
1.249688,0.1241,-0.0223,-0.0151,0.0018,-0.0564,0.0235,-11.625,7.875,-43.05,,adl
1.268279,0.1241,-0.0223,-0.0151,0.0018,-0.0564,0.0235,-11.625,7.875,-43.05,,adl
1.270506,0.1531,-0.0338,0.0224,0.0018,-0.0564,0.0235,-11.625,7.875,-43.05,,adl
1.272072,0.1531,-0.0338,0.0224,0.0018,-0.0564,0.0235,-11.7,7.8,-43.2,,adl
1.291321,0.1531,-0.0338,0.0224,0.0018,-0.0564,0.0235,-11.7,7.8,-43.2,,adl
1.293869,0.1125,0.0315,-0.032,0.0018,-0.0564,0.0235,-11.7,7.8,-43.2,,adl
1.305728,0.1125,0.0315,-0.032,0.0156,-0.0363,0.047,-11.7,7.8,-43.2,,adl
1.310775,0.1125,0.0315,-0.032,0.0156,-0.0363,0.047,-11.7,7.8,-43.2,,adl
1.312454,0.0463,0.0809,-0.0658,0.0156,-0.0363,0.047,-11.7,7.8,-43.2,,adl
1.330133,0.0463,0.0809,-0.0658,0.0156,-0.0363,0.047,-11.7,7.8,-43.2,,adl
1.332615,-0.007,0.0595,-0.0827,0.0156,-0.0363,0.047,-11.7,7.8,-43.2,,adl
1.341887,-0.007,0.0595,-0.0827,0.0156,-0.0363,0.047,-11.7,8.175,-43.275,,adl
1.348286,-0.007,0.0595,-0.0827,0.0156,-0.0363,0.047,-11.7,8.175,-43.275,,adl
1.350334,-0.039,0.0713,-0.1524,0.0156,-0.0363,0.047,-11.7,8.175,-43.275,,adl
1.370185,-0.039,0.0713,-0.1524,0.0156,-0.0363,0.047,-11.7,8.175,-43.275,,adl
1.372799,-0.0394,0.056,-0.1556,0.0156,-0.0363,0.047,-11.7,8.175,-43.275,,adl
1.374504,-0.0394,0.056,-0.1556,0.0235,0.0082,0.0512,-11.7,8.175,-43.275,,adl
1.389216,-0.0394,0.056,-0.1556,0.0235,0.0082,0.0512,-11.7,8.175,-43.275,,adl
1.391221,-0.0227,0.0092,-0.0332,0.0235,0.0082,0.0512,-11.7,8.175,-43.275,,adl
1.407447,-0.0227,0.0092,-0.0332,0.0235,0.0082,0.0512,-11.7,8.175,-43.275,,adl
1.410017,-0.0319,-0.0127,-0.023,0.0235,0.0082,0.0512,-11.7,8.175,-43.275,,adl
1.411756,-0.0319,-0.0127,-0.023,0.0235,0.0082,0.0512,-12.15,8.025,-43.275,,adl
1.433854,-0.0319,-0.0127,-0.023,0.0235,0.0082,0.0512,-12.15,8.025,-43.275,,adl
1.436338,-0.0709,0.0202,-0.2444,0.0235,0.0082,0.0512,-12.15,8.025,-43.275,,adl
1.447491,-0.0709,0.0202,-0.2444,-0.0046,0.0536,0.0475,-12.15,8.025,-43.275,,adl
1.449581,-0.0709,0.0202,-0.2444,-0.0046,0.0536,0.0475,-12.15,8.025,-43.275,,adl
1.450958,-0.1037,0.0637,0.2084,-0.0046,0.0536,0.0475,-12.15,8.025,-43.275,,adl
1.472103,-0.1037,0.0637,0.2084,-0.0046,0.0536,0.0475,-12.15,8.025,-43.275,,adl
1.474526,-0.0621,0.0306,-0.0349,-0.0046,0.0536,0.0475,-12.15,8.025,-43.275,,adl
1.476699,-0.0621,0.0306,-0.0349,-0.0046,0.0536,0.0475,-11.85,7.725,-43.875,,adl
1.491707,-0.0621,0.0306,-0.0349,-0.0046,0.0536,0.0475,-11.85,7.725,-43.875,,adl
1.494239,-0.1249,0.0404,-0.2062,-0.0046,0.0536,0.0475,-11.85,7.725,-43.875,,adl
1.510727,-0.1249,0.0404,-0.2062,-0.0046,0.0536,0.0475,-11.85,7.725,-43.875,,adl
1.512825,-0.1713,0.0177,0.3163,-0.0046,0.0536,0.0475,-11.85,7.725,-43.875,,adl
1.522094,-0.1713,0.0177,0.3163,-0.009,0.0918,0.0264,-11.85,7.725,-43.875,,adl
1.531006,-0.1713,0.0177,0.3163,-0.009,0.0918,0.0264,-11.85,7.725,-43.875,,adl
1.533139,-0.1682,-0.077,0.0264,-0.009,0.0918,0.0264,-11.85,7.725,-43.875,,adl
1.541117,-0.1682,-0.077,0.0264,-0.009,0.0918,0.0264,-11.625,7.8,-43.425,,adl
1.547491,-0.1682,-0.077,0.0264,-0.009,0.0918,0.0264,-11.625,7.8,-43.425,,adl
1.549174,-0.1041,0.0073,-0.0059,-0.009,0.0918,0.0264,-11.625,7.8,-43.425,,adl
1.569652,-0.1041,0.0073,-0.0059,-0.009,0.0918,0.0264,-11.625,7.8,-43.425,,adl
1.571393,-0.034,0.0964,-0.0043,-0.009,0.0918,0.0264,-11.625,7.8,-43.425,,adl
1.591722,-0.034,0.0964,-0.0043,0.0118,0.0875,0.0278,-11.625,7.8,-43.425,,adl
1.594502,-0.034,0.0964,-0.0043,0.0118,0.0875,0.0278,-11.625,7.8,-43.425,,adl
1.596088,-0.0105,0.1216,-0.037,0.0118,0.0875,0.0278,-11.625,7.8,-43.425,,adl
1.609493,-0.0105,0.1216,-0.037,0.0118,0.0875,0.0278,-11.625,7.8,-43.425,,adl
1.611858,0.0083,0.0812,-0.054,0.0118,0.0875,0.0278,-11.625,7.8,-43.425,,adl
1.614135,0.0083,0.0812,-0.054,0.0118,0.0875,0.0278,-10.95,8.325,-42.975,,adl
1.6282,0.0083,0.0812,-0.054,0.0118,0.0875,0.0278,-10.95,8.325,-42.975,,adl
1.630621,0.0634,0.0505,-0.0168,0.0118,0.0875,0.0278,-10.95,8.325,-42.975,,adl
1.648006,0.0634,0.0505,-0.0168,0.0118,0.0875,0.0278,-10.95,8.325,-42.975,,adl
1.650328,0.1816,0.1267,0.1846,0.0118,0.0875,0.0278,-10.95,8.325,-42.975,,adl
1.657822,0.1816,0.1267,0.1846,-0.0237,0.0883,0.0359,-10.95,8.325,-42.975,,adl
1.672326,0.1816,0.1267,0.1846,-0.0237,0.0883,0.0359,-10.95,8.325,-42.975,,adl
1.674305,0.3675,0.0784,-0.0147,-0.0237,0.0883,0.0359,-10.95,8.325,-42.975,,adl
1.688366,0.3675,0.0784,-0.0147,-0.0237,0.0883,0.0359,-10.8,8.475,-42.975,,adl
1.692531,0.3675,0.0784,-0.0147,-0.0237,0.0883,0.0359,-10.8,8.475,-42.975,,adl
1.693932,0.3689,0.0922,0.149,-0.0237,0.0883,0.0359,-10.8,8.475,-42.975,,adl
1.711774,0.3689,0.0922,0.149,-0.0237,0.0883,0.0359,-10.8,8.475,-42.975,,adl
1.714038,0.359,0.0399,0.2731,-0.0237,0.0883,0.0359,-10.8,8.475,-42.975,,adl
1.726963,0.359,0.0399,0.2731,-0.0098,0.0702,0.0221,-10.8,8.475,-42.975,,adl
1.731397,0.359,0.0399,0.2731,-0.0098,0.0702,0.0221,-10.8,8.475,-42.975,,adl
1.733063,0.313,-0.0372,0.356,-0.0098,0.0702,0.0221,-10.8,8.475,-42.975,,adl
1.747831,0.313,-0.0372,0.356,-0.0098,0.0702,0.0221,-10.8,8.475,-42.975,,adl
1.749886,0.2282,-0.046,0.3217,-0.0098,0.0702,0.0221,-10.8,8.475,-42.975,,adl
1.754566,0.2282,-0.046,0.3217,-0.0098,0.0702,0.0221,-10.725,8.4,-43.8,,adl
1.771395,0.2282,-0.046,0.3217,-0.0098,0.0702,0.0221,-10.725,8.4,-43.8,,adl
1.774051,0.2478,0.0297,0.2788,-0.0098,0.0702,0.0221,-10.725,8.4,-43.8,,adl
1.789986,0.2478,0.0297,0.2788,-0.0098,0.0702,0.0221,-10.725,8.4,-43.8,,adl
1.792896,0.2892,0.1321,0.1817,-0.0098,0.0702,0.0221,-10.725,8.4,-43.8,,adl
1.795912,0.2892,0.1321,0.1817,0.0599,0.0127,0.042,-10.725,8.4,-43.8,,adl
1.809907,0.2892,0.1321,0.1817,0.0599,0.0127,0.042,-10.725,8.4,-43.8,,adl
1.812248,0.2437,0.1163,0.0396,0.0599,0.0127,0.042,-10.725,8.4,-43.8,,adl
1.820372,0.2437,0.1163,0.0396,0.0599,0.0127,0.042,-11.025,8.475,-43.05,,adl
1.828741,0.2437,0.1163,0.0396,0.0599,0.0127,0.042,-11.025,8.475,-43.05,,adl
1.830167,0.1809,0.1108,0.0492,0.0599,0.0127,0.042,-11.025,8.475,-43.05,,adl
1.848553,0.1809,0.1108,0.0492,0.0599,0.0127,0.042,-11.025,8.475,-43.05,,adl
1.849575,0.2035,0.1519,0.1183,0.0599,0.0127,0.042,-11.025,8.475,-43.05,,adl
1.862712,0.2035,0.1519,0.1183,0.0217,-0.0822,0.0808,-11.025,8.475,-43.05,,adl
1.867464,0.2035,0.1519,0.1183,0.0217,-0.0822,0.0808,-11.025,8.475,-43.05,,adl
1.868123,0.2694,0.1419,0.1392,0.0217,-0.0822,0.0808,-11.025,8.475,-43.05,,adl
1.88793,0.2694,0.1419,0.1392,0.0217,-0.0822,0.0808,-11.025,8.475,-43.05,,adl
1.888943,0.3551,0.1305,0.1855,0.0217,-0.0822,0.0808,-11.025,8.475,-43.05,,adl
1.889603,0.3551,0.1305,0.1855,0.0217,-0.0822,0.0808,-10.5,8.025,-43.275,,adl
1.907591,0.3551,0.1305,0.1855,0.0217,-0.0822,0.0808,-10.5,8.025,-43.275,,adl
1.908665,0.4103,0.0974,0.1757,0.0217,-0.0822,0.0808,-10.5,8.025,-43.275,,adl
1.930221,0.4103,0.0974,0.1757,0.0217,-0.0822,0.0808,-10.5,8.025,-43.275,,adl
1.932852,0.3044,0.0701,0.2536,0.0217,-0.0822,0.0808,-10.5,8.025,-43.275,,adl
1.934764,0.3044,0.0701,0.2536,0.0182,-0.1202,0.1101,-10.5,8.025,-43.275,,adl
1.946956,0.3044,0.0701,0.2536,0.0182,-0.1202,0.1101,-10.5,8.025,-43.275,,adl
1.949021,0.2341,0.0957,0.3432,0.0182,-0.1202,0.1101,-10.5,8.025,-43.275,,adl
1.957388,0.2341,0.0957,0.3432,0.0182,-0.1202,0.1101,-10.95,8.475,-43.2,,adl
1.970776,0.2341,0.0957,0.3432,0.0182,-0.1202,0.1101,-10.95,8.475,-43.2,,adl
1.97266,0.2307,0.1277,0.209,0.0182,-0.1202,0.1101,-10.95,8.475,-43.2,,adl
1.986368,0.2307,0.1277,0.209,0.0182,-0.1202,0.1101,-10.95,8.475,-43.2,,adl
1.989114,0.3047,0.1392,0.1298,0.0182,-0.1202,0.1101,-10.95,8.475,-43.2,,adl
2.001343,0.3047,0.1392,0.1298,0.0925,-0.1626,0.1071,-10.95,8.475,-43.2,,adl
2.005385,0.3047,0.1392,0.1298,0.0925,-0.1626,0.1071,-10.95,8.475,-43.2,,adl
2.007116,0.3508,0.1254,0.1224,0.0925,-0.1626,0.1071,-10.95,8.475,-43.2,,adl
2.025231,0.3508,0.1254,0.1224,0.0925,-0.1626,0.1071,-10.95,8.475,-43.2,,adl
2.027701,0.3983,0.1434,0.0701,0.0925,-0.1626,0.1071,-10.95,8.475,-43.2,,adl
2.029455,0.3983,0.1434,0.0701,0.0925,-0.1626,0.1071,-11.25,8.475,-42.6,,adl
2.044073,0.3983,0.1434,0.0701,0.0925,-0.1626,0.1071,-11.25,8.475,-42.6,,adl
2.04617,0.353,0.2079,-0.1091,0.0925,-0.1626,0.1071,-11.25,8.475,-42.6,,adl
2.069219,0.353,0.2079,-0.1091,0.0925,-0.1626,0.1071,-11.25,8.475,-42.6,,adl
2.071795,0.2062,0.2626,-0.0323,0.0925,-0.1626,0.1071,-11.25,8.475,-42.6,,adl
2.073967,0.2062,0.2626,-0.0323,0.0675,-0.1933,0.0718,-11.25,8.475,-42.6,,adl
2.089107,0.2062,0.2626,-0.0323,0.0675,-0.1933,0.0718,-11.25,8.475,-42.6,,adl
2.091234,0.0579,0.1232,-0.0355,0.0675,-0.1933,0.0718,-11.25,8.475,-42.6,,adl
2.098645,0.0579,0.1232,-0.0355,0.0675,-0.1933,0.0718,-11.625,8.625,-43.05,,adl
2.110545,0.0579,0.1232,-0.0355,0.0675,-0.1933,0.0718,-11.625,8.625,-43.05,,adl
2.11341,-0.0395,-0.0374,-0.2026,0.0675,-0.1933,0.0718,-11.625,8.625,-43.05,,adl
2.127789,-0.0395,-0.0374,-0.2026,0.0675,-0.1933,0.0718,-11.625,8.625,-43.05,,adl
2.13055,-0.1715,-0.1641,0.2087,0.0675,-0.1933,0.0718,-11.625,8.625,-43.05,,adl
2.142589,-0.1715,-0.1641,0.2087,0.0406,-0.19,0.0486,-11.625,8.625,-43.05,,adl
2.147229,-0.1715,-0.1641,0.2087,0.0406,-0.19,0.0486,-11.625,8.625,-43.05,,adl
2.148248,-0.2271,-0.1618,0.0037,0.0406,-0.19,0.0486,-11.625,8.625,-43.05,,adl
2.168233,-0.2271,-0.1618,0.0037,0.0406,-0.19,0.0486,-11.625,8.625,-43.05,,adl
2.170928,-0.1194,0.0344,-0.0264,0.0406,-0.19,0.0486,-11.625,8.625,-43.05,,adl
2.172732,-0.1194,0.0344,-0.0264,0.0406,-0.19,0.0486,-12.45,8.775,-42.825,,adl
2.188821,-0.1194,0.0344,-0.0264,0.0406,-0.19,0.0486,-12.45,8.775,-42.825,,adl
2.191131,-0.1402,0.152,-0.0388,0.0406,-0.19,0.0486,-12.45,8.775,-42.825,,adl
2.205948,-0.1402,0.152,-0.0388,0.0406,-0.19,0.0486,-12.45,8.775,-42.825,,adl
2.207471,-0.2894,0.2944,-0.2093,0.0406,-0.19,0.0486,-12.45,8.775,-42.825,,adl
2.211217,-0.2894,0.2944,-0.2093,0.0122,-0.0874,0.0681,-12.45,8.775,-42.825,,adl
2.22597,-0.2894,0.2944,-0.2093,0.0122,-0.0874,0.0681,-12.45,8.775,-42.825,,adl
2.227394,-0.5642,0.2394,-0.3278,0.0122,-0.0874,0.0681,-12.45,8.775,-42.825,,adl
2.238241,-0.5642,0.2394,-0.3278,0.0122,-0.0874,0.0681,-12.3,9.0,-42.675,,adl
2.246484,-0.5642,0.2394,-0.3278,0.0122,-0.0874,0.0681,-12.3,9.0,-42.675,,adl
2.249592,-0.7011,0.0451,-0.153,0.0122,-0.0874,0.0681,-12.3,9.0,-42.675,,adl
2.264858,-0.7011,0.0451,-0.153,0.0122,-0.0874,0.0681,-12.3,9.0,-42.675,,adl
2.267031,-0.7893,-0.1365,0.1098,0.0122,-0.0874,0.0681,-12.3,9.0,-42.675,,adl
2.278928,-0.7893,-0.1365,0.1098,-0.1081,0.0046,0.0838,-12.3,9.0,-42.675,,adl
2.289605,-0.7893,-0.1365,0.1098,-0.1081,0.0046,0.0838,-12.3,9.0,-42.675,,adl
2.291856,-0.7365,-0.2027,0.186,-0.1081,0.0046,0.0838,-12.3,9.0,-42.675,,adl
2.308765,-0.7365,-0.2027,0.186,-0.1081,0.0046,0.0838,-12.3,9.0,-42.675,,adl
2.311391,-0.7304,-0.2053,0.3941,-0.1081,0.0046,0.0838,-12.3,9.0,-42.675,,adl
2.319638,-0.7304,-0.2053,0.3941,-0.1081,0.0046,0.0838,-11.925,8.925,-41.7,,adl
2.327733,-0.7304,-0.2053,0.3941,-0.1081,0.0046,0.0838,-11.925,8.925,-41.7,,adl
2.330004,-0.8351,-0.1978,0.322,-0.1081,0.0046,0.0838,-11.925,8.925,-41.7,,adl
2.346936,-0.8351,-0.1978,0.322,-0.1081,0.0046,0.0838,-11.925,8.925,-41.7,,adl
2.349601,-0.7695,-0.1661,0.2761,-0.1081,0.0046,0.0838,-11.925,8.925,-41.7,,adl
2.357522,-0.7695,-0.1661,0.2761,-0.0748,0.0461,0.0735,-11.925,8.925,-41.7,,adl
2.371007,-0.7695,-0.1661,0.2761,-0.0748,0.0461,0.0735,-11.925,8.925,-41.7,,adl
2.373053,-0.6295,-0.2403,0.33,-0.0748,0.0461,0.0735,-11.925,8.925,-41.7,,adl
2.377829,-0.6295,-0.2403,0.33,-0.0748,0.0461,0.0735,-11.925,9.075,-41.85,,adl
2.387383,-0.6295,-0.2403,0.33,-0.0748,0.0461,0.0735,-11.925,9.075,-41.85,,adl
2.390074,-0.4239,-0.3905,0.4776,-0.0748,0.0461,0.0735,-11.925,9.075,-41.85,,adl
2.405784,-0.4239,-0.3905,0.4776,-0.0748,0.0461,0.0735,-11.925,9.075,-41.85,,adl
2.408042,-0.3406,-0.2598,0.7126,-0.0748,0.0461,0.0735,-11.925,9.075,-41.85,,adl
2.420821,-0.3406,-0.2598,0.7126,-0.0864,0.1335,0.0585,-11.925,9.075,-41.85,,adl
2.426094,-0.3406,-0.2598,0.7126,-0.0864,0.1335,0.0585,-11.925,9.075,-41.85,,adl
2.427798,-0.3366,-0.0371,0.5762,-0.0864,0.1335,0.0585,-11.925,9.075,-41.85,,adl
2.445355,-0.3366,-0.0371,0.5762,-0.0864,0.1335,0.0585,-11.925,9.075,-41.85,,adl
2.448308,-0.4725,0.2366,0.3343,-0.0864,0.1335,0.0585,-11.925,9.075,-41.85,,adl
2.449797,-0.4725,0.2366,0.3343,-0.0864,0.1335,0.0585,-11.7,9.75,-41.925,,adl
2.465144,-0.4725,0.2366,0.3343,-0.0864,0.1335,0.0585,-11.7,9.75,-41.925,,adl
2.467214,-0.5001,0.349,0.2771,-0.0864,0.1335,0.0585,-11.7,9.75,-41.925,,adl
2.484308,-0.5001,0.349,0.2771,-0.0864,0.1335,0.0585,-11.7,9.75,-41.925,,adl
2.486808,-0.549,0.317,0.3291,-0.0864,0.1335,0.0585,-11.7,9.75,-41.925,,adl
2.488951,-0.549,0.317,0.3291,-0.1393,0.1723,0.0502,-11.7,9.75,-41.925,,adl
2.504653,-0.549,0.317,0.3291,-0.1393,0.1723,0.0502,-11.7,9.75,-41.925,,adl
2.506824,-0.5609,0.2636,0.4969,-0.1393,0.1723,0.0502,-11.7,9.75,-41.925,,adl
2.518407,-0.5609,0.2636,0.4969,-0.1393,0.1723,0.0502,-11.1,10.125,-41.55,,adl
2.523169,-0.5609,0.2636,0.4969,-0.1393,0.1723,0.0502,-11.1,10.125,-41.55,,adl
2.5252,-0.5632,0.191,0.4447,-0.1393,0.1723,0.0502,-11.1,10.125,-41.55,,adl
2.543892,-0.5632,0.191,0.4447,-0.1393,0.1723,0.0502,-11.1,10.125,-41.55,,adl
2.546629,-0.5766,0.1963,0.392,-0.1393,0.1723,0.0502,-11.1,10.125,-41.55,,adl
2.557698,-0.5766,0.1963,0.392,-0.1932,0.1973,0.0754,-11.1,10.125,-41.55,,adl
2.56249,-0.5766,0.1963,0.392,-0.1932,0.1973,0.0754,-11.1,10.125,-41.55,,adl
2.564119,-0.4696,0.189,0.4331,-0.1932,0.1973,0.0754,-11.1,10.125,-41.55,,adl
2.587382,-0.4696,0.189,0.4331,-0.1932,0.1973,0.0754,-11.1,10.125,-41.55,,adl
2.590708,-0.3784,0.1347,0.3915,-0.1932,0.1973,0.0754,-11.1,10.125,-41.55,,adl
2.593717,-0.3784,0.1347,0.3915,-0.1932,0.1973,0.0754,-10.65,10.65,-42.15,,adl
2.606763,-0.3784,0.1347,0.3915,-0.1932,0.1973,0.0754,-10.65,10.65,-42.15,,adl
2.609609,-0.2947,0.1772,0.6605,-0.1932,0.1973,0.0754,-10.65,10.65,-42.15,,adl
2.62669,-0.2947,0.1772,0.6605,-0.1932,0.1973,0.0754,-10.65,10.65,-42.15,,adl
2.630577,-0.2011,0.2904,0.7232,-0.1932,0.1973,0.0754,-10.65,10.65,-42.15,,adl
2.633066,-0.2011,0.2904,0.7232,-0.1237,0.277,0.0347,-10.65,10.65,-42.15,,adl
2.646444,-0.2011,0.2904,0.7232,-0.1237,0.277,0.0347,-10.65,10.65,-42.15,,adl
2.649026,-0.1726,0.2909,0.0822,-0.1237,0.277,0.0347,-10.65,10.65,-42.15,,adl
2.657968,-0.1726,0.2909,0.0822,-0.1237,0.277,0.0347,-10.35,11.625,-42.0,,adl
2.665738,-0.1726,0.2909,0.0822,-0.1237,0.277,0.0347,-10.35,11.625,-42.0,,adl
2.668048,-0.2808,0.2515,-0.0427,-0.1237,0.277,0.0347,-10.35,11.625,-42.0,,adl
2.68487,-0.2808,0.2515,-0.0427,-0.1237,0.277,0.0347,-10.35,11.625,-42.0,,adl
2.687013,-0.3071,0.1283,0.9411,-0.1237,0.277,0.0347,-10.35,11.625,-42.0,,adl
2.706377,-0.3071,0.1283,0.9411,-0.1507,0.3575,-0.0608,-10.35,11.625,-42.0,,adl
2.709049,-0.3071,0.1283,0.9411,-0.1507,0.3575,-0.0608,-10.35,11.625,-42.0,,adl
2.71061,-0.0609,0.2676,0.1866,-0.1507,0.3575,-0.0608,-10.35,11.625,-42.0,,adl
2.723876,-0.0609,0.2676,0.1866,-0.1507,0.3575,-0.0608,-10.35,11.625,-42.0,,adl
2.72611,-0.2234,0.4683,0.3339,-0.1507,0.3575,-0.0608,-10.35,11.625,-42.0,,adl
2.728009,-0.2234,0.4683,0.3339,-0.1507,0.3575,-0.0608,-9.15,11.7,-42.3,,adl
2.743399,-0.2234,0.4683,0.3339,-0.1507,0.3575,-0.0608,-9.15,11.7,-42.3,,adl
2.746054,-0.2024,0.1933,0.585,-0.1507,0.3575,-0.0608,-9.15,11.7,-42.3,,adl
2.763091,-0.2024,0.1933,0.585,-0.1507,0.3575,-0.0608,-9.15,11.7,-42.3,,adl
2.765282,-0.362,0.074,0.4688,-0.1507,0.3575,-0.0608,-9.15,11.7,-42.3,,adl
2.769481,-0.362,0.074,0.4688,-0.2431,0.4351,-0.1419,-9.15,11.7,-42.3,,adl
2.784955,-0.362,0.074,0.4688,-0.2431,0.4351,-0.1419,-9.15,11.7,-42.3,,adl
2.787515,-0.4075,0.0027,0.6116,-0.2431,0.4351,-0.1419,-9.15,11.7,-42.3,,adl
2.79793,-0.4075,0.0027,0.6116,-0.2431,0.4351,-0.1419,-8.4,12.45,-42.825,,adl
2.799794,-0.4075,0.0027,0.6116,-0.2431,0.4351,-0.1419,-8.4,12.45,-42.825,,adl
2.801673,-0.3694,-0.055,0.6874,-0.2431,0.4351,-0.1419,-8.4,12.45,-42.825,,adl
2.821689,-0.3694,-0.055,0.6874,-0.2431,0.4351,-0.1419,-8.4,12.45,-42.825,,adl
2.826623,-0.2974,-0.0192,0.6486,-0.2431,0.4351,-0.1419,-8.4,12.45,-42.825,,adl
2.836071,-0.2974,-0.0192,0.6486,-0.1611,0.4491,-0.2135,-8.4,12.45,-42.825,,adl
2.842112,-0.2974,-0.0192,0.6486,-0.1611,0.4491,-0.2135,-8.4,12.45,-42.825,,adl
2.843913,-0.2831,-0.0457,0.7149,-0.1611,0.4491,-0.2135,-8.4,12.45,-42.825,,adl
2.860515,-0.2831,-0.0457,0.7149,-0.1611,0.4491,-0.2135,-8.4,12.45,-42.825,,adl
2.862143,-0.3012,-0.2743,0.5813,-0.1611,0.4491,-0.2135,-8.4,12.45,-42.825,,adl
2.867531,-0.3012,-0.2743,0.5813,-0.1611,0.4491,-0.2135,-6.75,12.9,-42.45,,adl
2.880824,-0.3012,-0.2743,0.5813,-0.1611,0.4491,-0.2135,-6.75,12.9,-42.45,,adl
2.883818,-0.2089,-0.9274,0.2204,-0.1611,0.4491,-0.2135,-6.75,12.9,-42.45,,adl
2.895645,-0.2089,-0.9274,0.2204,-0.1611,0.4491,-0.2135,-6.75,12.9,-42.45,,adl
2.898441,-0.008,-2.0366,-0.6362,-0.1611,0.4491,-0.2135,-6.75,12.9,-42.45,,adl
2.906874,-0.008,-2.0366,-0.6362,-0.0391,0.463,-0.2998,-6.75,12.9,-42.45,,adl
2.915045,-0.008,-2.0366,-0.6362,-0.0391,0.463,-0.2998,-6.75,12.9,-42.45,,adl
2.91734,0.0342,-1.2686,0.1905,-0.0391,0.463,-0.2998,-6.75,12.9,-42.45,,adl
2.937514,0.0342,-1.2686,0.1905,-0.0391,0.463,-0.2998,-5.925,12.75,-42.3,,adl
2.940729,0.0342,-1.2686,0.1905,-0.0391,0.463,-0.2998,-5.925,12.75,-42.3,,adl
2.942706,-0.1602,-0.8427,0.101,-0.0391,0.463,-0.2998,-5.925,12.75,-42.3,,adl
2.960551,-0.1602,-0.8427,0.101,-0.0391,0.463,-0.2998,-5.925,12.75,-42.3,,adl
2.961717,-0.7858,-0.3955,-0.2334,-0.0391,0.463,-0.2998,-5.925,12.75,-42.3,,adl
2.979336,-0.7858,-0.3955,-0.2334,-0.0799,0.3602,-0.3063,-5.925,12.75,-42.3,,adl
2.981441,-0.7858,-0.3955,-0.2334,-0.0799,0.3602,-0.3063,-5.925,12.75,-42.3,,adl
2.982877,-0.8401,-0.0018,-0.3221,-0.0799,0.3602,-0.3063,-5.925,12.75,-42.3,,adl
2.998982,-0.8401,-0.0018,-0.3221,-0.0799,0.3602,-0.3063,-5.925,12.75,-42.3,,adl
3.000937,-0.8153,0.051,-0.3682,-0.0799,0.3602,-0.3063,-5.925,12.75,-42.3,,adl
3.007657,-0.8153,0.051,-0.3682,-0.0799,0.3602,-0.3063,-4.65,12.3,-43.275,,adl
3.023423,-0.8153,0.051,-0.3682,-0.0799,0.3602,-0.3063,-4.65,12.3,-43.275,,adl
3.025348,-0.4697,0.373,-0.2383,-0.0799,0.3602,-0.3063,-4.65,12.3,-43.275,,adl
3.042816,-0.4697,0.373,-0.2383,-0.0799,0.3602,-0.3063,-4.65,12.3,-43.275,,adl
3.044404,-0.3202,0.7744,-0.5844,-0.0799,0.3602,-0.3063,-4.65,12.3,-43.275,,adl
3.047238,-0.3202,0.7744,-0.5844,-0.1063,0.3757,-0.1915,-4.65,12.3,-43.275,,adl
3.063007,-0.3202,0.7744,-0.5844,-0.1063,0.3757,-0.1915,-4.65,12.3,-43.275,,adl
3.065978,-0.3444,1.0817,-0.8872,-0.1063,0.3757,-0.1915,-4.65,12.3,-43.275,,adl
3.077662,-0.3444,1.0817,-0.8872,-0.1063,0.3757,-0.1915,-3.825,12.45,-42.825,,adl
3.080057,-0.3444,1.0817,-0.8872,-0.1063,0.3757,-0.1915,-3.825,12.45,-42.825,,adl
3.081891,-0.1092,1.1607,-1.0001,-0.1063,0.3757,-0.1915,-3.825,12.45,-42.825,,adl
3.098544,-0.1092,1.1607,-1.0001,-0.1063,0.3757,-0.1915,-3.825,12.45,-42.825,,adl
3.101389,0.3335,0.7832,-0.9886,-0.1063,0.3757,-0.1915,-3.825,12.45,-42.825,,adl
3.115376,0.3335,0.7832,-0.9886,-0.0999,0.2001,-0.1791,-3.825,12.45,-42.825,,adl
3.122554,0.3335,0.7832,-0.9886,-0.0999,0.2001,-0.1791,-3.825,12.45,-42.825,,adl
3.124382,0.6271,0.3312,-0.9349,-0.0999,0.2001,-0.1791,-3.825,12.45,-42.825,,adl
3.140126,0.6271,0.3312,-0.9349,-0.0999,0.2001,-0.1791,-3.825,12.45,-42.825,,adl
3.143011,0.5434,-0.1056,-0.7535,-0.0999,0.2001,-0.1791,-3.825,12.45,-42.825,,adl
3.14778,0.5434,-0.1056,-0.7535,-0.0999,0.2001,-0.1791,-3.15,12.6,-43.125,,adl
3.159298,0.5434,-0.1056,-0.7535,-0.0999,0.2001,-0.1791,-3.15,12.6,-43.125,,adl
3.161984,0.2928,-0.5511,-0.5124,-0.0999,0.2001,-0.1791,-3.15,12.6,-43.125,,adl
3.178528,0.2928,-0.5511,-0.5124,-0.0999,0.2001,-0.1791,-3.15,12.6,-43.125,,adl
3.181537,0.1182,-0.5085,-0.2025,-0.0999,0.2001,-0.1791,-3.15,12.6,-43.125,,adl
3.184029,0.1182,-0.5085,-0.2025,-0.08,0.1077,-0.0809,-3.15,12.6,-43.125,,adl
3.198433,0.1182,-0.5085,-0.2025,-0.08,0.1077,-0.0809,-3.15,12.6,-43.125,,adl
3.201387,0.0299,-0.2143,-0.1428,-0.08,0.1077,-0.0809,-3.15,12.6,-43.125,,adl
3.213178,0.0299,-0.2143,-0.1428,-0.08,0.1077,-0.0809,-3.0,13.2,-43.2,,adl
3.222396,0.0299,-0.2143,-0.1428,-0.08,0.1077,-0.0809,-3.0,13.2,-43.2,,adl
3.224388,-0.1293,0.0717,-0.252,-0.08,0.1077,-0.0809,-3.0,13.2,-43.2,,adl
3.244083,-0.1293,0.0717,-0.252,-0.08,0.1077,-0.0809,-3.0,13.2,-43.2,,adl
3.246402,-0.145,0.2396,-0.2677,-0.08,0.1077,-0.0809,-3.0,13.2,-43.2,,adl
3.256951,-0.145,0.2396,-0.2677,-0.0296,0.0203,0.04,-3.0,13.2,-43.2,,adl
3.261512,-0.145,0.2396,-0.2677,-0.0296,0.0203,0.04,-3.0,13.2,-43.2,,adl
3.26323,0.0432,0.3618,-0.4351,-0.0296,0.0203,0.04,-3.0,13.2,-43.2,,adl
3.282169,0.0432,0.3618,-0.4351,-0.0296,0.0203,0.04,-3.0,13.2,-43.2,,adl
3.284863,0.1611,0.4084,-0.2274,-0.0296,0.0203,0.04,-3.0,13.2,-43.2,,adl
3.28675,0.1611,0.4084,-0.2274,-0.0296,0.0203,0.04,-2.85,13.425,-42.675,,adl
3.298204,0.1611,0.4084,-0.2274,-0.0296,0.0203,0.04,-2.85,13.425,-42.675,,adl
3.301074,0.3609,0.2772,0.3494,-0.0296,0.0203,0.04,-2.85,13.425,-42.675,,adl
3.320587,0.3609,0.2772,0.3494,-0.0296,0.0203,0.04,-2.85,13.425,-42.675,,adl
3.323237,0.4594,0.3026,-0.2605,-0.0296,0.0203,0.04,-2.85,13.425,-42.675,,adl
3.32589,0.4594,0.3026,-0.2605,-0.0762,-0.0035,0.0611,-2.85,13.425,-42.675,,adl
3.341897,0.4594,0.3026,-0.2605,-0.0762,-0.0035,0.0611,-2.85,13.425,-42.675,,adl
3.342859,0.2863,0.3317,0.2879,-0.0762,-0.0035,0.0611,-2.85,13.425,-42.675,,adl
3.351903,0.2863,0.3317,0.2879,-0.0762,-0.0035,0.0611,-2.625,12.825,-42.9,,adl
3.359798,0.2863,0.3317,0.2879,-0.0762,-0.0035,0.0611,-2.625,12.825,-42.9,,adl
3.361334,0.2937,0.2344,0.3396,-0.0762,-0.0035,0.0611,-2.625,12.825,-42.9,,adl
3.379908,0.2937,0.2344,0.3396,-0.0762,-0.0035,0.0611,-2.625,12.825,-42.9,,adl
3.381583,0.3488,0.2289,0.2196,-0.0762,-0.0035,0.0611,-2.625,12.825,-42.9,,adl
3.394495,0.3488,0.2289,0.2196,-0.0021,-0.064,0.0383,-2.625,12.825,-42.9,,adl
3.398477,0.3488,0.2289,0.2196,-0.0021,-0.064,0.0383,-2.625,12.825,-42.9,,adl
3.399324,0.4597,0.3478,0.2307,-0.0021,-0.064,0.0383,-2.625,12.825,-42.9,,adl
3.418832,0.4597,0.3478,0.2307,-0.0021,-0.064,0.0383,-2.625,12.825,-42.9,,adl
3.420869,0.4092,0.4198,0.3449,-0.0021,-0.064,0.0383,-2.625,12.825,-42.9,,adl
3.422321,0.4092,0.4198,0.3449,-0.0021,-0.064,0.0383,-2.625,13.8,-42.225,,adl
3.437949,0.4092,0.4198,0.3449,-0.0021,-0.064,0.0383,-2.625,13.8,-42.225,,adl
3.43931,0.2118,0.4329,0.2333,-0.0021,-0.064,0.0383,-2.625,13.8,-42.225,,adl
3.462842,0.2118,0.4329,0.2333,-0.0021,-0.064,0.0383,-2.625,13.8,-42.225,,adl
3.464484,0.1341,0.4827,0.204,-0.0021,-0.064,0.0383,-2.625,13.8,-42.225,,adl
3.467893,0.1341,0.4827,0.204,0.0246,-0.1037,0.049,-2.625,13.8,-42.225,,adl
3.489111,0.1341,0.4827,0.204,0.0246,-0.1037,0.049,-2.625,13.8,-42.225,,adl
3.490828,0.2308,0.3882,0.3034,0.0246,-0.1037,0.049,-2.625,13.8,-42.225,,adl
3.492383,0.2308,0.3882,0.3034,0.0246,-0.1037,0.049,-2.625,13.2,-42.675,,adl
3.499514,0.2308,0.3882,0.3034,0.0246,-0.1037,0.049,-2.625,13.2,-42.675,,adl
3.500871,0.2774,0.2507,0.3669,0.0246,-0.1037,0.049,-2.625,13.2,-42.675,,adl
3.522355,0.2774,0.2507,0.3669,0.0246,-0.1037,0.049,-2.625,13.2,-42.675,,adl
3.527397,0.3391,0.2089,0.3337,0.0246,-0.1037,0.049,-2.625,13.2,-42.675,,adl
3.537121,0.3391,0.2089,0.3337,-0.0011,-0.1584,0.0938,-2.625,13.2,-42.675,,adl
3.542502,0.3391,0.2089,0.3337,-0.0011,-0.1584,0.0938,-2.625,13.2,-42.675,,adl
3.546627,0.305,0.2423,0.6135,-0.0011,-0.1584,0.0938,-2.625,13.2,-42.675,,adl
3.560747,0.305,0.2423,0.6135,-0.0011,-0.1584,0.0938,-2.625,13.2,-42.675,,adl
3.563514,0.2364,0.2076,0.4988,-0.0011,-0.1584,0.0938,-2.625,13.2,-42.675,,adl
3.565703,0.2364,0.2076,0.4988,-0.0011,-0.1584,0.0938,-3.15,12.675,-42.675,,adl
3.580393,0.2364,0.2076,0.4988,-0.0011,-0.1584,0.0938,-3.15,12.675,-42.675,,adl
3.583178,0.2324,0.1273,0.4973,-0.0011,-0.1584,0.0938,-3.15,12.675,-42.675,,adl
3.59807,0.2324,0.1273,0.4973,-0.0011,-0.1584,0.0938,-3.15,12.675,-42.675,,adl
3.600643,0.335,0.0075,0.5115,-0.0011,-0.1584,0.0938,-3.15,12.675,-42.675,,adl
3.603759,0.335,0.0075,0.5115,0.0481,-0.2358,0.1396,-3.15,12.675,-42.675,,adl
3.62489,0.335,0.0075,0.5115,0.0481,-0.2358,0.1396,-3.15,12.675,-42.675,,adl
3.62718,0.4554,-0.1622,0.57,0.0481,-0.2358,0.1396,-3.15,12.675,-42.675,,adl
3.629905,0.4554,-0.1622,0.57,0.0481,-0.2358,0.1396,-3.75,13.275,-42.45,,adl
3.639729,0.4554,-0.1622,0.57,0.0481,-0.2358,0.1396,-3.75,13.275,-42.45,,adl
3.641961,0.5277,-0.2327,0.6386,0.0481,-0.2358,0.1396,-3.75,13.275,-42.45,,adl
3.657941,0.5277,-0.2327,0.6386,0.0481,-0.2358,0.1396,-3.75,13.275,-42.45,,adl
3.660503,0.5441,-0.3841,0.6893,0.0481,-0.2358,0.1396,-3.75,13.275,-42.45,,adl
3.672705,0.5441,-0.3841,0.6893,0.095,-0.3216,0.1677,-3.75,13.275,-42.45,,adl
3.677616,0.5441,-0.3841,0.6893,0.095,-0.3216,0.1677,-3.75,13.275,-42.45,,adl
3.679153,0.1921,-1.0648,0.3773,0.095,-0.3216,0.1677,-3.75,13.275,-42.45,,adl
3.693056,0.1921,-1.0648,0.3773,0.095,-0.3216,0.1677,-3.75,13.275,-42.45,,adl
3.695094,-0.2009,-1.989,-0.2036,0.095,-0.3216,0.1677,-3.75,13.275,-42.45,,adl
3.697567,-0.2009,-1.989,-0.2036,0.095,-0.3216,0.1677,-4.5,12.525,-43.05,,adl
3.717962,-0.2009,-1.989,-0.2036,0.095,-0.3216,0.1677,-4.5,12.525,-43.05,,adl
3.721796,0.1614,-1.7724,0.1218,0.095,-0.3216,0.1677,-4.5,12.525,-43.05,,adl
3.741925,0.1614,-1.7724,0.1218,0.095,-0.3216,0.1677,-4.5,12.525,-43.05,,adl
3.744101,0.651,-0.9915,0.1536,0.095,-0.3216,0.1677,-4.5,12.525,-43.05,,adl
3.747183,0.651,-0.9915,0.1536,0.0406,-0.2752,0.2275,-4.5,12.525,-43.05,,adl
3.756453,0.651,-0.9915,0.1536,0.0406,-0.2752,0.2275,-4.5,12.525,-43.05,,adl
3.758978,0.6742,-0.5417,0.0322,0.0406,-0.2752,0.2275,-4.5,12.525,-43.05,,adl
3.770751,0.6742,-0.5417,0.0322,0.0406,-0.2752,0.2275,-5.1,12.6,-42.6,,adl
3.775822,0.6742,-0.5417,0.0322,0.0406,-0.2752,0.2275,-5.1,12.6,-42.6,,adl
3.777578,0.5368,-0.344,-0.008,0.0406,-0.2752,0.2275,-5.1,12.6,-42.6,,adl
3.798079,0.5368,-0.344,-0.008,0.0406,-0.2752,0.2275,-5.1,12.6,-42.6,,adl
3.801042,0.273,-0.0265,-0.2284,0.0406,-0.2752,0.2275,-5.1,12.6,-42.6,,adl
3.81466,0.273,-0.0265,-0.2284,0.0612,-0.3195,0.071,-5.1,12.6,-42.6,,adl
3.819298,0.273,-0.0265,-0.2284,0.0612,-0.3195,0.071,-5.1,12.6,-42.6,,adl
3.821029,-0.1129,0.3773,-0.5956,0.0612,-0.3195,0.071,-5.1,12.6,-42.6,,adl
3.84063,-0.1129,0.3773,-0.5956,0.0612,-0.3195,0.071,-5.1,12.6,-42.6,,adl
3.842856,-0.4743,0.6142,-0.7608,0.0612,-0.3195,0.071,-5.1,12.6,-42.6,,adl
3.844986,-0.4743,0.6142,-0.7608,0.0612,-0.3195,0.071,-5.625,12.9,-41.925,,adl
3.858522,-0.4743,0.6142,-0.7608,0.0612,-0.3195,0.071,-5.625,12.9,-41.925,,adl
3.860693,-0.8145,0.7346,-0.8377,0.0612,-0.3195,0.071,-5.625,12.9,-41.925,,adl
3.878202,-0.8145,0.7346,-0.8377,0.0612,-0.3195,0.071,-5.625,12.9,-41.925,,adl
3.881534,-1.1048,0.9728,-1.3551,0.0612,-0.3195,0.071,-5.625,12.9,-41.925,,adl
3.889987,-1.1048,0.9728,-1.3551,-0.0012,-0.5475,0.0741,-5.625,12.9,-41.925,,adl
3.897514,-1.1048,0.9728,-1.3551,-0.0012,-0.5475,0.0741,-5.625,12.9,-41.925,,adl
3.899314,-1.4492,1.2748,-0.9495,-0.0012,-0.5475,0.0741,-5.625,12.9,-41.925,,adl
3.907686,-1.4492,1.2748,-0.9495,-0.0012,-0.5475,0.0741,-7.35,12.375,-42.0,,adl
3.921329,-1.4492,1.2748,-0.9495,-0.0012,-0.5475,0.0741,-7.35,12.375,-42.0,,adl
3.923734,-1.5864,1.1349,-1.4385,-0.0012,-0.5475,0.0741,-7.35,12.375,-42.0,,adl
3.937617,-1.5864,1.1349,-1.4385,-0.0012,-0.5475,0.0741,-7.35,12.375,-42.0,,adl
3.941232,-1.5067,0.4764,-1.6376,-0.0012,-0.5475,0.0741,-7.35,12.375,-42.0,,adl
3.95136,-1.5067,0.4764,-1.6376,-0.153,-0.6597,0.1106,-7.35,12.375,-42.0,,adl
3.957519,-1.5067,0.4764,-1.6376,-0.153,-0.6597,0.1106,-7.35,12.375,-42.0,,adl
3.959235,-1.1122,-0.4386,-1.1478,-0.153,-0.6597,0.1106,-7.35,12.375,-42.0,,adl
3.975561,-1.1122,-0.4386,-1.1478,-0.153,-0.6597,0.1106,-7.35,12.375,-42.0,,adl
3.977895,-0.5866,-0.8115,-0.9267,-0.153,-0.6597,0.1106,-7.35,12.375,-42.0,,adl
3.979815,-0.5866,-0.8115,-0.9267,-0.153,-0.6597,0.1106,-8.55,12.675,-41.85,,adl
3.996685,-0.5866,-0.8115,-0.9267,-0.153,-0.6597,0.1106,-8.55,12.675,-41.85,,adl
3.998337,-0.1708,-0.7596,-0.0506,-0.153,-0.6597,0.1106,-8.55,12.675,-41.85,,adl
4.016604,-0.1708,-0.7596,-0.0506,-0.153,-0.6597,0.1106,-8.55,12.675,-41.85,,adl
4.018465,-0.1592,-0.3469,0.2104,-0.153,-0.6597,0.1106,-8.55,12.675,-41.85,,adl
4.020049,-0.1592,-0.3469,0.2104,-0.0898,-0.6498,0.0513,-8.55,12.675,-41.85,,adl
4.03506,-0.1592,-0.3469,0.2104,-0.0898,-0.6498,0.0513,-8.55,12.675,-41.85,,adl
4.036995,-0.3473,0.1693,0.1212,-0.0898,-0.6498,0.0513,-8.55,12.675,-41.85,,adl
4.048699,-0.3473,0.1693,0.1212,-0.0898,-0.6498,0.0513,-10.2,13.125,-40.2,,adl
4.059944,-0.3473,0.1693,0.1212,-0.0898,-0.6498,0.0513,-10.2,13.125,-40.2,,adl
4.064921,-0.6033,0.5275,0.1486,-0.0898,-0.6498,0.0513,-10.2,13.125,-40.2,,adl
4.073719,-0.6033,0.5275,0.1486,-0.0898,-0.6498,0.0513,-10.2,13.125,-40.2,,adl
4.076926,-0.8157,0.5344,0.1507,-0.0898,-0.6498,0.0513,-10.2,13.125,-40.2,,adl
4.093583,-0.8157,0.5344,0.1507,0.0266,-0.6156,-0.006,-10.2,13.125,-40.2,,adl
4.097915,-0.8157,0.5344,0.1507,0.0266,-0.6156,-0.006,-10.2,13.125,-40.2,,adl
4.099572,-0.8722,0.4474,0.2952,0.0266,-0.6156,-0.006,-10.2,13.125,-40.2,,adl
4.117867,-0.8722,0.4474,0.2952,0.0266,-0.6156,-0.006,-10.2,13.125,-40.2,,adl
4.121192,-0.8723,0.476,0.433,0.0266,-0.6156,-0.006,-10.2,13.125,-40.2,,adl
4.123227,-0.8723,0.476,0.433,0.0266,-0.6156,-0.006,-11.85,12.15,-40.575,,adl
4.139151,-0.8723,0.476,0.433,0.0266,-0.6156,-0.006,-11.85,12.15,-40.575,,adl
4.141884,-0.7305,0.5041,0.2342,0.0266,-0.6156,-0.006,-11.85,12.15,-40.575,,adl
4.158391,-0.7305,0.5041,0.2342,0.0266,-0.6156,-0.006,-11.85,12.15,-40.575,,adl
4.161155,-0.8204,0.5464,0.3109,0.0266,-0.6156,-0.006,-11.85,12.15,-40.575,,adl
4.162989,-0.8204,0.5464,0.3109,0.0072,-0.505,-0.0076,-11.85,12.15,-40.575,,adl
4.176665,-0.8204,0.5464,0.3109,0.0072,-0.505,-0.0076,-11.85,12.15,-40.575,,adl
4.179565,-0.8689,0.5176,0.285,0.0072,-0.505,-0.0076,-11.85,12.15,-40.575,,adl
4.187028,-0.8689,0.5176,0.285,0.0072,-0.505,-0.0076,-13.95,12.45,-39.825,,adl
4.195664,-0.8689,0.5176,0.285,0.0072,-0.505,-0.0076,-13.95,12.45,-39.825,,adl
4.198316,-0.8957,0.4798,0.2796,0.0072,-0.505,-0.0076,-13.95,12.45,-39.825,,adl
4.21514,-0.8957,0.4798,0.2796,0.0072,-0.505,-0.0076,-13.95,12.45,-39.825,,adl
4.218121,-0.8705,0.5393,0.304,0.0072,-0.505,-0.0076,-13.95,12.45,-39.825,,adl
4.230767,-0.8705,0.5393,0.304,-0.0145,-0.4177,-0.007,-13.95,12.45,-39.825,,adl
4.235346,-0.8705,0.5393,0.304,-0.0145,-0.4177,-0.007,-13.95,12.45,-39.825,,adl
4.237692,-0.8096,0.5317,0.0751,-0.0145,-0.4177,-0.007,-13.95,12.45,-39.825,,adl
4.258347,-0.8096,0.5317,0.0751,-0.0145,-0.4177,-0.007,-13.95,12.45,-39.825,,adl
4.260364,-0.8759,0.6595,0.0303,-0.0145,-0.4177,-0.007,-13.95,12.45,-39.825,,adl
4.261776,-0.8759,0.6595,0.0303,-0.0145,-0.4177,-0.007,-14.625,11.775,-39.15,,adl
4.274702,-0.8759,0.6595,0.0303,-0.0145,-0.4177,-0.007,-14.625,11.775,-39.15,,adl
4.276768,-0.9576,0.5217,0.1025,-0.0145,-0.4177,-0.007,-14.625,11.775,-39.15,,adl
4.295743,-0.9576,0.5217,0.1025,-0.0145,-0.4177,-0.007,-14.625,11.775,-39.15,,adl
4.29786,-0.9484,0.1528,0.2924,-0.0145,-0.4177,-0.007,-14.625,11.775,-39.15,,adl
4.299446,-0.9484,0.1528,0.2924,-0.0428,-0.3105,-0.0024,-14.625,11.775,-39.15,,adl
4.314947,-0.9484,0.1528,0.2924,-0.0428,-0.3105,-0.0024,-14.625,11.775,-39.15,,adl
4.317147,-0.738,-0.2098,0.5335,-0.0428,-0.3105,-0.0024,-14.625,11.775,-39.15,,adl
4.329382,-0.738,-0.2098,0.5335,-0.0428,-0.3105,-0.0024,-15.45,11.7,-39.0,,adl
4.333539,-0.738,-0.2098,0.5335,-0.0428,-0.3105,-0.0024,-15.45,11.7,-39.0,,adl
4.33526,-0.5662,-0.4015,0.8156,-0.0428,-0.3105,-0.0024,-15.45,11.7,-39.0,,adl
4.357442,-0.5662,-0.4015,0.8156,-0.0428,-0.3105,-0.0024,-15.45,11.7,-39.0,,adl
4.362831,-0.4109,-0.3844,1.0642,-0.0428,-0.3105,-0.0024,-15.45,11.7,-39.0,,adl
4.37199,-0.4109,-0.3844,1.0642,0.1054,-0.1762,-0.1064,-15.45,11.7,-39.0,,adl
4.377602,-0.4109,-0.3844,1.0642,0.1054,-0.1762,-0.1064,-15.45,11.7,-39.0,,adl
4.379355,-0.3155,-0.3126,1.1941,0.1054,-0.1762,-0.1064,-15.45,11.7,-39.0,,adl
4.396544,-0.3155,-0.3126,1.1941,0.1054,-0.1762,-0.1064,-15.45,11.7,-39.0,,adl
4.399048,0.0901,-0.8862,0.8947,0.1054,-0.1762,-0.1064,-15.45,11.7,-39.0,,adl
4.401096,0.0901,-0.8862,0.8947,0.1054,-0.1762,-0.1064,-15.3,11.475,-38.775,,adl
4.411549,0.0901,-0.8862,0.8947,0.1054,-0.1762,-0.1064,-15.3,11.475,-38.775,,adl
4.413979,0.4485,-3.2433,-0.9948,0.1054,-0.1762,-0.1064,-15.3,11.475,-38.775,,adl
4.43076,0.4485,-3.2433,-0.9948,0.1054,-0.1762,-0.1064,-15.3,11.475,-38.775,,adl
4.433202,0.412,-1.8809,1.1478,0.1054,-0.1762,-0.1064,-15.3,11.475,-38.775,,adl
4.440908,0.412,-1.8809,1.1478,0.2437,-0.055,-0.3149,-15.3,11.475,-38.775,,adl
4.454783,0.412,-1.8809,1.1478,0.2437,-0.055,-0.3149,-15.3,11.475,-38.775,,adl
4.457625,-0.0569,-2.2916,-1.3402,0.2437,-0.055,-0.3149,-15.3,11.475,-38.775,,adl
4.470755,-0.0569,-2.2916,-1.3402,0.2437,-0.055,-0.3149,-16.05,10.35,-39.225,,adl
4.474161,-0.0569,-2.2916,-1.3402,0.2437,-0.055,-0.3149,-16.05,10.35,-39.225,,adl
4.475752,-0.6226,-1.2942,-1.0172,0.2437,-0.055,-0.3149,-16.05,10.35,-39.225,,adl
4.494002,-0.6226,-1.2942,-1.0172,0.2437,-0.055,-0.3149,-16.05,10.35,-39.225,,adl
4.496327,-1.1039,0.1825,-0.2684,0.2437,-0.055,-0.3149,-16.05,10.35,-39.225,,adl
4.50898,-1.1039,0.1825,-0.2684,0.1817,-0.0713,-0.2355,-16.05,10.35,-39.225,,adl
4.511897,-1.1039,0.1825,-0.2684,0.1817,-0.0713,-0.2355,-16.05,10.35,-39.225,,adl
4.514173,-1.1145,1.1011,-0.6772,0.1817,-0.0713,-0.2355,-16.05,10.35,-39.225,,adl
4.528575,-1.1145,1.1011,-0.6772,0.1817,-0.0713,-0.2355,-16.05,10.35,-39.225,,adl
4.531866,-0.8637,1.5094,-0.3654,0.1817,-0.0713,-0.2355,-16.05,10.35,-39.225,,adl
4.539875,-0.8637,1.5094,-0.3654,0.1817,-0.0713,-0.2355,-16.5,9.525,-39.0,,adl
4.548007,-0.8637,1.5094,-0.3654,0.1817,-0.0713,-0.2355,-16.5,9.525,-39.0,,adl
4.55003,-0.6919,1.4469,-0.5484,0.1817,-0.0713,-0.2355,-16.5,9.525,-39.0,,adl
4.573374,-0.6919,1.4469,-0.5484,0.1817,-0.0713,-0.2355,-16.5,9.525,-39.0,,adl
4.575464,-0.1151,1.3,-1.017,0.1817,-0.0713,-0.2355,-16.5,9.525,-39.0,,adl
4.578548,-0.1151,1.3,-1.017,0.199,0.1008,-0.0344,-16.5,9.525,-39.0,,adl
4.593547,-0.1151,1.3,-1.017,0.199,0.1008,-0.0344,-16.5,9.525,-39.0,,adl
4.594932,0.6123,0.7225,-1.4313,0.199,0.1008,-0.0344,-16.5,9.525,-39.0,,adl
4.607846,0.6123,0.7225,-1.4313,0.199,0.1008,-0.0344,-16.35,8.25,-38.925,,adl
4.609762,0.6123,0.7225,-1.4313,0.199,0.1008,-0.0344,-16.35,8.25,-38.925,,adl
4.610686,0.9449,-0.0203,-1.8486,0.199,0.1008,-0.0344,-16.35,8.25,-38.925,,adl
4.62828,0.9449,-0.0203,-1.8486,0.199,0.1008,-0.0344,-16.35,8.25,-38.925,,adl
4.629908,0.6768,-0.5705,-1.8194,0.199,0.1008,-0.0344,-16.35,8.25,-38.925,,adl
4.645885,0.6768,-0.5705,-1.8194,-0.0545,0.1211,-0.0731,-16.35,8.25,-38.925,,adl
4.649441,0.6768,-0.5705,-1.8194,-0.0545,0.1211,-0.0731,-16.35,8.25,-38.925,,adl
4.651204,0.0754,-0.5019,-0.9829,-0.0545,0.1211,-0.0731,-16.35,8.25,-38.925,,adl
4.670643,0.0754,-0.5019,-0.9829,-0.0545,0.1211,-0.0731,-16.35,8.25,-38.925,,adl
4.673794,-0.3553,-0.2161,-0.7141,-0.0545,0.1211,-0.0731,-16.35,8.25,-38.925,,adl
4.677392,-0.3553,-0.2161,-0.7141,-0.0545,0.1211,-0.0731,-15.75,8.85,-39.15,,adl
4.692942,-0.3553,-0.2161,-0.7141,-0.0545,0.1211,-0.0731,-15.75,8.85,-39.15,,adl
4.695928,-0.5349,0.2039,-0.6504,-0.0545,0.1211,-0.0731,-15.75,8.85,-39.15,,adl
4.70954,-0.5349,0.2039,-0.6504,-0.0545,0.1211,-0.0731,-15.75,8.85,-39.15,,adl
4.71153,-0.4522,0.5186,-0.4871,-0.0545,0.1211,-0.0731,-15.75,8.85,-39.15,,adl
4.713871,-0.4522,0.5186,-0.4871,-0.082,-0.0192,-0.0115,-15.75,8.85,-39.15,,adl
4.729839,-0.4522,0.5186,-0.4871,-0.082,-0.0192,-0.0115,-15.75,8.85,-39.15,,adl
4.731324,-0.3178,0.4791,-0.4652,-0.082,-0.0192,-0.0115,-15.75,8.85,-39.15,,adl
4.748192,-0.3178,0.4791,-0.4652,-0.082,-0.0192,-0.0115,-16.125,8.475,-39.0,,adl
4.750425,-0.3178,0.4791,-0.4652,-0.082,-0.0192,-0.0115,-16.125,8.475,-39.0,,adl
4.751836,-0.1986,0.4433,0.0168,-0.082,-0.0192,-0.0115,-16.125,8.475,-39.0,,adl
4.774458,-0.1986,0.4433,0.0168,-0.082,-0.0192,-0.0115,-16.125,8.475,-39.0,,adl
4.776427,-0.1488,0.5376,0.1836,-0.082,-0.0192,-0.0115,-16.125,8.475,-39.0,,adl
4.788349,-0.1488,0.5376,0.1836,-0.0864,-0.2521,0.0872,-16.125,8.475,-39.0,,adl
4.794189,-0.1488,0.5376,0.1836,-0.0864,-0.2521,0.0872,-16.125,8.475,-39.0,,adl
4.797532,-0.1298,0.5963,0.1617,-0.0864,-0.2521,0.0872,-16.125,8.475,-39.0,,adl
4.81402,-0.1298,0.5963,0.1617,-0.0864,-0.2521,0.0872,-16.125,8.475,-39.0,,adl
4.819254,-0.0807,0.5723,0.2528,-0.0864,-0.2521,0.0872,-16.125,8.475,-39.0,,adl
4.823628,-0.0807,0.5723,0.2528,-0.0864,-0.2521,0.0872,-16.125,8.775,-39.3,,adl
4.831937,-0.0807,0.5723,0.2528,-0.0864,-0.2521,0.0872,-16.125,8.775,-39.3,,adl
4.834608,0.0041,0.5297,0.3567,-0.0864,-0.2521,0.0872,-16.125,8.775,-39.3,,adl
4.847871,0.0041,0.5297,0.3567,-0.0864,-0.2521,0.0872,-16.125,8.775,-39.3,,adl
4.850417,0.255,0.5435,0.4858,-0.0864,-0.2521,0.0872,-16.125,8.775,-39.3,,adl
4.855832,0.255,0.5435,0.4858,0.0464,-0.4236,0.1116,-16.125,8.775,-39.3,,adl
4.871333,0.255,0.5435,0.4858,0.0464,-0.4236,0.1116,-16.125,8.775,-39.3,,adl
4.87375,0.4796,0.4851,0.4905,0.0464,-0.4236,0.1116,-16.125,8.775,-39.3,,adl
4.880917,0.4796,0.4851,0.4905,0.0464,-0.4236,0.1116,-16.95,8.475,-38.775,,adl
4.890084,0.4796,0.4851,0.4905,0.0464,-0.4236,0.1116,-16.95,8.475,-38.775,,adl
4.8921,0.5744,0.3777,0.435,0.0464,-0.4236,0.1116,-16.95,8.475,-38.775,,adl
4.910062,0.5744,0.3777,0.435,0.0464,-0.4236,0.1116,-16.95,8.475,-38.775,,adl
4.912469,0.7128,0.3701,0.3911,0.0464,-0.4236,0.1116,-16.95,8.475,-38.775,,adl
4.924694,0.7128,0.3701,0.3911,0.1547,-0.4366,0.0661,-16.95,8.475,-38.775,,adl
4.93013,0.7128,0.3701,0.3911,0.1547,-0.4366,0.0661,-16.95,8.475,-38.775,,adl
4.931514,0.6516,0.4973,0.1623,0.1547,-0.4366,0.0661,-16.95,8.475,-38.775,,adl
4.948118,0.6516,0.4973,0.1623,0.1547,-0.4366,0.0661,-16.95,8.475,-38.775,,adl
4.950062,0.439,0.5463,-0.1295,0.1547,-0.4366,0.0661,-16.95,8.475,-38.775,,adl
4.951962,0.439,0.5463,-0.1295,0.1547,-0.4366,0.0661,-18.15,8.625,-37.8,,adl
4.970302,0.439,0.5463,-0.1295,0.1547,-0.4366,0.0661,-18.15,8.625,-37.8,,adl
4.973244,0.2206,0.4729,-0.1718,0.1547,-0.4366,0.0661,-18.15,8.625,-37.8,,adl
4.988254,0.2206,0.4729,-0.1718,0.1547,-0.4366,0.0661,-18.15,8.625,-37.8,,adl
4.990015,0.0708,0.3487,0.1234,0.1547,-0.4366,0.0661,-18.15,8.625,-37.8,,adl
4.993082,0.0708,0.3487,0.1234,0.0354,-0.4116,0.0585,-18.15,8.625,-37.8,,adl
5.007472,0.0708,0.3487,0.1234,0.0354,-0.4116,0.0585,-18.15,8.625,-37.8,,adl
5.009745,-0.0037,0.2013,0.4615,0.0354,-0.4116,0.0585,-18.15,8.625,-37.8,,adl
5.021779,-0.0037,0.2013,0.4615,0.0354,-0.4116,0.0585,-18.225,7.65,-37.875,,adl
5.032054,-0.0037,0.2013,0.4615,0.0354,-0.4116,0.0585,-18.225,7.65,-37.875,,adl
5.034339,0.0927,0.0923,0.5782,0.0354,-0.4116,0.0585,-18.225,7.65,-37.875,,adl
5.048396,0.0927,0.0923,0.5782,0.0354,-0.4116,0.0585,-18.225,7.65,-37.875,,adl
5.050473,0.4126,-0.0876,0.6711,0.0354,-0.4116,0.0585,-18.225,7.65,-37.875,,adl
5.066431,0.4126,-0.0876,0.6711,0.0606,-0.4901,0.0757,-18.225,7.65,-37.875,,adl
5.071374,0.4126,-0.0876,0.6711,0.0606,-0.4901,0.0757,-18.225,7.65,-37.875,,adl
5.073228,0.644,-0.2136,0.7309,0.0606,-0.4901,0.0757,-18.225,7.65,-37.875,,adl
5.090622,0.644,-0.2136,0.7309,0.0606,-0.4901,0.0757,-18.225,7.65,-37.875,,adl
5.092699,0.6773,-0.2656,0.3683,0.0606,-0.4901,0.0757,-18.225,7.65,-37.875,,adl
5.095159,0.6773,-0.2656,0.3683,0.0606,-0.4901,0.0757,-20.1,8.1,-37.05,,adl
5.110232,0.6773,-0.2656,0.3683,0.0606,-0.4901,0.0757,-20.1,8.1,-37.05,,adl
5.112758,0.5164,-0.474,1.0012,0.0606,-0.4901,0.0757,-20.1,8.1,-37.05,,adl
5.125311,0.5164,-0.474,1.0012,0.0606,-0.4901,0.0757,-20.1,8.1,-37.05,,adl
5.12775,-0.1872,-1.882,-0.3611,0.0606,-0.4901,0.0757,-20.1,8.1,-37.05,,adl
5.138256,-0.1872,-1.882,-0.3611,0.1707,-0.5435,0.0457,-20.1,8.1,-37.05,,adl
5.145534,-0.1872,-1.882,-0.3611,0.1707,-0.5435,0.0457,-20.1,8.1,-37.05,,adl
5.147093,-0.1771,-3.015,-0.0489,0.1707,-0.5435,0.0457,-20.1,8.1,-37.05,,adl
5.159351,-0.1771,-3.015,-0.0489,0.1707,-0.5435,0.0457,-21.15,7.725,-36.225,,adl
5.168692,-0.1771,-3.015,-0.0489,0.1707,-0.5435,0.0457,-21.15,7.725,-36.225,,adl
5.170996,-0.3305,-3.1692,-0.1884,0.1707,-0.5435,0.0457,-21.15,7.725,-36.225,,adl
5.188765,-0.3305,-3.1692,-0.1884,0.1707,-0.5435,0.0457,-21.15,7.725,-36.225,,adl
5.191181,0.01,-2.4684,-0.7388,0.1707,-0.5435,0.0457,-21.15,7.725,-36.225,,adl
5.204319,0.01,-2.4684,-0.7388,0.1374,-0.3534,0.2052,-21.15,7.725,-36.225,,adl
5.209322,0.01,-2.4684,-0.7388,0.1374,-0.3534,0.2052,-21.15,7.725,-36.225,,adl
5.2108,0.082,-1.1451,-0.2353,0.1374,-0.3534,0.2052,-21.15,7.725,-36.225,,adl
5.228799,0.082,-1.1451,-0.2353,0.1374,-0.3534,0.2052,-21.15,7.725,-36.225,,adl
5.230452,0.06,-0.1334,-0.5194,0.1374,-0.3534,0.2052,-21.15,7.725,-36.225,,adl
5.231959,0.06,-0.1334,-0.5194,0.1374,-0.3534,0.2052,-22.35,7.95,-35.625,,adl
5.244107,0.06,-0.1334,-0.5194,0.1374,-0.3534,0.2052,-22.35,7.95,-35.625,,adl
5.245882,-0.337,0.8119,-0.4279,0.1374,-0.3534,0.2052,-22.35,7.95,-35.625,,adl
5.263566,-0.337,0.8119,-0.4279,0.1374,-0.3534,0.2052,-22.35,7.95,-35.625,,adl
5.265111,-0.8024,1.8309,-0.4647,0.1374,-0.3534,0.2052,-22.35,7.95,-35.625,,adl
5.272539,-0.8024,1.8309,-0.4647,0.1454,-0.6057,-0.0254,-22.35,7.95,-35.625,,adl
5.283505,-0.8024,1.8309,-0.4647,0.1454,-0.6057,-0.0254,-22.35,7.95,-35.625,,adl
5.285666,-1.3497,2.5508,-0.9429,0.1454,-0.6057,-0.0254,-22.35,7.95,-35.625,,adl
5.297444,-1.3497,2.5508,-0.9429,0.1454,-0.6057,-0.0254,-23.25,6.9,-34.575,,adl
5.306303,-1.3497,2.5508,-0.9429,0.1454,-0.6057,-0.0254,-23.25,6.9,-34.575,,adl
5.308442,-1.764,2.6323,-1.3723,0.1454,-0.6057,-0.0254,-23.25,6.9,-34.575,,adl
5.325839,-1.764,2.6323,-1.3723,0.1454,-0.6057,-0.0254,-23.25,6.9,-34.575,,adl
5.329029,-2.0118,1.5826,-1.7894,0.1454,-0.6057,-0.0254,-23.25,6.9,-34.575,,adl
5.339951,-2.0118,1.5826,-1.7894,-0.1167,-0.9106,-0.016,-23.25,6.9,-34.575,,adl
5.345202,-2.0118,1.5826,-1.7894,-0.1167,-0.9106,-0.016,-23.25,6.9,-34.575,,adl
5.347329,-1.6969,0.2037,-1.5875,-0.1167,-0.9106,-0.016,-23.25,6.9,-34.575,,adl
5.365147,-1.6969,0.2037,-1.5875,-0.1167,-0.9106,-0.016,-23.25,6.9,-34.575,,adl
5.368599,-0.9717,-0.9263,-1.1855,-0.1167,-0.9106,-0.016,-23.25,6.9,-34.575,,adl
5.371197,-0.9717,-0.9263,-1.1855,-0.1167,-0.9106,-0.016,-25.2,6.9,-33.525,,adl
5.380003,-0.9717,-0.9263,-1.1855,-0.1167,-0.9106,-0.016,-25.2,6.9,-33.525,,adl
5.382175,-0.1602,-1.5252,-0.5615,-0.1167,-0.9106,-0.016,-25.2,6.9,-33.525,,adl
5.403914,-0.1602,-1.5252,-0.5615,-0.1167,-0.9106,-0.016,-25.2,6.9,-33.525,,adl
5.407089,0.2424,-0.9413,-0.185,-0.1167,-0.9106,-0.016,-25.2,6.9,-33.525,,adl
5.413104,0.2424,-0.9413,-0.185,-0.1063,-0.8141,-0.0764,-25.2,6.9,-33.525,,adl
5.428139,0.2424,-0.9413,-0.185,-0.1063,-0.8141,-0.0764,-25.2,6.9,-33.525,,adl
5.430738,0.074,0.1899,-0.1118,-0.1063,-0.8141,-0.0764,-25.2,6.9,-33.525,,adl
5.439056,0.074,0.1899,-0.1118,-0.1063,-0.8141,-0.0764,-28.125,6.525,-32.1,,adl
5.448547,0.074,0.1899,-0.1118,-0.1063,-0.8141,-0.0764,-28.125,6.525,-32.1,,adl
5.449873,-0.2563,0.5648,0.0452,-0.1063,-0.8141,-0.0764,-28.125,6.525,-32.1,,adl
5.46871,-0.2563,0.5648,0.0452,-0.1063,-0.8141,-0.0764,-28.125,6.525,-32.1,,adl
5.4707,-0.5786,0.7412,0.2747,-0.1063,-0.8141,-0.0764,-28.125,6.525,-32.1,,adl
5.483311,-0.5786,0.7412,0.2747,0.0202,-0.688,-0.1548,-28.125,6.525,-32.1,,adl
5.489077,-0.5786,0.7412,0.2747,0.0202,-0.688,-0.1548,-28.125,6.525,-32.1,,adl
5.491033,-0.8039,0.9263,0.2944,0.0202,-0.688,-0.1548,-28.125,6.525,-32.1,,adl
5.507104,-0.8039,0.9263,0.2944,0.0202,-0.688,-0.1548,-28.125,6.525,-32.1,,adl
5.509269,-0.877,0.8663,0.0641,0.0202,-0.688,-0.1548,-28.125,6.525,-32.1,,adl
5.510748,-0.877,0.8663,0.0641,0.0202,-0.688,-0.1548,-29.325,6.375,-30.975,,adl
5.526051,-0.877,0.8663,0.0641,0.0202,-0.688,-0.1548,-29.325,6.375,-30.975,,adl
5.529025,-0.9668,0.7074,-0.0278,0.0202,-0.688,-0.1548,-29.325,6.375,-30.975,,adl
5.545804,-0.9668,0.7074,-0.0278,0.0202,-0.688,-0.1548,-29.325,6.375,-30.975,,adl
5.548244,-0.9808,0.4537,-0.0227,0.0202,-0.688,-0.1548,-29.325,6.375,-30.975,,adl
5.551906,-0.9808,0.4537,-0.0227,-0.1243,-0.5846,-0.1455,-29.325,6.375,-30.975,,adl
5.564991,-0.9808,0.4537,-0.0227,-0.1243,-0.5846,-0.1455,-29.325,6.375,-30.975,,adl
5.567498,-0.9381,0.2579,0.15,-0.1243,-0.5846,-0.1455,-29.325,6.375,-30.975,,adl
5.577509,-0.9381,0.2579,0.15,-0.1243,-0.5846,-0.1455,-30.45,6.45,-28.725,,adl
5.584378,-0.9381,0.2579,0.15,-0.1243,-0.5846,-0.1455,-30.45,6.45,-28.725,,adl
5.586264,-0.7081,0.1499,0.3137,-0.1243,-0.5846,-0.1455,-30.45,6.45,-28.725,,adl
5.605559,-0.7081,0.1499,0.3137,-0.1243,-0.5846,-0.1455,-30.45,6.45,-28.725,,adl
5.609468,-0.4783,0.2116,0.5103,-0.1243,-0.5846,-0.1455,-30.45,6.45,-28.725,,adl
5.618698,-0.4783,0.2116,0.5103,-0.1448,-0.4972,-0.1184,-30.45,6.45,-28.725,,adl
5.623834,-0.4783,0.2116,0.5103,-0.1448,-0.4972,-0.1184,-30.45,6.45,-28.725,,adl
5.625755,-0.3703,0.3998,0.5067,-0.1448,-0.4972,-0.1184,-30.45,6.45,-28.725,,adl
5.644136,-0.3703,0.3998,0.5067,-0.1448,-0.4972,-0.1184,-30.45,6.45,-28.725,,adl
5.648029,-0.3495,0.6314,0.3848,-0.1448,-0.4972,-0.1184,-30.45,6.45,-28.725,,adl
5.650163,-0.3495,0.6314,0.3848,-0.1448,-0.4972,-0.1184,-31.8,6.75,-27.825,,adl
5.667702,-0.3495,0.6314,0.3848,-0.1448,-0.4972,-0.1184,-31.8,6.75,-27.825,,adl
5.670914,-0.4571,0.7615,0.1573,-0.1448,-0.4972,-0.1184,-31.8,6.75,-27.825,,adl
5.688498,-0.4571,0.7615,0.1573,-0.1448,-0.4972,-0.1184,-31.8,6.75,-27.825,,adl
5.691548,-0.5686,0.7382,0.279,-0.1448,-0.4972,-0.1184,-31.8,6.75,-27.825,,adl
5.693762,-0.5686,0.7382,0.279,-0.1678,-0.3259,-0.1451,-31.8,6.75,-27.825,,adl
5.706844,-0.5686,0.7382,0.279,-0.1678,-0.3259,-0.1451,-31.8,6.75,-27.825,,adl
5.709739,-0.6883,0.4922,0.4511,-0.1678,-0.3259,-0.1451,-31.8,6.75,-27.825,,adl
5.719273,-0.6883,0.4922,0.4511,-0.1678,-0.3259,-0.1451,-32.325,5.475,-27.375,,adl
5.726505,-0.6883,0.4922,0.4511,-0.1678,-0.3259,-0.1451,-32.325,5.475,-27.375,,adl
5.729139,-0.5946,0.0539,0.5636,-0.1678,-0.3259,-0.1451,-32.325,5.475,-27.375,,adl
5.746107,-0.5946,0.0539,0.5636,-0.1678,-0.3259,-0.1451,-32.325,5.475,-27.375,,adl
5.748856,-0.4989,-0.2866,0.3267,-0.1678,-0.3259,-0.1451,-32.325,5.475,-27.375,,adl
5.760564,-0.4989,-0.2866,0.3267,-0.1775,-0.1408,-0.1506,-32.325,5.475,-27.375,,adl
5.76777,-0.4989,-0.2866,0.3267,-0.1775,-0.1408,-0.1506,-32.325,5.475,-27.375,,adl
5.770188,-0.5278,-0.4235,0.9481,-0.1775,-0.1408,-0.1506,-32.325,5.475,-27.375,,adl
5.785352,-0.5278,-0.4235,0.9481,-0.1775,-0.1408,-0.1506,-32.325,5.475,-27.375,,adl
5.789016,-0.5545,-0.5384,0.7118,-0.1775,-0.1408,-0.1506,-32.325,5.475,-27.375,,adl
5.791119,-0.5545,-0.5384,0.7118,-0.1775,-0.1408,-0.1506,-33.525,5.925,-25.95,,adl
5.804763,-0.5545,-0.5384,0.7118,-0.1775,-0.1408,-0.1506,-33.525,5.925,-25.95,,adl
5.80781,-0.2703,-0.7463,0.8464,-0.1775,-0.1408,-0.1506,-33.525,5.925,-25.95,,adl
5.825456,-0.2703,-0.7463,0.8464,-0.1775,-0.1408,-0.1506,-33.525,5.925,-25.95,,adl
5.828041,-0.0102,-0.9785,1.4751,-0.1775,-0.1408,-0.1506,-33.525,5.925,-25.95,,adl
5.830731,-0.0102,-0.9785,1.4751,0.0165,0.078,-0.2104,-33.525,5.925,-25.95,,adl
5.839423,-0.0102,-0.9785,1.4751,0.0165,0.078,-0.2104,-33.525,5.925,-25.95,,adl
5.84122,0.9106,-2.3582,-0.5141,0.0165,0.078,-0.2104,-33.525,5.925,-25.95,,adl
5.857946,0.9106,-2.3582,-0.5141,0.0165,0.078,-0.2104,-33.15,5.7,-26.025,,adl
5.859906,0.9106,-2.3582,-0.5141,0.0165,0.078,-0.2104,-33.15,5.7,-26.025,,adl
5.861684,-0.4252,-2.3192,0.8496,0.0165,0.078,-0.2104,-33.15,5.7,-26.025,,adl
5.884128,-0.4252,-2.3192,0.8496,0.0165,0.078,-0.2104,-33.15,5.7,-26.025,,adl
5.886602,-0.3314,-2.0359,0.5296,0.0165,0.078,-0.2104,-33.15,5.7,-26.025,,adl
5.902045,-0.3314,-2.0359,0.5296,0.1675,0.2863,-0.3665,-33.15,5.7,-26.025,,adl
5.907243,-0.3314,-2.0359,0.5296,0.1675,0.2863,-0.3665,-33.15,5.7,-26.025,,adl
5.908763,-0.6015,-2.7864,-1.2089,0.1675,0.2863,-0.3665,-33.15,5.7,-26.025,,adl
5.927069,-0.6015,-2.7864,-1.2089,0.1675,0.2863,-0.3665,-33.15,5.7,-26.025,,adl
5.929634,-0.8823,-1.2835,0.1161,0.1675,0.2863,-0.3665,-33.15,5.7,-26.025,,adl
5.931417,-0.8823,-1.2835,0.1161,0.1675,0.2863,-0.3665,-33.15,4.275,-26.625,,adl
5.946555,-0.8823,-1.2835,0.1161,0.1675,0.2863,-0.3665,-33.15,4.275,-26.625,,adl
5.948925,-0.8179,0.0859,-0.3456,0.1675,0.2863,-0.3665,-33.15,4.275,-26.625,,adl
5.961448,-0.8179,0.0859,-0.3456,0.1675,0.2863,-0.3665,-33.15,4.275,-26.625,,adl
5.964295,-0.9587,1.1788,-0.7883,0.1675,0.2863,-0.3665,-33.15,4.275,-26.625,,adl
5.970672,-0.9587,1.1788,-0.7883,0.2709,0.2508,-0.1831,-33.15,4.275,-26.625,,adl
5.982004,-0.9587,1.1788,-0.7883,0.2709,0.2508,-0.1831,-33.15,4.275,-26.625,,adl
5.983499,-0.7371,2.4204,-1.2352,0.2709,0.2508,-0.1831,-33.15,4.275,-26.625,,adl
5.99893,-0.7371,2.4204,-1.2352,0.2709,0.2508,-0.1831,-32.85,3.15,-27.375,,adl
6.001069,-0.7371,2.4204,-1.2352,0.2709,0.2508,-0.1831,-32.85,3.15,-27.375,,adl
6.002381,-0.3758,2.8632,-1.9542,0.2709,0.2508,-0.1831,-32.85,3.15,-27.375,,adl
6.025813,-0.3758,2.8632,-1.9542,0.2709,0.2508,-0.1831,-32.85,3.15,-27.375,,adl
6.027494,0.1681,2.1949,-2.3451,0.2709,0.2508,-0.1831,-32.85,3.15,-27.375,,adl
6.039913,0.1681,2.1949,-2.3451,0.0362,0.2714,-0.0774,-32.85,3.15,-27.375,,adl
6.045332,0.1681,2.1949,-2.3451,0.0362,0.2714,-0.0774,-32.85,3.15,-27.375,,adl
6.047344,0.7102,0.8566,-2.0226,0.0362,0.2714,-0.0774,-32.85,3.15,-27.375,,adl
6.063621,0.7102,0.8566,-2.0226,0.0362,0.2714,-0.0774,-32.85,3.15,-27.375,,adl
6.065817,0.9525,-0.4367,-1.6353,0.0362,0.2714,-0.0774,-32.85,3.15,-27.375,,adl
6.07364,0.9525,-0.4367,-1.6353,0.0362,0.2714,-0.0774,-31.5,1.95,-28.275,,adl
6.079331,0.9525,-0.4367,-1.6353,0.0362,0.2714,-0.0774,-31.5,1.95,-28.275,,adl
6.081596,0.8372,-0.707,-0.7851,0.0362,0.2714,-0.0774,-31.5,1.95,-28.275,,adl
6.099247,0.8372,-0.707,-0.7851,0.0362,0.2714,-0.0774,-31.5,1.95,-28.275,,adl
6.103,0.417,-0.6311,-0.6101,0.0362,0.2714,-0.0774,-31.5,1.95,-28.275,,adl
6.107723,0.417,-0.6311,-0.6101,-0.197,0.2211,-0.0626,-31.5,1.95,-28.275,,adl
6.124032,0.417,-0.6311,-0.6101,-0.197,0.2211,-0.0626,-31.5,1.95,-28.275,,adl
6.126239,-0.0571,-0.1894,-0.5698,-0.197,0.2211,-0.0626,-31.5,1.95,-28.275,,adl
6.138665,-0.0571,-0.1894,-0.5698,-0.197,0.2211,-0.0626,-31.5,1.95,-28.275,,adl
6.14098,-0.3564,0.399,-0.5061,-0.197,0.2211,-0.0626,-31.5,1.95,-28.275,,adl
6.142451,-0.3564,0.399,-0.5061,-0.197,0.2211,-0.0626,-31.2,2.025,-27.75,,adl
6.162254,-0.3564,0.399,-0.5061,-0.197,0.2211,-0.0626,-31.2,2.025,-27.75,,adl
6.164334,-0.3775,0.5826,-0.3025,-0.197,0.2211,-0.0626,-31.2,2.025,-27.75,,adl
6.176694,-0.3775,0.5826,-0.3025,-0.1087,0.1133,0.0072,-31.2,2.025,-27.75,,adl
6.182447,-0.3775,0.5826,-0.3025,-0.1087,0.1133,0.0072,-31.2,2.025,-27.75,,adl
6.183626,-0.2795,0.5629,-0.1885,-0.1087,0.1133,0.0072,-31.2,2.025,-27.75,,adl
6.199235,-0.2795,0.5629,-0.1885,-0.1087,0.1133,0.0072,-31.2,2.025,-27.75,,adl
6.201827,0.0461,0.5189,-0.0163,-0.1087,0.1133,0.0072,-31.2,2.025,-27.75,,adl
6.207478,0.0461,0.5189,-0.0163,-0.1087,0.1133,0.0072,-31.05,1.8,-28.275,,adl
6.222561,0.0461,0.5189,-0.0163,-0.1087,0.1133,0.0072,-31.05,1.8,-28.275,,adl
6.226491,0.2965,0.3095,0.0235,-0.1087,0.1133,0.0072,-31.05,1.8,-28.275,,adl
6.240021,0.2965,0.3095,0.0235,-0.1087,0.1133,0.0072,-31.05,1.8,-28.275,,adl
6.241977,0.4096,0.0181,0.0155,-0.1087,0.1133,0.0072,-31.05,1.8,-28.275,,adl
6.2445,0.4096,0.0181,0.0155,-0.0799,-0.0024,0.0472,-31.05,1.8,-28.275,,adl
6.260044,0.4096,0.0181,0.0155,-0.0799,-0.0024,0.0472,-31.05,1.8,-28.275,,adl
6.26294,0.5272,-0.1035,0.0718,-0.0799,-0.0024,0.0472,-31.05,1.8,-28.275,,adl
6.278012,0.5272,-0.1035,0.0718,-0.0799,-0.0024,0.0472,-30.45,2.175,-28.725,,adl
6.281314,0.5272,-0.1035,0.0718,-0.0799,-0.0024,0.0472,-30.45,2.175,-28.725,,adl
6.282768,0.5946,0.0754,0.2959,-0.0799,-0.0024,0.0472,-30.45,2.175,-28.725,,adl
6.298168,0.5946,0.0754,0.2959,-0.0799,-0.0024,0.0472,-30.45,2.175,-28.725,,adl
6.300746,0.5429,0.3041,0.3051,-0.0799,-0.0024,0.0472,-30.45,2.175,-28.725,,adl
6.318012,0.5429,0.3041,0.3051,0.0373,-0.1524,0.0226,-30.45,2.175,-28.725,,adl
6.32279,0.5429,0.3041,0.3051,0.0373,-0.1524,0.0226,-30.45,2.175,-28.725,,adl
6.324462,0.4259,0.5834,0.1762,0.0373,-0.1524,0.0226,-30.45,2.175,-28.725,,adl
6.342741,0.4259,0.5834,0.1762,0.0373,-0.1524,0.0226,-30.45,2.175,-28.725,,adl
6.34451,0.4658,0.6938,0.1978,0.0373,-0.1524,0.0226,-30.45,2.175,-28.725,,adl
6.347431,0.4658,0.6938,0.1978,0.0373,-0.1524,0.0226,-30.75,2.175,-27.75,,adl
6.362422,0.4658,0.6938,0.1978,0.0373,-0.1524,0.0226,-30.75,2.175,-27.75,,adl
6.364994,0.46,0.7719,0.0837,0.0373,-0.1524,0.0226,-30.75,2.175,-27.75,,adl
6.381713,0.46,0.7719,0.0837,0.0373,-0.1524,0.0226,-30.75,2.175,-27.75,,adl
6.384465,0.38,0.7002,0.0057,0.0373,-0.1524,0.0226,-30.75,2.175,-27.75,,adl
6.386713,0.38,0.7002,0.0057,0.0461,-0.1642,0.0327,-30.75,2.175,-27.75,,adl
6.398414,0.38,0.7002,0.0057,0.0461,-0.1642,0.0327,-30.75,2.175,-27.75,,adl
6.400495,0.2223,0.5794,0.1263,0.0461,-0.1642,0.0327,-30.75,2.175,-27.75,,adl
6.417948,0.2223,0.5794,0.1263,0.0461,-0.1642,0.0327,-31.05,1.575,-27.075,,adl
6.421531,0.2223,0.5794,0.1263,0.0461,-0.1642,0.0327,-31.05,1.575,-27.075,,adl
6.423496,0.2315,0.5241,0.0079,0.0461,-0.1642,0.0327,-31.05,1.575,-27.075,,adl
6.442474,0.2315,0.5241,0.0079,0.0461,-0.1642,0.0327,-31.05,1.575,-27.075,,adl
6.44547,0.406,0.4448,-0.005,0.0461,-0.1642,0.0327,-31.05,1.575,-27.075,,adl
6.455989,0.406,0.4448,-0.005,-0.0269,-0.1281,0.1002,-31.05,1.575,-27.075,,adl
6.459421,0.406,0.4448,-0.005,-0.0269,-0.1281,0.1002,-31.05,1.575,-27.075,,adl
6.460709,0.4732,0.2318,0.2558,-0.0269,-0.1281,0.1002,-31.05,1.575,-27.075,,adl
6.479218,0.4732,0.2318,0.2558,-0.0269,-0.1281,0.1002,-31.05,1.575,-27.075,,adl
6.481116,0.3258,0.0285,0.1862,-0.0269,-0.1281,0.1002,-31.05,1.575,-27.075,,adl
6.482672,0.3258,0.0285,0.1862,-0.0269,-0.1281,0.1002,-31.05,1.575,-26.4,,adl
6.497803,0.3258,0.0285,0.1862,-0.0269,-0.1281,0.1002,-31.05,1.575,-26.4,,adl
6.49976,0.1043,-0.0954,0.6487,-0.0269,-0.1281,0.1002,-31.05,1.575,-26.4,,adl
6.523452,0.1043,-0.0954,0.6487,-0.0269,-0.1281,0.1002,-31.05,1.575,-26.4,,adl
6.526117,0.0969,-0.1452,0.7651,-0.0269,-0.1281,0.1002,-31.05,1.575,-26.4,,adl
6.527759,0.0969,-0.1452,0.7651,-0.0281,-0.1991,0.1652,-31.05,1.575,-26.4,,adl
6.53816,0.0969,-0.1452,0.7651,-0.0281,-0.1991,0.1652,-31.05,1.575,-26.4,,adl
6.54089,0.0469,-0.1997,0.989,-0.0281,-0.1991,0.1652,-31.05,1.575,-26.4,,adl
6.553803,0.0469,-0.1997,0.989,-0.0281,-0.1991,0.1652,-31.05,2.325,-25.95,,adl
6.562453,0.0469,-0.1997,0.989,-0.0281,-0.1991,0.1652,-31.05,2.325,-25.95,,adl
6.564128,-0.1727,-0.1823,1.3017,-0.0281,-0.1991,0.1652,-31.05,2.325,-25.95,,adl
6.582398,-0.1727,-0.1823,1.3017,-0.0281,-0.1991,0.1652,-31.05,2.325,-25.95,,adl
6.585682,-0.192,0.0156,1.0624,-0.0281,-0.1991,0.1652,-31.05,2.325,-25.95,,adl
6.597348,-0.192,0.0156,1.0624,0.1561,-0.4294,0.2552,-31.05,2.325,-25.95,,adl
6.59975,-0.192,0.0156,1.0624,0.1561,-0.4294,0.2552,-31.05,2.325,-25.95,,adl
6.601527,-0.0478,0.0259,1.1314,0.1561,-0.4294,0.2552,-31.05,2.325,-25.95,,adl
6.616605,-0.0478,0.0259,1.1314,0.1561,-0.4294,0.2552,-31.05,2.325,-25.95,,adl
6.618768,-0.948,-2.7909,-1.319,0.1561,-0.4294,0.2552,-31.05,2.325,-25.95,,adl
6.625546,-0.948,-2.7909,-1.319,0.1561,-0.4294,0.2552,-31.35,2.475,-24.75,,adl
6.636417,-0.948,-2.7909,-1.319,0.1561,-0.4294,0.2552,-31.35,2.475,-24.75,,adl
6.638987,0.1557,-2.3347,0.8453,0.1561,-0.4294,0.2552,-31.35,2.475,-24.75,,adl
6.660786,0.1557,-2.3347,0.8453,0.1561,-0.4294,0.2552,-31.35,2.475,-24.75,,adl
6.662973,0.7686,-1.3963,-0.5091,0.1561,-0.4294,0.2552,-31.35,2.475,-24.75,,adl
6.665335,0.7686,-1.3963,-0.5091,0.1686,-0.4581,0.3735,-31.35,2.475,-24.75,,adl
6.680635,0.7686,-1.3963,-0.5091,0.1686,-0.4581,0.3735,-31.35,2.475,-24.75,,adl
6.683167,0.6527,-1.8795,-1.935,0.1686,-0.4581,0.3735,-31.35,2.475,-24.75,,adl
6.690882,0.6527,-1.8795,-1.935,0.1686,-0.4581,0.3735,-31.05,2.775,-23.85,,adl
6.699457,0.6527,-1.8795,-1.935,0.1686,-0.4581,0.3735,-31.05,2.775,-23.85,,adl
6.700884,0.7145,-0.5966,-0.6692,0.1686,-0.4581,0.3735,-31.05,2.775,-23.85,,adl
6.720395,0.7145,-0.5966,-0.6692,0.1686,-0.4581,0.3735,-31.05,2.775,-23.85,,adl
6.722525,0.3441,0.5884,-1.3751,0.1686,-0.4581,0.3735,-31.05,2.775,-23.85,,adl
6.738045,0.3441,0.5884,-1.3751,0.035,-0.4003,0.2289,-31.05,2.775,-23.85,,adl
6.740057,0.3441,0.5884,-1.3751,0.035,-0.4003,0.2289,-31.05,2.775,-23.85,,adl
6.741504,-0.283,1.2783,-1.4459,0.035,-0.4003,0.2289,-31.05,2.775,-23.85,,adl
6.758784,-0.283,1.2783,-1.4459,0.035,-0.4003,0.2289,-31.05,2.775,-23.85,,adl
6.762572,-0.5567,1.7681,-1.4755,0.035,-0.4003,0.2289,-31.05,2.775,-23.85,,adl
6.766653,-0.5567,1.7681,-1.4755,0.035,-0.4003,0.2289,-31.05,3.225,-22.2,,adl
6.773622,-0.5567,1.7681,-1.4755,0.035,-0.4003,0.2289,-31.05,3.225,-22.2,,adl
6.775952,-0.7442,1.7896,-1.5236,0.035,-0.4003,0.2289,-31.05,3.225,-22.2,,adl
6.798111,-0.7442,1.7896,-1.5236,0.035,-0.4003,0.2289,-31.05,3.225,-22.2,,adl
6.802892,-0.9652,1.2354,-1.5476,0.035,-0.4003,0.2289,-31.05,3.225,-22.2,,adl
6.805836,-0.9652,1.2354,-1.5476,-0.1275,-0.6293,0.0936,-31.05,3.225,-22.2,,adl
6.822022,-0.9652,1.2354,-1.5476,-0.1275,-0.6293,0.0936,-31.05,3.225,-22.2,,adl
6.824817,-1.1402,0.2751,-1.1302,-0.1275,-0.6293,0.0936,-31.05,3.225,-22.2,,adl
6.83204,-1.1402,0.2751,-1.1302,-0.1275,-0.6293,0.0936,-31.5,3.3,-20.475,,adl
6.840383,-1.1402,0.2751,-1.1302,-0.1275,-0.6293,0.0936,-31.5,3.3,-20.475,,adl
6.842157,-1.116,-0.5567,-0.8583,-0.1275,-0.6293,0.0936,-31.5,3.3,-20.475,,adl
6.856908,-1.116,-0.5567,-0.8583,-0.1275,-0.6293,0.0936,-31.5,3.3,-20.475,,adl
6.860372,-0.6428,-0.8084,-1.0237,-0.1275,-0.6293,0.0936,-31.5,3.3,-20.475,,adl
6.87596,-0.6428,-0.8084,-1.0237,-0.1512,-0.5284,0.084,-31.5,3.3,-20.475,,adl
6.886484,-0.6428,-0.8084,-1.0237,-0.1512,-0.5284,0.084,-31.5,3.3,-20.475,,adl
6.887942,-0.0363,-0.4563,-1.1007,-0.1512,-0.5284,0.084,-31.5,3.3,-20.475,,adl
6.898521,-0.0363,-0.4563,-1.1007,-0.1512,-0.5284,0.084,-31.5,3.3,-20.475,,adl
6.899514,0.2469,-0.0075,-0.8334,-0.1512,-0.5284,0.084,-31.5,3.3,-20.475,,adl
6.900193,0.2469,-0.0075,-0.8334,-0.1512,-0.5284,0.084,-32.1,4.35,-18.975,,adl
6.922172,0.2469,-0.0075,-0.8334,-0.1512,-0.5284,0.084,-32.1,4.35,-18.975,,adl
6.923749,0.2703,0.2103,-0.5031,-0.1512,-0.5284,0.084,-32.1,4.35,-18.975,,adl
6.941896,0.2703,0.2103,-0.5031,-0.1512,-0.5284,0.084,-32.1,4.35,-18.975,,adl
6.943635,0.2215,0.3847,-0.2105,-0.1512,-0.5284,0.084,-32.1,4.35,-18.975,,adl
6.945261,0.2215,0.3847,-0.2105,-0.0255,-0.3673,-0.0376,-32.1,4.35,-18.975,,adl
6.959972,0.2215,0.3847,-0.2105,-0.0255,-0.3673,-0.0376,-32.1,4.35,-18.975,,adl
6.96205,0.0452,0.5378,-0.1157,-0.0255,-0.3673,-0.0376,-32.1,4.35,-18.975,,adl
6.971123,0.0452,0.5378,-0.1157,-0.0255,-0.3673,-0.0376,-32.1,3.975,-18.45,,adl
6.979116,0.0452,0.5378,-0.1157,-0.0255,-0.3673,-0.0376,-32.1,3.975,-18.45,,adl
6.980655,-0.2339,0.5437,-0.1997,-0.0255,-0.3673,-0.0376,-32.1,3.975,-18.45,,adl
6.999369,-0.2339,0.5437,-0.1997,-0.0255,-0.3673,-0.0376,-32.1,3.975,-18.45,,adl
7.001238,-0.4681,0.4345,-0.1542,-0.0255,-0.3673,-0.0376,-32.1,3.975,-18.45,,adl
7.013822,-0.4681,0.4345,-0.1542,-0.0238,-0.1326,-0.113,-32.1,3.975,-18.45,,adl
7.019029,-0.4681,0.4345,-0.1542,-0.0238,-0.1326,-0.113,-32.1,3.975,-18.45,,adl
7.021272,-0.6543,0.3336,0.0167,-0.0238,-0.1326,-0.113,-32.1,3.975,-18.45,,adl
7.041779,-0.6543,0.3336,0.0167,-0.0238,-0.1326,-0.113,-32.1,3.975,-18.45,,adl
7.045214,-0.6956,0.2182,0.0138,-0.0238,-0.1326,-0.113,-32.1,3.975,-18.45,,adl
7.047048,-0.6956,0.2182,0.0138,-0.0238,-0.1326,-0.113,-32.4,3.075,-17.55,,adl
7.057077,-0.6956,0.2182,0.0138,-0.0238,-0.1326,-0.113,-32.4,3.075,-17.55,,adl
7.059452,-0.5969,0.1081,0.2037,-0.0238,-0.1326,-0.113,-32.4,3.075,-17.55,,adl
7.077053,-0.5969,0.1081,0.2037,-0.0238,-0.1326,-0.113,-32.4,3.075,-17.55,,adl
7.079904,-0.4612,0.1104,0.4589,-0.0238,-0.1326,-0.113,-32.4,3.075,-17.55,,adl
7.08185,-0.4612,0.1104,0.4589,-0.0589,0.0205,-0.1188,-32.4,3.075,-17.55,,adl
7.095633,-0.4612,0.1104,0.4589,-0.0589,0.0205,-0.1188,-32.4,3.075,-17.55,,adl
7.098506,-0.3878,0.2258,0.5773,-0.0589,0.0205,-0.1188,-32.4,3.075,-17.55,,adl
7.107556,-0.3878,0.2258,0.5773,-0.0589,0.0205,-0.1188,-32.4,2.85,-17.25,,adl
7.114771,-0.3878,0.2258,0.5773,-0.0589,0.0205,-0.1188,-32.4,2.85,-17.25,,adl
7.116101,-0.3968,0.3228,0.6012,-0.0589,0.0205,-0.1188,-32.4,2.85,-17.25,,adl
7.135087,-0.3968,0.3228,0.6012,-0.0589,0.0205,-0.1188,-32.4,2.85,-17.25,,adl
7.139845,-0.4869,0.3857,0.4547,-0.0589,0.0205,-0.1188,-32.4,2.85,-17.25,,adl
7.15446,-0.4869,0.3857,0.4547,-0.0199,0.1213,-0.113,-32.4,2.85,-17.25,,adl
7.159115,-0.4869,0.3857,0.4547,-0.0199,0.1213,-0.113,-32.4,2.85,-17.25,,adl
7.16154,-0.5934,0.4884,0.3164,-0.0199,0.1213,-0.113,-32.4,2.85,-17.25,,adl
7.179126,-0.5934,0.4884,0.3164,-0.0199,0.1213,-0.113,-32.4,2.85,-17.25,,adl
7.182991,-0.6865,0.555,0.2947,-0.0199,0.1213,-0.113,-32.4,2.85,-17.25,,adl
7.186248,-0.6865,0.555,0.2947,-0.0199,0.1213,-0.113,-31.125,3.525,-18.375,,adl
7.198981,-0.6865,0.555,0.2947,-0.0199,0.1213,-0.113,-31.125,3.525,-18.375,,adl
7.20261,-0.823,0.33,0.3021,-0.0199,0.1213,-0.113,-31.125,3.525,-18.375,,adl
7.219822,-0.823,0.33,0.3021,-0.0199,0.1213,-0.113,-31.125,3.525,-18.375,,adl
7.225944,-0.8131,-0.0024,0.3753,-0.0199,0.1213,-0.113,-31.125,3.525,-18.375,,adl
7.229967,-0.8131,-0.0024,0.3753,-0.0159,0.1848,-0.135,-31.125,3.525,-18.375,,adl
7.242307,-0.8131,-0.0024,0.3753,-0.0159,0.1848,-0.135,-31.125,3.525,-18.375,,adl
7.244345,-0.7467,-0.3026,0.484,-0.0159,0.1848,-0.135,-31.125,3.525,-18.375,,adl
7.248137,-0.7467,-0.3026,0.484,-0.0159,0.1848,-0.135,-30.75,3.3,-18.9,,adl
7.256595,-0.7467,-0.3026,0.484,-0.0159,0.1848,-0.135,-30.75,3.3,-18.9,,adl
7.258333,-0.8497,-0.0584,0.2559,-0.0159,0.1848,-0.135,-30.75,3.3,-18.9,,adl
7.276887,-0.8497,-0.0584,0.2559,-0.0159,0.1848,-0.135,-30.75,3.3,-18.9,,adl
7.279648,-0.9591,0.2875,0.2775,-0.0159,0.1848,-0.135,-30.75,3.3,-18.9,,adl
7.291248,-0.9591,0.2875,0.2775,0.0191,0.0577,-0.1975,-30.75,3.3,-18.9,,adl
7.296708,-0.9591,0.2875,0.2775,0.0191,0.0577,-0.1975,-30.75,3.3,-18.9,,adl
7.298323,-0.4291,0.3533,0.0185,0.0191,0.0577,-0.1975,-30.75,3.3,-18.9,,adl
7.317077,-0.4291,0.3533,0.0185,0.0191,0.0577,-0.1975,-30.75,3.3,-18.9,,adl
7.319638,0.1047,-0.0162,0.8581,0.0191,0.0577,-0.1975,-30.75,3.3,-18.9,,adl
7.321659,0.1047,-0.0162,0.8581,0.0191,0.0577,-0.1975,-31.65,2.925,-19.5,,adl
7.330889,0.1047,-0.0162,0.8581,0.0191,0.0577,-0.1975,-31.65,2.925,-19.5,,adl
7.332754,0.8007,-1.7638,0.4269,0.0191,0.0577,-0.1975,-31.65,2.925,-19.5,,adl
7.351772,0.8007,-1.7638,0.4269,0.0191,0.0577,-0.1975,-31.65,2.925,-19.5,,adl
7.35363,0.2409,-1.8689,0.9392,0.0191,0.0577,-0.1975,-31.65,2.925,-19.5,,adl
7.360735,0.2409,-1.8689,0.9392,0.1736,0.1802,-0.2898,-31.65,2.925,-19.5,,adl
7.375331,0.2409,-1.8689,0.9392,0.1736,0.1802,-0.2898,-31.65,2.925,-19.5,,adl
7.377123,0.36,-1.1785,-0.008,0.1736,0.1802,-0.2898,-31.65,2.925,-19.5,,adl
7.388537,0.36,-1.1785,-0.008,0.1736,0.1802,-0.2898,-30.45,2.25,-20.625,,adl
7.394831,0.36,-1.1785,-0.008,0.1736,0.1802,-0.2898,-30.45,2.25,-20.625,,adl
7.397882,-0.1926,-1.3909,-1.1992,0.1736,0.1802,-0.2898,-30.45,2.25,-20.625,,adl
7.414376,-0.1926,-1.3909,-1.1992,0.1736,0.1802,-0.2898,-30.45,2.25,-20.625,,adl
7.418388,-0.3621,-0.4379,-1.2708,0.1736,0.1802,-0.2898,-30.45,2.25,-20.625,,adl
7.43416,-0.3621,-0.4379,-1.2708,0.217,0.2115,-0.2876,-30.45,2.25,-20.625,,adl
7.437645,-0.3621,-0.4379,-1.2708,0.217,0.2115,-0.2876,-30.45,2.25,-20.625,,adl
7.438989,-0.4854,-0.177,-1.8429,0.217,0.2115,-0.2876,-30.45,2.25,-20.625,,adl
7.45776,-0.4854,-0.177,-1.8429,0.217,0.2115,-0.2876,-30.45,2.25,-20.625,,adl
7.460386,-0.5072,0.0661,-1.2158,0.217,0.2115,-0.2876,-30.45,2.25,-20.625,,adl
7.472006,-0.5072,0.0661,-1.2158,0.217,0.2115,-0.2876,-29.55,1.5,-21.825,,adl
7.477179,-0.5072,0.0661,-1.2158,0.217,0.2115,-0.2876,-29.55,1.5,-21.825,,adl
7.478683,-0.5304,0.2693,-0.51,0.217,0.2115,-0.2876,-29.55,1.5,-21.825,,adl
7.496527,-0.5304,0.2693,-0.51,0.217,0.2115,-0.2876,-29.55,1.5,-21.825,,adl
7.499105,-0.424,0.3801,-0.2088,0.217,0.2115,-0.2876,-29.55,1.5,-21.825,,adl
7.501066,-0.424,0.3801,-0.2088,0.0576,0.2614,-0.1321,-29.55,1.5,-21.825,,adl
7.517309,-0.424,0.3801,-0.2088,0.0576,0.2614,-0.1321,-29.55,1.5,-21.825,,adl
7.519302,-0.234,0.551,-0.4519,0.0576,0.2614,-0.1321,-29.55,1.5,-21.825,,adl
7.52834,-0.234,0.551,-0.4519,0.0576,0.2614,-0.1321,-30.15,0.6,-21.9,,adl
7.536998,-0.234,0.551,-0.4519,0.0576,0.2614,-0.1321,-30.15,0.6,-21.9,,adl
7.53895,0.0425,0.7212,-0.9515,0.0576,0.2614,-0.1321,-30.15,0.6,-21.9,,adl
7.557709,0.0425,0.7212,-0.9515,0.0576,0.2614,-0.1321,-30.15,0.6,-21.9,,adl
7.560456,0.2563,0.7282,-1.3741,0.0576,0.2614,-0.1321,-30.15,0.6,-21.9,,adl
7.572896,0.2563,0.7282,-1.3741,0.1468,0.212,-0.1022,-30.15,0.6,-21.9,,adl
7.575486,0.2563,0.7282,-1.3741,0.1468,0.212,-0.1022,-30.15,0.6,-21.9,,adl
7.577367,0.3141,0.5313,-1.3681,0.1468,0.212,-0.1022,-30.15,0.6,-21.9,,adl
7.594795,0.3141,0.5313,-1.3681,0.1468,0.212,-0.1022,-30.15,0.6,-21.9,,adl
7.598225,0.2296,0.1733,-1.1095,0.1468,0.212,-0.1022,-30.15,0.6,-21.9,,adl
7.599864,0.2296,0.1733,-1.1095,0.1468,0.212,-0.1022,-29.4,0.75,-22.875,,adl
7.614078,0.2296,0.1733,-1.1095,0.1468,0.212,-0.1022,-29.4,0.75,-22.875,,adl
7.616342,0.1765,0.0021,-0.9303,0.1468,0.212,-0.1022,-29.4,0.75,-22.875,,adl
7.634271,0.1765,0.0021,-0.9303,0.1468,0.212,-0.1022,-29.4,0.75,-22.875,,adl
7.637632,0.0789,0.1119,-0.9244,0.1468,0.212,-0.1022,-29.4,0.75,-22.875,,adl
7.639491,0.0789,0.1119,-0.9244,0.029,-0.0038,-0.1231,-29.4,0.75,-22.875,,adl
7.657872,0.0789,0.1119,-0.9244,0.029,-0.0038,-0.1231,-29.4,0.75,-22.875,,adl
7.660653,-0.0595,0.3598,-1.091,0.029,-0.0038,-0.1231,-29.4,0.75,-22.875,,adl
7.671946,-0.0595,0.3598,-1.091,0.029,-0.0038,-0.1231,-29.325,0.3,-22.875,,adl
7.677898,-0.0595,0.3598,-1.091,0.029,-0.0038,-0.1231,-29.325,0.3,-22.875,,adl
7.67955,-0.1327,0.566,-1.2979,0.029,-0.0038,-0.1231,-29.325,0.3,-22.875,,adl
7.696561,-0.1327,0.566,-1.2979,0.029,-0.0038,-0.1231,-29.325,0.3,-22.875,,adl
7.699295,-0.1068,0.5575,-1.1388,0.029,-0.0038,-0.1231,-29.325,0.3,-22.875,,adl
7.711624,-0.1068,0.5575,-1.1388,-0.1429,-0.2031,-0.0713,-29.325,0.3,-22.875,,adl
7.7175,-0.1068,0.5575,-1.1388,-0.1429,-0.2031,-0.0713,-29.325,0.3,-22.875,,adl
7.719196,-0.0212,0.2931,-0.8356,-0.1429,-0.2031,-0.0713,-29.325,0.3,-22.875,,adl
7.738713,-0.0212,0.2931,-0.8356,-0.1429,-0.2031,-0.0713,-29.325,0.3,-22.875,,adl
7.741546,0.0089,0.1046,-0.4902,-0.1429,-0.2031,-0.0713,-29.325,0.3,-22.875,,adl
7.742987,0.0089,0.1046,-0.4902,-0.1429,-0.2031,-0.0713,-29.25,-0.075,-23.4,,adl
7.755785,0.0089,0.1046,-0.4902,-0.1429,-0.2031,-0.0713,-29.25,-0.075,-23.4,,adl
7.758136,0.0596,0.097,-0.3724,-0.1429,-0.2031,-0.0713,-29.25,-0.075,-23.4,,adl
7.776367,0.0596,0.097,-0.3724,-0.1429,-0.2031,-0.0713,-29.25,-0.075,-23.4,,adl
7.778395,0.0225,0.064,-0.4223,-0.1429,-0.2031,-0.0713,-29.25,-0.075,-23.4,,adl
7.781509,0.0225,0.064,-0.4223,-0.1716,-0.4349,-0.0739,-29.25,-0.075,-23.4,,adl
7.796545,0.0225,0.064,-0.4223,-0.1716,-0.4349,-0.0739,-29.25,-0.075,-23.4,,adl
7.798873,0.0592,0.0215,-0.358,-0.1716,-0.4349,-0.0739,-29.25,-0.075,-23.4,,adl
7.808122,0.0592,0.0215,-0.358,-0.1716,-0.4349,-0.0739,-29.625,0.15,-22.05,,adl
7.815613,0.0592,0.0215,-0.358,-0.1716,-0.4349,-0.0739,-29.625,0.15,-22.05,,adl
7.81723,0.0932,-0.0528,-0.179,-0.1716,-0.4349,-0.0739,-29.625,0.15,-22.05,,adl
7.834037,0.0932,-0.0528,-0.179,-0.1716,-0.4349,-0.0739,-29.625,0.15,-22.05,,adl
7.837115,0.081,-0.1162,-0.0008,-0.1716,-0.4349,-0.0739,-29.625,0.15,-22.05,,adl
7.848693,0.081,-0.1162,-0.0008,-0.044,-0.7416,-0.0762,-29.625,0.15,-22.05,,adl
7.85789,0.081,-0.1162,-0.0008,-0.044,-0.7416,-0.0762,-29.625,0.15,-22.05,,adl
7.85981,0.1275,-0.0799,0.0345,-0.044,-0.7416,-0.0762,-29.625,0.15,-22.05,,adl
7.873227,0.1275,-0.0799,0.0345,-0.044,-0.7416,-0.0762,-29.625,0.15,-22.05,,adl
7.875682,0.1354,0.0048,0.0323,-0.044,-0.7416,-0.0762,-29.625,0.15,-22.05,,adl
7.877988,0.1354,0.0048,0.0323,-0.044,-0.7416,-0.0762,-31.2,0.375,-20.925,,adl
7.893229,0.1354,0.0048,0.0323,-0.044,-0.7416,-0.0762,-31.2,0.375,-20.925,,adl
7.89555,0.1962,0.0014,0.0154,-0.044,-0.7416,-0.0762,-31.2,0.375,-20.925,,adl
7.918719,0.1962,0.0014,0.0154,-0.044,-0.7416,-0.0762,-31.2,0.375,-20.925,,adl
7.923155,0.3148,0.0174,0.0416,-0.044,-0.7416,-0.0762,-31.2,0.375,-20.925,,adl
7.92649,0.3148,0.0174,0.0416,0.0815,-0.9905,-0.053,-31.2,0.375,-20.925,,adl
7.942312,0.3148,0.0174,0.0416,0.0815,-0.9905,-0.053,-31.2,0.375,-20.925,,adl
7.944953,0.4249,0.0935,0.058,0.0815,-0.9905,-0.053,-31.2,0.375,-20.925,,adl
7.947664,0.4249,0.0935,0.058,0.0815,-0.9905,-0.053,-31.725,0.075,-19.35,,adl
7.957077,0.4249,0.0935,0.058,0.0815,-0.9905,-0.053,-31.725,0.075,-19.35,,adl
7.959297,0.3648,0.1157,-0.1079,0.0815,-0.9905,-0.053,-31.725,0.075,-19.35,,adl
7.975933,0.3648,0.1157,-0.1079,0.0815,-0.9905,-0.053,-31.725,0.075,-19.35,,adl
7.978256,0.3852,0.1276,-0.1814,0.0815,-0.9905,-0.053,-31.725,0.075,-19.35,,adl
7.99048,0.3852,0.1276,-0.1814,0.1243,-1.1405,-0.0392,-31.725,0.075,-19.35,,adl
7.995434,0.3852,0.1276,-0.1814,0.1243,-1.1405,-0.0392,-31.725,0.075,-19.35,,adl
7.997254,0.3597,0.1138,-0.0958,0.1243,-1.1405,-0.0392,-31.725,0.075,-19.35,,adl
8.014712,0.3597,0.1138,-0.0958,0.1243,-1.1405,-0.0392,-31.725,0.075,-19.35,,adl
8.017343,0.3981,0.1092,0.0999,0.1243,-1.1405,-0.0392,-31.725,0.075,-19.35,,adl
8.019019,0.3981,0.1092,0.0999,0.1243,-1.1405,-0.0392,-33.225,0.225,-16.275,,adl
8.034901,0.3981,0.1092,0.0999,0.1243,-1.1405,-0.0392,-33.225,0.225,-16.275,,adl
8.037428,0.4566,0.1741,0.1723,0.1243,-1.1405,-0.0392,-33.225,0.225,-16.275,,adl
8.0541,0.4566,0.1741,0.1723,0.1243,-1.1405,-0.0392,-33.225,0.225,-16.275,,adl
8.056085,0.5356,0.2788,-0.0934,0.1243,-1.1405,-0.0392,-33.225,0.225,-16.275,,adl
8.058687,0.5356,0.2788,-0.0934,0.1481,-1.3035,-0.0333,-33.225,0.225,-16.275,,adl
8.074152,0.5356,0.2788,-0.0934,0.1481,-1.3035,-0.0333,-33.225,0.225,-16.275,,adl
8.07666,0.5707,0.4021,-0.1042,0.1481,-1.3035,-0.0333,-33.225,0.225,-16.275,,adl
8.087492,0.5707,0.4021,-0.1042,0.1481,-1.3035,-0.0333,-34.2,-0.375,-12.675,,adl
8.093838,0.5707,0.4021,-0.1042,0.1481,-1.3035,-0.0333,-34.2,-0.375,-12.675,,adl
8.095447,0.7089,0.2709,0.1614,0.1481,-1.3035,-0.0333,-34.2,-0.375,-12.675,,adl
8.11283,0.7089,0.2709,0.1614,0.1481,-1.3035,-0.0333,-34.2,-0.375,-12.675,,adl
8.115076,0.8987,0.0687,-0.1012,0.1481,-1.3035,-0.0333,-34.2,-0.375,-12.675,,adl
8.12802,0.8987,0.0687,-0.1012,0.1365,-1.3781,-0.0244,-34.2,-0.375,-12.675,,adl
8.135312,0.8987,0.0687,-0.1012,0.1365,-1.3781,-0.0244,-34.2,-0.375,-12.675,,adl
8.138765,0.839,0.0099,0.4759,0.1365,-1.3781,-0.0244,-34.2,-0.375,-12.675,,adl
8.157348,0.839,0.0099,0.4759,0.1365,-1.3781,-0.0244,-34.2,-0.375,-12.675,,adl
8.159762,0.8588,-0.0566,0.5203,0.1365,-1.3781,-0.0244,-34.2,-0.375,-12.675,,adl
8.161592,0.8588,-0.0566,0.5203,0.1365,-1.3781,-0.0244,-35.025,-1.425,-9.075,,adl
8.176507,0.8588,-0.0566,0.5203,0.1365,-1.3781,-0.0244,-35.025,-1.425,-9.075,,adl
8.178755,0.6964,0.1926,0.1865,0.1365,-1.3781,-0.0244,-35.025,-1.425,-9.075,,adl
8.196297,0.6964,0.1926,0.1865,0.1365,-1.3781,-0.0244,-35.025,-1.425,-9.075,,adl
8.199698,0.7329,0.4072,0.0023,0.1365,-1.3781,-0.0244,-35.025,-1.425,-9.075,,adl
8.201562,0.7329,0.4072,0.0023,0.2115,-1.4613,0.0076,-35.025,-1.425,-9.075,,adl
8.215435,0.7329,0.4072,0.0023,0.2115,-1.4613,0.0076,-35.025,-1.425,-9.075,,adl
8.218065,0.7562,0.3327,-0.068,0.2115,-1.4613,0.0076,-35.025,-1.425,-9.075,,adl
8.22753,0.7562,0.3327,-0.068,0.2115,-1.4613,0.0076,-35.55,-1.425,-5.475,,adl
8.23938,0.7562,0.3327,-0.068,0.2115,-1.4613,0.0076,-35.55,-1.425,-5.475,,adl
8.241301,0.8376,0.2392,-0.087,0.2115,-1.4613,0.0076,-35.55,-1.425,-5.475,,adl
8.254721,0.8376,0.2392,-0.087,0.2115,-1.4613,0.0076,-35.55,-1.425,-5.475,,adl
8.257632,0.8108,0.1317,-0.1475,0.2115,-1.4613,0.0076,-35.55,-1.425,-5.475,,adl
8.270073,0.8108,0.1317,-0.1475,0.1248,-1.397,0.1103,-35.55,-1.425,-5.475,,adl
8.274077,0.8108,0.1317,-0.1475,0.1248,-1.397,0.1103,-35.55,-1.425,-5.475,,adl
8.275548,0.5487,-0.1377,-0.4512,0.1248,-1.397,0.1103,-35.55,-1.425,-5.475,,adl
8.294123,0.5487,-0.1377,-0.4512,0.1248,-1.397,0.1103,-35.55,-1.425,-5.475,,adl
8.296873,-0.057,-0.7668,-0.7545,0.1248,-1.397,0.1103,-35.55,-1.425,-5.475,,adl
8.299502,-0.057,-0.7668,-0.7545,0.1248,-1.397,0.1103,-36.0,-0.975,-1.8,,adl
8.314285,-0.057,-0.7668,-0.7545,0.1248,-1.397,0.1103,-36.0,-0.975,-1.8,,adl
8.317656,-0.5018,-1.1126,-0.2566,0.1248,-1.397,0.1103,-36.0,-0.975,-1.8,,adl
8.33368,-0.5018,-1.1126,-0.2566,0.1248,-1.397,0.1103,-36.0,-0.975,-1.8,,adl
8.33814,-0.7017,-0.5714,0.7336,0.1248,-1.397,0.1103,-36.0,-0.975,-1.8,,adl
8.340476,-0.7017,-0.5714,0.7336,0.0171,-1.4764,0.2668,-36.0,-0.975,-1.8,,adl
8.348363,-0.7017,-0.5714,0.7336,0.0171,-1.4764,0.2668,-36.0,-0.975,-1.8,,adl
8.350577,-0.5202,0.1837,0.6618,0.0171,-1.4764,0.2668,-36.0,-0.975,-1.8,,adl
8.367277,-0.5202,0.1837,0.6618,0.0171,-1.4764,0.2668,-36.825,-0.225,1.575,,adl
8.369885,-0.5202,0.1837,0.6618,0.0171,-1.4764,0.2668,-36.825,-0.225,1.575,,adl
8.371223,-0.1794,0.5914,0.2354,0.0171,-1.4764,0.2668,-36.825,-0.225,1.575,,adl
8.391591,-0.1794,0.5914,0.2354,0.0171,-1.4764,0.2668,-36.825,-0.225,1.575,,adl
8.394876,0.2287,0.7531,-0.1998,0.0171,-1.4764,0.2668,-36.825,-0.225,1.575,,adl
8.406689,0.2287,0.7531,-0.1998,0.0351,-1.4611,0.3062,-36.825,-0.225,1.575,,adl
8.411788,0.2287,0.7531,-0.1998,0.0351,-1.4611,0.3062,-36.825,-0.225,1.575,,adl
8.413597,0.3053,0.7453,-0.3372,0.0351,-1.4611,0.3062,-36.825,-0.225,1.575,,adl
8.430624,0.3053,0.7453,-0.3372,0.0351,-1.4611,0.3062,-36.825,-0.225,1.575,,adl
8.433171,0.1667,0.4308,-0.2981,0.0351,-1.4611,0.3062,-36.825,-0.225,1.575,,adl
8.437445,0.1667,0.4308,-0.2981,0.0351,-1.4611,0.3062,-35.1,0.975,5.1,,adl
8.447993,0.1667,0.4308,-0.2981,0.0351,-1.4611,0.3062,-35.1,0.975,5.1,,adl
8.449649,-0.2136,-0.0822,-0.1572,0.0351,-1.4611,0.3062,-35.1,0.975,5.1,,adl
8.471074,-0.2136,-0.0822,-0.1572,0.0351,-1.4611,0.3062,-35.1,0.975,5.1,,adl
8.474524,-0.5405,-0.3447,0.0853,0.0351,-1.4611,0.3062,-35.1,0.975,5.1,,adl
8.477112,-0.5405,-0.3447,0.0853,-0.1634,-1.3555,0.2026,-35.1,0.975,5.1,,adl
8.489462,-0.5405,-0.3447,0.0853,-0.1634,-1.3555,0.2026,-35.1,0.975,5.1,,adl
8.492049,-0.6052,-0.3586,0.2793,-0.1634,-1.3555,0.2026,-35.1,0.975,5.1,,adl
8.507903,-0.6052,-0.3586,0.2793,-0.1634,-1.3555,0.2026,-34.35,0.825,9.825,,adl
8.513653,-0.6052,-0.3586,0.2793,-0.1634,-1.3555,0.2026,-34.35,0.825,9.825,,adl
8.514993,-0.7319,-0.1112,0.2629,-0.1634,-1.3555,0.2026,-34.35,0.825,9.825,,adl
8.533482,-0.7319,-0.1112,0.2629,-0.1634,-1.3555,0.2026,-34.35,0.825,9.825,,adl
8.53744,-0.9135,0.3529,0.2317,-0.1634,-1.3555,0.2026,-34.35,0.825,9.825,,adl
8.547795,-0.9135,0.3529,0.2317,-0.1552,-1.2641,0.1616,-34.35,0.825,9.825,,adl
8.550241,-0.9135,0.3529,0.2317,-0.1552,-1.2641,0.1616,-34.35,0.825,9.825,,adl
8.552002,-0.9473,0.5685,0.2701,-0.1552,-1.2641,0.1616,-34.35,0.825,9.825,,adl
8.573253,-0.9473,0.5685,0.2701,-0.1552,-1.2641,0.1616,-34.35,0.825,9.825,,adl
8.577836,-1.0021,0.3395,0.0897,-0.1552,-1.2641,0.1616,-34.35,0.825,9.825,,adl
8.581482,-1.0021,0.3395,0.0897,-0.1552,-1.2641,0.1616,-33.75,1.275,13.2,,adl
8.59301,-1.0021,0.3395,0.0897,-0.1552,-1.2641,0.1616,-33.75,1.275,13.2,,adl
8.595439,-1.1874,0.1964,0.2681,-0.1552,-1.2641,0.1616,-33.75,1.275,13.2,,adl
8.611879,-1.1874,0.1964,0.2681,-0.1552,-1.2641,0.1616,-33.75,1.275,13.2,,adl
8.615849,-1.1485,-0.0048,0.4042,-0.1552,-1.2641,0.1616,-33.75,1.275,13.2,,adl
8.61888,-1.1485,-0.0048,0.4042,-0.1927,-1.2044,0.1474,-33.75,1.275,13.2,,adl
8.631298,-1.1485,-0.0048,0.4042,-0.1927,-1.2044,0.1474,-33.75,1.275,13.2,,adl
8.634254,-1.1316,-0.1146,0.516,-0.1927,-1.2044,0.1474,-33.75,1.275,13.2,,adl
8.64721,-1.1316,-0.1146,0.516,-0.1927,-1.2044,0.1474,-32.55,1.2,16.8,,adl
8.649704,-1.1316,-0.1146,0.516,-0.1927,-1.2044,0.1474,-32.55,1.2,16.8,,adl
8.650897,-1.0799,-0.0523,0.427,-0.1927,-1.2044,0.1474,-32.55,1.2,16.8,,adl
8.671158,-1.0799,-0.0523,0.427,-0.1927,-1.2044,0.1474,-32.55,1.2,16.8,,adl
8.672932,-0.9051,-0.1106,0.1585,-0.1927,-1.2044,0.1474,-32.55,1.2,16.8,,adl
8.689598,-0.9051,-0.1106,0.1585,-0.0979,-1.098,0.0408,-32.55,1.2,16.8,,adl
8.692905,-0.9051,-0.1106,0.1585,-0.0979,-1.098,0.0408,-32.55,1.2,16.8,,adl
8.694493,-0.7195,-0.353,0.1163,-0.0979,-1.098,0.0408,-32.55,1.2,16.8,,adl
8.709435,-0.7195,-0.353,0.1163,-0.0979,-1.098,0.0408,-32.55,1.2,16.8,,adl
8.712037,-0.5936,-0.3623,0.4063,-0.0979,-1.098,0.0408,-32.55,1.2,16.8,,adl
8.720399,-0.5936,-0.3623,0.4063,-0.0979,-1.098,0.0408,-31.05,1.5,19.05,,adl
8.729616,-0.5936,-0.3623,0.4063,-0.0979,-1.098,0.0408,-31.05,1.5,19.05,,adl
8.731077,-0.5042,-0.2555,0.455,-0.0979,-1.098,0.0408,-31.05,1.5,19.05,,adl
8.749122,-0.5042,-0.2555,0.455,-0.0979,-1.098,0.0408,-31.05,1.5,19.05,,adl
8.751326,-0.5366,-0.0924,0.4,-0.0979,-1.098,0.0408,-31.05,1.5,19.05,,adl
8.759148,-0.5366,-0.0924,0.4,-0.0305,-1.0449,-0.153,-31.05,1.5,19.05,,adl
8.77425,-0.5366,-0.0924,0.4,-0.0305,-1.0449,-0.153,-31.05,1.5,19.05,,adl
8.776742,-0.6152,-0.0067,0.2654,-0.0305,-1.0449,-0.153,-31.05,1.5,19.05,,adl
8.789272,-0.6152,-0.0067,0.2654,-0.0305,-1.0449,-0.153,-29.1,1.2,21.9,,adl
8.791626,-0.6152,-0.0067,0.2654,-0.0305,-1.0449,-0.153,-29.1,1.2,21.9,,adl
8.793201,-0.6377,0.136,0.2928,-0.0305,-1.0449,-0.153,-29.1,1.2,21.9,,adl
8.812855,-0.6377,0.136,0.2928,-0.0305,-1.0449,-0.153,-29.1,1.2,21.9,,adl
8.815472,-0.641,0.3237,0.298,-0.0305,-1.0449,-0.153,-29.1,1.2,21.9,,adl
8.827387,-0.641,0.3237,0.298,0.0724,-1.0759,-0.2921,-29.1,1.2,21.9,,adl
8.831417,-0.641,0.3237,0.298,0.0724,-1.0759,-0.2921,-29.1,1.2,21.9,,adl
8.832889,-0.6447,0.212,0.2284,0.0724,-1.0759,-0.2921,-29.1,1.2,21.9,,adl
8.847712,-0.6447,0.212,0.2284,0.0724,-1.0759,-0.2921,-29.1,1.2,21.9,,adl
8.851134,-0.7043,0.0868,-0.0322,0.0724,-1.0759,-0.2921,-29.1,1.2,21.9,,adl
8.857573,-0.7043,0.0868,-0.0322,0.0724,-1.0759,-0.2921,-28.05,0.9,24.375,,adl
8.872683,-0.7043,0.0868,-0.0322,0.0724,-1.0759,-0.2921,-28.05,0.9,24.375,,adl
8.874781,-0.9092,0.0688,0.385,0.0724,-1.0759,-0.2921,-28.05,0.9,24.375,,adl
8.890508,-0.9092,0.0688,0.385,0.0724,-1.0759,-0.2921,-28.05,0.9,24.375,,adl
8.892937,-0.9424,0.1265,0.2599,0.0724,-1.0759,-0.2921,-28.05,0.9,24.375,,adl
8.895189,-0.9424,0.1265,0.2599,0.1191,-1.1322,-0.3285,-28.05,0.9,24.375,,adl
8.909754,-0.9424,0.1265,0.2599,0.1191,-1.1322,-0.3285,-28.05,0.9,24.375,,adl
8.911912,-0.905,-0.0417,0.1498,0.1191,-1.1322,-0.3285,-28.05,0.9,24.375,,adl
8.920889,-0.905,-0.0417,0.1498,0.1191,-1.1322,-0.3285,-26.25,0.3,26.55,,adl
8.929464,-0.905,-0.0417,0.1498,0.1191,-1.1322,-0.3285,-26.25,0.3,26.55,,adl
8.931614,-0.9327,-0.2681,0.3115,0.1191,-1.1322,-0.3285,-26.25,0.3,26.55,,adl
8.948232,-0.9327,-0.2681,0.3115,0.1191,-1.1322,-0.3285,-26.25,0.3,26.55,,adl
8.95133,-1.0896,-0.083,-0.0887,0.1191,-1.1322,-0.3285,-26.25,0.3,26.55,,adl
8.964311,-1.0896,-0.083,-0.0887,0.1335,-1.1698,-0.3636,-26.25,0.3,26.55,,adl
8.975124,-1.0896,-0.083,-0.0887,0.1335,-1.1698,-0.3636,-26.25,0.3,26.55,,adl
8.976946,-0.9994,0.267,-0.2463,0.1335,-1.1698,-0.3636,-26.25,0.3,26.55,,adl
8.987771,-0.9994,0.267,-0.2463,0.1335,-1.1698,-0.3636,-26.25,0.3,26.55,,adl
8.990599,-0.7238,0.3856,-0.2471,0.1335,-1.1698,-0.3636,-26.25,0.3,26.55,,adl
8.99263,-0.7238,0.3856,-0.2471,0.1335,-1.1698,-0.3636,-23.25,0.3,28.575,,adl
9.013342,-0.7238,0.3856,-0.2471,0.1335,-1.1698,-0.3636,-23.25,0.3,28.575,,adl
9.01653,-0.5094,0.2191,-0.2468,0.1335,-1.1698,-0.3636,-23.25,0.3,28.575,,adl
9.031959,-0.5094,0.2191,-0.2468,0.1335,-1.1698,-0.3636,-23.25,0.3,28.575,,adl
9.035721,-0.1325,0.3002,-0.1186,0.1335,-1.1698,-0.3636,-23.25,0.3,28.575,,adl
9.037868,-0.1325,0.3002,-0.1186,0.0594,-1.0352,-0.3263,-23.25,0.3,28.575,,adl
9.047492,-0.1325,0.3002,-0.1186,0.0594,-1.0352,-0.3263,-23.25,0.3,28.575,,adl
9.049632,-0.0037,0.1376,-0.0876,0.0594,-1.0352,-0.3263,-23.25,0.3,28.575,,adl
9.061991,-0.0037,0.1376,-0.0876,0.0594,-1.0352,-0.3263,-20.625,-0.675,30.6,,adl
9.071424,-0.0037,0.1376,-0.0876,0.0594,-1.0352,-0.3263,-20.625,-0.675,30.6,,adl
9.074296,0.1966,0.1468,0.2717,0.0594,-1.0352,-0.3263,-20.625,-0.675,30.6,,adl
9.090651,0.1966,0.1468,0.2717,0.0594,-1.0352,-0.3263,-20.625,-0.675,30.6,,adl
9.092702,0.6509,-0.5462,-0.0199,0.0594,-1.0352,-0.3263,-20.625,-0.675,30.6,,adl
9.10544,0.6509,-0.5462,-0.0199,0.1249,-0.7016,-0.3971,-20.625,-0.675,30.6,,adl
9.110554,0.6509,-0.5462,-0.0199,0.1249,-0.7016,-0.3971,-20.625,-0.675,30.6,,adl
9.112715,0.6815,-0.9028,-0.0042,0.1249,-0.7016,-0.3971,-20.625,-0.675,30.6,,adl
9.129719,0.6815,-0.9028,-0.0042,0.1249,-0.7016,-0.3971,-20.625,-0.675,30.6,,adl
9.131845,0.3532,0.1459,0.5819,0.1249,-0.7016,-0.3971,-20.625,-0.675,30.6,,adl
9.133417,0.3532,0.1459,0.5819,0.1249,-0.7016,-0.3971,-19.125,-0.9,31.8,,adl
9.148206,0.3532,0.1459,0.5819,0.1249,-0.7016,-0.3971,-19.125,-0.9,31.8,,adl
9.150874,-0.0128,0.5079,0.1604,0.1249,-0.7016,-0.3971,-19.125,-0.9,31.8,,adl
9.169383,-0.0128,0.5079,0.1604,0.1249,-0.7016,-0.3971,-19.125,-0.9,31.8,,adl
9.171743,0.0666,0.2587,-0.4254,0.1249,-0.7016,-0.3971,-19.125,-0.9,31.8,,adl
9.1738,0.0666,0.2587,-0.4254,0.1884,-0.556,-0.396,-19.125,-0.9,31.8,,adl
9.189181,0.0666,0.2587,-0.4254,0.1884,-0.556,-0.396,-19.125,-0.9,31.8,,adl
9.191267,0.1827,0.1827,-0.3116,0.1884,-0.556,-0.396,-19.125,-0.9,31.8,,adl
9.198389,0.1827,0.1827,-0.3116,0.1884,-0.556,-0.396,-17.025,-1.05,33.15,,adl
9.208229,0.1827,0.1827,-0.3116,0.1884,-0.556,-0.396,-17.025,-1.05,33.15,,adl
9.210526,0.1879,0.1303,-0.0072,0.1884,-0.556,-0.396,-17.025,-1.05,33.15,,adl
9.227701,0.1879,0.1303,-0.0072,0.1884,-0.556,-0.396,-17.025,-1.05,33.15,,adl
9.23059,0.1541,0.2693,-0.0208,0.1884,-0.556,-0.396,-17.025,-1.05,33.15,,adl
9.242774,0.1541,0.2693,-0.0208,0.141,-0.6713,-0.3541,-17.025,-1.05,33.15,,adl
9.247543,0.1541,0.2693,-0.0208,0.141,-0.6713,-0.3541,-17.025,-1.05,33.15,,adl
9.24935,0.2732,0.3151,-0.3101,0.141,-0.6713,-0.3541,-17.025,-1.05,33.15,,adl
9.27188,0.2732,0.3151,-0.3101,0.141,-0.6713,-0.3541,-17.025,-1.05,33.15,,adl
9.274837,0.5489,0.2076,-0.4041,0.141,-0.6713,-0.3541,-17.025,-1.05,33.15,,adl
9.277182,0.5489,0.2076,-0.4041,0.141,-0.6713,-0.3541,-15.75,-1.65,33.6,,adl
9.291317,0.5489,0.2076,-0.4041,0.141,-0.6713,-0.3541,-15.75,-1.65,33.6,,adl
9.293742,0.6316,-0.0689,-0.199,0.141,-0.6713,-0.3541,-15.75,-1.65,33.6,,adl
9.311127,0.6316,-0.0689,-0.199,0.141,-0.6713,-0.3541,-15.75,-1.65,33.6,,adl
9.313727,0.658,-0.2926,-0.1072,0.141,-0.6713,-0.3541,-15.75,-1.65,33.6,,adl
9.317184,0.658,-0.2926,-0.1072,0.1475,-0.949,-0.2648,-15.75,-1.65,33.6,,adl
9.331338,0.658,-0.2926,-0.1072,0.1475,-0.949,-0.2648,-15.75,-1.65,33.6,,adl
9.334087,0.7518,-0.2005,-0.3222,0.1475,-0.949,-0.2648,-15.75,-1.65,33.6,,adl
9.340716,0.7518,-0.2005,-0.3222,0.1475,-0.949,-0.2648,-13.35,-0.975,35.1,,adl
9.348221,0.7518,-0.2005,-0.3222,0.1475,-0.949,-0.2648,-13.35,-0.975,35.1,,adl
9.350405,0.6785,0.1235,-0.5292,0.1475,-0.949,-0.2648,-13.35,-0.975,35.1,,adl
9.369629,0.6785,0.1235,-0.5292,0.1475,-0.949,-0.2648,-13.35,-0.975,35.1,,adl
9.372135,0.4737,0.1871,-0.5855,0.1475,-0.949,-0.2648,-13.35,-0.975,35.1,,adl
9.384568,0.4737,0.1871,-0.5855,0.1692,-1.1498,-0.2453,-13.35,-0.975,35.1,,adl
9.38955,0.4737,0.1871,-0.5855,0.1692,-1.1498,-0.2453,-13.35,-0.975,35.1,,adl
9.391683,0.5107,0.0681,-0.6187,0.1692,-1.1498,-0.2453,-13.35,-0.975,35.1,,adl
9.40917,0.5107,0.0681,-0.6187,0.1692,-1.1498,-0.2453,-13.35,-0.975,35.1,,adl
9.411681,0.6662,0.1109,-0.5937,0.1692,-1.1498,-0.2453,-13.35,-0.975,35.1,,adl
9.413779,0.6662,0.1109,-0.5937,0.1692,-1.1498,-0.2453,-10.425,-0.375,36.15,,adl
9.428726,0.6662,0.1109,-0.5937,0.1692,-1.1498,-0.2453,-10.425,-0.375,36.15,,adl
9.431661,0.8335,0.2178,-0.6366,0.1692,-1.1498,-0.2453,-10.425,-0.375,36.15,,adl
9.447889,0.8335,0.2178,-0.6366,0.1692,-1.1498,-0.2453,-10.425,-0.375,36.15,,adl
9.450775,0.8736,0.2619,-0.564,0.1692,-1.1498,-0.2453,-10.425,-0.375,36.15,,adl
9.453832,0.8736,0.2619,-0.564,0.1127,-1.322,-0.2323,-10.425,-0.375,36.15,,adl
9.468789,0.8736,0.2619,-0.564,0.1127,-1.322,-0.2323,-10.425,-0.375,36.15,,adl
9.471429,0.8422,0.3083,-0.5482,0.1127,-1.322,-0.2323,-10.425,-0.375,36.15,,adl
9.478018,0.8422,0.3083,-0.5482,0.1127,-1.322,-0.2323,-6.825,-0.45,37.5,,adl
9.489096,0.8422,0.3083,-0.5482,0.1127,-1.322,-0.2323,-6.825,-0.45,37.5,,adl
9.493561,0.8202,0.2591,-0.6443,0.1127,-1.322,-0.2323,-6.825,-0.45,37.5,,adl
9.506897,0.8202,0.2591,-0.6443,0.1127,-1.322,-0.2323,-6.825,-0.45,37.5,,adl
9.50934,0.9141,0.1839,-0.6505,0.1127,-1.322,-0.2323,-6.825,-0.45,37.5,,adl
9.522226,0.9141,0.1839,-0.6505,0.0754,-1.3649,-0.1965,-6.825,-0.45,37.5,,adl
9.527233,0.9141,0.1839,-0.6505,0.0754,-1.3649,-0.1965,-6.825,-0.45,37.5,,adl
9.530245,0.894,0.1278,-0.5197,0.0754,-1.3649,-0.1965,-6.825,-0.45,37.5,,adl
9.5458,0.894,0.1278,-0.5197,0.0754,-1.3649,-0.1965,-6.825,-0.45,37.5,,adl
9.548602,0.7656,0.1172,-0.4418,0.0754,-1.3649,-0.1965,-6.825,-0.45,37.5,,adl
9.550624,0.7656,0.1172,-0.4418,0.0754,-1.3649,-0.1965,-3.0,0.0,38.4,,adl
9.565212,0.7656,0.1172,-0.4418,0.0754,-1.3649,-0.1965,-3.0,0.0,38.4,,adl
9.568,0.7024,0.2,-0.4628,0.0754,-1.3649,-0.1965,-3.0,0.0,38.4,,adl
9.58716,0.7024,0.2,-0.4628,0.0754,-1.3649,-0.1965,-3.0,0.0,38.4,,adl
9.591795,0.6702,0.1582,-0.5338,0.0754,-1.3649,-0.1965,-3.0,0.0,38.4,,adl
9.594983,0.6702,0.1582,-0.5338,0.045,-1.3252,-0.1837,-3.0,0.0,38.4,,adl
9.604859,0.6702,0.1582,-0.5338,0.045,-1.3252,-0.1837,-3.0,0.0,38.4,,adl
9.608269,0.6323,-0.0115,-0.4427,0.045,-1.3252,-0.1837,-3.0,0.0,38.4,,adl
9.618681,0.6323,-0.0115,-0.4427,0.045,-1.3252,-0.1837,-0.15,0.15,39.225,,adl
9.62391,0.6323,-0.0115,-0.4427,0.045,-1.3252,-0.1837,-0.15,0.15,39.225,,adl
9.625974,0.6555,-0.3044,-0.2168,0.045,-1.3252,-0.1837,-0.15,0.15,39.225,,adl
9.643825,0.6555,-0.3044,-0.2168,0.045,-1.3252,-0.1837,-0.15,0.15,39.225,,adl
9.646509,0.663,-0.4205,-0.1818,0.045,-1.3252,-0.1837,-0.15,0.15,39.225,,adl
9.662997,0.663,-0.4205,-0.1818,0.0368,-1.2984,-0.1695,-0.15,0.15,39.225,,adl
9.669227,0.663,-0.4205,-0.1818,0.0368,-1.2984,-0.1695,-0.15,0.15,39.225,,adl
9.671086,0.4612,-0.3592,0.1529,0.0368,-1.2984,-0.1695,-0.15,0.15,39.225,,adl
9.689168,0.4612,-0.3592,0.1529,0.0368,-1.2984,-0.1695,-0.15,0.15,39.225,,adl
9.691681,0.4181,-0.1941,0.025,0.0368,-1.2984,-0.1695,-0.15,0.15,39.225,,adl
9.693481,0.4181,-0.1941,0.025,0.0368,-1.2984,-0.1695,3.15,0.225,39.225,,adl
9.707413,0.4181,-0.1941,0.025,0.0368,-1.2984,-0.1695,3.15,0.225,39.225,,adl
9.709836,0.4387,-0.0912,-0.1032,0.0368,-1.2984,-0.1695,3.15,0.225,39.225,,adl
9.726695,0.4387,-0.0912,-0.1032,0.0368,-1.2984,-0.1695,3.15,0.225,39.225,,adl
9.729454,0.4344,-0.0205,0.3001,0.0368,-1.2984,-0.1695,3.15,0.225,39.225,,adl
9.731719,0.4344,-0.0205,0.3001,0.1115,-1.3429,-0.1461,3.15,0.225,39.225,,adl
9.747007,0.4344,-0.0205,0.3001,0.1115,-1.3429,-0.1461,3.15,0.225,39.225,,adl
9.748313,0.4415,0.1186,0.4056,0.1115,-1.3429,-0.1461,3.15,0.225,39.225,,adl
9.759458,0.4415,0.1186,0.4056,0.1115,-1.3429,-0.1461,6.45,0.675,38.925,,adl
9.769052,0.4415,0.1186,0.4056,0.1115,-1.3429,-0.1461,6.45,0.675,38.925,,adl
9.770777,0.4078,0.3291,0.2409,0.1115,-1.3429,-0.1461,6.45,0.675,38.925,,adl
9.786675,0.4078,0.3291,0.2409,0.1115,-1.3429,-0.1461,6.45,0.675,38.925,,adl
9.788738,0.457,0.4772,0.1959,0.1115,-1.3429,-0.1461,6.45,0.675,38.925,,adl
9.8002,0.457,0.4772,0.1959,0.1953,-1.4104,-0.1196,6.45,0.675,38.925,,adl
9.805635,0.457,0.4772,0.1959,0.1953,-1.4104,-0.1196,6.45,0.675,38.925,,adl
9.808464,0.464,0.5069,0.1434,0.1953,-1.4104,-0.1196,6.45,0.675,38.925,,adl
9.826548,0.464,0.5069,0.1434,0.1953,-1.4104,-0.1196,6.45,0.675,38.925,,adl
9.830434,0.4611,0.4905,0.0131,0.1953,-1.4104,-0.1196,6.45,0.675,38.925,,adl
9.833112,0.4611,0.4905,0.0131,0.1953,-1.4104,-0.1196,10.65,1.05,38.7,,adl
9.844657,0.4611,0.4905,0.0131,0.1953,-1.4104,-0.1196,10.65,1.05,38.7,,adl
9.846848,0.4918,0.4183,-0.0021,0.1953,-1.4104,-0.1196,10.65,1.05,38.7,,adl
9.863831,0.4918,0.4183,-0.0021,0.1953,-1.4104,-0.1196,10.65,1.05,38.7,,adl
9.866465,0.5581,0.3268,0.0264,0.1953,-1.4104,-0.1196,10.65,1.05,38.7,,adl
9.8681,0.5581,0.3268,0.0264,0.18,-1.3594,-0.0677,10.65,1.05,38.7,,adl
9.883283,0.5581,0.3268,0.0264,0.18,-1.3594,-0.0677,10.65,1.05,38.7,,adl
9.88582,0.6088,0.1275,0.0716,0.18,-1.3594,-0.0677,10.65,1.05,38.7,,adl
9.89846,0.6088,0.1275,0.0716,0.18,-1.3594,-0.0677,14.1,2.25,37.425,,adl
9.907503,0.6088,0.1275,0.0716,0.18,-1.3594,-0.0677,14.1,2.25,37.425,,adl
9.909819,0.6239,-0.0149,0.0791,0.18,-1.3594,-0.0677,14.1,2.25,37.425,,adl
9.926943,0.6239,-0.0149,0.0791,0.18,-1.3594,-0.0677,14.1,2.25,37.425,,adl
9.929447,0.7006,-0.0412,0.2149,0.18,-1.3594,-0.0677,14.1,2.25,37.425,,adl
9.941642,0.7006,-0.0412,0.2149,0.1506,-1.2724,0.0037,14.1,2.25,37.425,,adl
9.946398,0.7006,-0.0412,0.2149,0.1506,-1.2724,0.0037,14.1,2.25,37.425,,adl
9.948087,0.6455,0.0304,0.2672,0.1506,-1.2724,0.0037,14.1,2.25,37.425,,adl
9.966731,0.6455,0.0304,0.2672,0.1506,-1.2724,0.0037,14.1,2.25,37.425,,adl
9.969811,0.6671,0.126,0.3595,0.1506,-1.2724,0.0037,14.1,2.25,37.425,,adl
9.971812,0.6671,0.126,0.3595,0.1506,-1.2724,0.0037,17.85,2.55,36.675,,adl
9.986468,0.6671,0.126,0.3595,0.1506,-1.2724,0.0037,17.85,2.55,36.675,,adl
9.989763,0.5561,0.29,0.4785,0.1506,-1.2724,0.0037,17.85,2.55,36.675,,adl
10.006247,0.5561,0.29,0.4785,0.1506,-1.2724,0.0037,17.85,2.55,36.675,,adl
10.010717,0.438,0.4791,0.5967,0.1506,-1.2724,0.0037,17.85,2.55,36.675,,adl
10.013953,0.438,0.4791,0.5967,0.1576,-1.1693,0.0898,17.85,2.55,36.675,,adl
10.025456,0.438,0.4791,0.5967,0.1576,-1.1693,0.0898,17.85,2.55,36.675,,adl
10.027783,0.2893,0.5717,0.4668,0.1576,-1.1693,0.0898,17.85,2.55,36.675,,adl
10.037569,0.2893,0.5717,0.4668,0.1576,-1.1693,0.0898,21.075,2.7,35.175,,adl
10.044459,0.2893,0.5717,0.4668,0.1576,-1.1693,0.0898,21.075,2.7,35.175,,adl
10.045913,0.1299,0.3907,0.1117,0.1576,-1.1693,0.0898,21.075,2.7,35.175,,adl
10.064062,0.1299,0.3907,0.1117,0.1576,-1.1693,0.0898,21.075,2.7,35.175,,adl
10.067517,-0.1909,0.1862,0.0941,0.1576,-1.1693,0.0898,21.075,2.7,35.175,,adl
10.078636,-0.1909,0.1862,0.0941,0.1515,-1.1962,0.1823,21.075,2.7,35.175,,adl
10.0873,-0.1909,0.1862,0.0941,0.1515,-1.1962,0.1823,21.075,2.7,35.175,,adl
10.089328,-0.7368,-0.5366,-0.2302,0.1515,-1.1962,0.1823,21.075,2.7,35.175,,adl
10.098295,-0.7368,-0.5366,-0.2302,0.1515,-1.1962,0.1823,21.075,2.7,35.175,,adl
10.100103,-1.029,-0.2226,-0.1671,0.1515,-1.1962,0.1823,21.075,2.7,35.175,,adl
10.108601,-1.029,-0.2226,-0.1671,0.1515,-1.1962,0.1823,24.15,3.15,33.225,,adl
10.122602,-1.029,-0.2226,-0.1671,0.1515,-1.1962,0.1823,24.15,3.15,33.225,,adl
10.125235,-0.9428,0.2308,-0.1519,0.1515,-1.1962,0.1823,24.15,3.15,33.225,,adl
10.142622,-0.9428,0.2308,-0.1519,0.1515,-1.1962,0.1823,24.15,3.15,33.225,,adl
10.144939,-0.8318,0.4455,-0.2006,0.1515,-1.1962,0.1823,24.15,3.15,33.225,,adl
10.15494,-0.8318,0.4455,-0.2006,0.0501,-1.2852,0.3247,24.15,3.15,33.225,,adl
10.171789,-0.8318,0.4455,-0.2006,0.0501,-1.2852,0.3247,24.15,3.15,33.225,,adl
10.174533,-0.9118,0.823,-0.4493,0.0501,-1.2852,0.3247,24.15,3.15,33.225,,adl
10.177197,-0.9118,0.823,-0.4493,0.0501,-1.2852,0.3247,26.7,2.7,31.425,,adl
10.187931,-0.9118,0.823,-0.4493,0.0501,-1.2852,0.3247,26.7,2.7,31.425,,adl
10.189981,-0.8622,0.5435,-0.6617,0.0501,-1.2852,0.3247,26.7,2.7,31.425,,adl
10.206204,-0.8622,0.5435,-0.6617,0.0501,-1.2852,0.3247,26.7,2.7,31.425,,adl
10.209859,-0.3993,-0.097,-0.3808,0.0501,-1.2852,0.3247,26.7,2.7,31.425,,adl
10.220904,-0.3993,-0.097,-0.3808,-0.0328,-1.2958,0.1471,26.7,2.7,31.425,,adl
10.225585,-0.3993,-0.097,-0.3808,-0.0328,-1.2958,0.1471,26.7,2.7,31.425,,adl
10.227255,0.2721,-0.7177,-0.0131,-0.0328,-1.2958,0.1471,26.7,2.7,31.425,,adl
10.245795,0.2721,-0.7177,-0.0131,-0.0328,-1.2958,0.1471,26.7,2.7,31.425,,adl
10.24695,0.6634,-1.129,0.3392,-0.0328,-1.2958,0.1471,26.7,2.7,31.425,,adl
10.247917,0.6634,-1.129,0.3392,-0.0328,-1.2958,0.1471,28.5,3.225,29.175,,adl
10.264669,0.6634,-1.129,0.3392,-0.0328,-1.2958,0.1471,28.5,3.225,29.175,,adl
10.267176,0.88,-0.9985,0.4323,-0.0328,-1.2958,0.1471,28.5,3.225,29.175,,adl
10.292037,0.88,-0.9985,0.4323,-0.0328,-1.2958,0.1471,28.5,3.225,29.175,,adl
10.296775,0.7005,-0.5077,0.3803,-0.0328,-1.2958,0.1471,28.5,3.225,29.175,,adl
10.298895,0.7005,-0.5077,0.3803,0.0509,-1.0006,-0.12,28.5,3.225,29.175,,adl
10.309268,0.7005,-0.5077,0.3803,0.0509,-1.0006,-0.12,28.5,3.225,29.175,,adl
10.311322,0.3916,-0.0505,0.6086,0.0509,-1.0006,-0.12,28.5,3.225,29.175,,adl
10.319845,0.3916,-0.0505,0.6086,0.0509,-1.0006,-0.12,31.65,3.075,26.55,,adl
10.323358,0.3916,-0.0505,0.6086,0.0509,-1.0006,-0.12,31.65,3.075,26.55,,adl
10.324895,0.0731,0.0984,0.7218,0.0509,-1.0006,-0.12,31.65,3.075,26.55,,adl
10.343573,0.0731,0.0984,0.7218,0.0509,-1.0006,-0.12,31.65,3.075,26.55,,adl
10.346161,-0.2252,0.2343,0.6746,0.0509,-1.0006,-0.12,31.65,3.075,26.55,,adl
10.35728,-0.2252,0.2343,0.6746,0.0418,-0.814,-0.2214,31.65,3.075,26.55,,adl
10.362258,-0.2252,0.2343,0.6746,0.0418,-0.814,-0.2214,31.65,3.075,26.55,,adl
10.363463,-0.4034,0.3914,0.5603,0.0418,-0.814,-0.2214,31.65,3.075,26.55,,adl
10.382184,-0.4034,0.3914,0.5603,0.0418,-0.814,-0.2214,31.65,3.075,26.55,,adl
10.383023,-0.5623,0.4489,0.457,0.0418,-0.814,-0.2214,31.65,3.075,26.55,,adl
10.387,-0.5623,0.4489,0.457,0.0418,-0.814,-0.2214,32.7,3.45,24.9,,adl
10.398113,-0.5623,0.4489,0.457,0.0418,-0.814,-0.2214,32.7,3.45,24.9,,adl
10.398998,-0.5312,0.4426,0.3701,0.0418,-0.814,-0.2214,32.7,3.45,24.9,,adl
10.421995,-0.5312,0.4426,0.3701,0.0418,-0.814,-0.2214,32.7,3.45,24.9,,adl
10.423457,-0.4592,0.391,0.3829,0.0418,-0.814,-0.2214,32.7,3.45,24.9,,adl
10.427182,-0.4592,0.391,0.3829,-0.036,-0.4977,-0.0696,32.7,3.45,24.9,,adl
10.441701,-0.4592,0.391,0.3829,-0.036,-0.4977,-0.0696,32.7,3.45,24.9,,adl
10.443507,-0.3859,0.2722,0.3886,-0.036,-0.4977,-0.0696,32.7,3.45,24.9,,adl
10.459336,-0.3859,0.2722,0.3886,-0.036,-0.4977,-0.0696,34.275,3.675,23.775,,adl
10.46186,-0.3859,0.2722,0.3886,-0.036,-0.4977,-0.0696,34.275,3.675,23.775,,adl
10.463188,-0.4274,0.192,0.082,-0.036,-0.4977,-0.0696,34.275,3.675,23.775,,adl
10.481485,-0.4274,0.192,0.082,-0.036,-0.4977,-0.0696,34.275,3.675,23.775,,adl
10.48362,-0.5548,0.1276,0.411,-0.036,-0.4977,-0.0696,34.275,3.675,23.775,,adl
10.49544,-0.5548,0.1276,0.411,-0.1269,-0.2961,-0.0223,34.275,3.675,23.775,,adl
10.499242,-0.5548,0.1276,0.411,-0.1269,-0.2961,-0.0223,34.275,3.675,23.775,,adl
10.500859,-0.5473,0.0815,0.5261,-0.1269,-0.2961,-0.0223,34.275,3.675,23.775,,adl
10.520526,-0.5473,0.0815,0.5261,-0.1269,-0.2961,-0.0223,34.275,3.675,23.775,,adl
10.525969,-0.307,0.0342,0.3645,-0.1269,-0.2961,-0.0223,34.275,3.675,23.775,,adl
10.529626,-0.307,0.0342,0.3645,-0.1269,-0.2961,-0.0223,34.35,3.975,22.8,,adl
10.543785,-0.307,0.0342,0.3645,-0.1269,-0.2961,-0.0223,34.35,3.975,22.8,,adl
10.546867,-0.3068,-0.114,0.7933,-0.1269,-0.2961,-0.0223,34.35,3.975,22.8,,adl
10.563005,-0.3068,-0.114,0.7933,-0.1269,-0.2961,-0.0223,34.35,3.975,22.8,,adl
10.565716,-0.4117,-0.0379,0.7107,-0.1269,-0.2961,-0.0223,34.35,3.975,22.8,,adl
10.573591,-0.4117,-0.0379,0.7107,-0.1307,-0.1374,-0.0243,34.35,3.975,22.8,,adl
10.584482,-0.4117,-0.0379,0.7107,-0.1307,-0.1374,-0.0243,34.35,3.975,22.8,,adl
10.587035,-0.4359,-0.0473,0.689,-0.1307,-0.1374,-0.0243,34.35,3.975,22.8,,adl
10.599301,-0.4359,-0.0473,0.689,-0.1307,-0.1374,-0.0243,34.35,3.975,22.8,,adl
10.602255,-0.3101,0.0377,0.7574,-0.1307,-0.1374,-0.0243,34.35,3.975,22.8,,adl
10.604682,-0.3101,0.0377,0.7574,-0.1307,-0.1374,-0.0243,34.8,3.525,22.875,,adl
10.621682,-0.3101,0.0377,0.7574,-0.1307,-0.1374,-0.0243,34.8,3.525,22.875,,adl
10.62401,-0.3406,0.0048,0.7518,-0.1307,-0.1374,-0.0243,34.8,3.525,22.875,,adl
10.638981,-0.3406,0.0048,0.7518,-0.1019,0.0111,-0.0457,34.8,3.525,22.875,,adl
10.642006,-0.3406,0.0048,0.7518,-0.1019,0.0111,-0.0457,34.8,3.525,22.875,,adl
10.643483,-0.3871,-0.0559,0.7564,-0.1019,0.0111,-0.0457,34.8,3.525,22.875,,adl
10.661271,-0.3871,-0.0559,0.7564,-0.1019,0.0111,-0.0457,34.8,3.525,22.875,,adl
10.663723,-0.5503,-0.115,0.852,-0.1019,0.0111,-0.0457,34.8,3.525,22.875,,adl
10.665754,-0.5503,-0.115,0.852,-0.1019,0.0111,-0.0457,34.35,3.375,22.65,,adl
10.680662,-0.5503,-0.115,0.852,-0.1019,0.0111,-0.0457,34.35,3.375,22.65,,adl
10.682686,-0.5539,-0.1443,0.9204,-0.1019,0.0111,-0.0457,34.35,3.375,22.65,,adl
10.698093,-0.5539,-0.1443,0.9204,-0.1019,0.0111,-0.0457,34.35,3.375,22.65,,adl
10.700785,-0.4382,-0.0507,0.8302,-0.1019,0.0111,-0.0457,34.35,3.375,22.65,,adl
10.705967,-0.4382,-0.0507,0.8302,-0.0252,0.2141,-0.0238,34.35,3.375,22.65,,adl
10.719363,-0.4382,-0.0507,0.8302,-0.0252,0.2141,-0.0238,34.35,3.375,22.65,,adl
10.722938,-0.3668,0.1109,0.7068,-0.0252,0.2141,-0.0238,34.35,3.375,22.65,,adl
10.729339,-0.3668,0.1109,0.7068,-0.0252,0.2141,-0.0238,34.875,3.6,22.05,,adl
10.738749,-0.3668,0.1109,0.7068,-0.0252,0.2141,-0.0238,34.875,3.6,22.05,,adl
10.740687,-0.4214,0.185,0.9485,-0.0252,0.2141,-0.0238,34.875,3.6,22.05,,adl
10.758156,-0.4214,0.185,0.9485,-0.0252,0.2141,-0.0238,34.875,3.6,22.05,,adl
10.760561,-0.4061,0.0866,1.2391,-0.0252,0.2141,-0.0238,34.875,3.6,22.05,,adl
10.773124,-0.4061,0.0866,1.2391,0.1222,0.4887,-0.0667,34.875,3.6,22.05,,adl
10.777865,-0.4061,0.0866,1.2391,0.1222,0.4887,-0.0667,34.875,3.6,22.05,,adl
10.779452,0.032,-0.7216,0.6552,0.1222,0.4887,-0.0667,34.875,3.6,22.05,,adl
10.79324,0.032,-0.7216,0.6552,0.1222,0.4887,-0.0667,34.875,3.6,22.05,,adl
10.795478,-0.2253,-1.9858,-0.3546,0.1222,0.4887,-0.0667,34.875,3.6,22.05,,adl
10.804419,-0.2253,-1.9858,-0.3546,0.1222,0.4887,-0.0667,34.35,3.75,23.175,,adl
10.819513,-0.2253,-1.9858,-0.3546,0.1222,0.4887,-0.0667,34.35,3.75,23.175,,adl
10.821889,0.1975,-2.4573,-0.94,0.1222,0.4887,-0.0667,34.35,3.75,23.175,,adl
10.842267,0.1975,-2.4573,-0.94,0.1222,0.4887,-0.0667,34.35,3.75,23.175,,adl
10.844205,-0.7179,-2.144,-1.1087,0.1222,0.4887,-0.0667,34.35,3.75,23.175,,adl
10.84742,-0.7179,-2.144,-1.1087,0.1468,0.3862,-0.1816,34.35,3.75,23.175,,adl
10.862441,-0.7179,-2.144,-1.1087,0.1468,0.3862,-0.1816,34.35,3.75,23.175,,adl
10.864367,-0.3078,-0.3242,-0.5705,0.1468,0.3862,-0.1816,34.35,3.75,23.175,,adl
10.871908,-0.3078,-0.3242,-0.5705,0.1468,0.3862,-0.1816,34.35,4.125,24.675,,adl
10.881715,-0.3078,-0.3242,-0.5705,0.1468,0.3862,-0.1816,34.35,4.125,24.675,,adl
10.883737,0.3888,1.0143,-0.9992,0.1468,0.3862,-0.1816,34.35,4.125,24.675,,adl
10.897931,0.3888,1.0143,-0.9992,0.1468,0.3862,-0.1816,34.35,4.125,24.675,,adl
10.900202,0.8942,1.6948,-0.898,0.1468,0.3862,-0.1816,34.35,4.125,24.675,,adl
10.91491,0.8942,1.6948,-0.898,0.0939,0.347,-0.0012,34.35,4.125,24.675,,adl
10.920383,0.8942,1.6948,-0.898,0.0939,0.347,-0.0012,34.35,4.125,24.675,,adl
10.922856,0.8839,1.9712,-1.1384,0.0939,0.347,-0.0012,34.35,4.125,24.675,,adl
10.94071,0.8839,1.9712,-1.1384,0.0939,0.347,-0.0012,34.35,4.125,24.675,,adl
10.942732,0.7781,1.3816,-1.6074,0.0939,0.347,-0.0012,34.35,4.125,24.675,,adl
10.944713,0.7781,1.3816,-1.6074,0.0939,0.347,-0.0012,33.6,4.35,25.425,,adl
10.958993,0.7781,1.3816,-1.6074,0.0939,0.347,-0.0012,33.6,4.35,25.425,,adl
10.961398,0.7597,0.5625,-1.542,0.0939,0.347,-0.0012,33.6,4.35,25.425,,adl
10.973963,0.7597,0.5625,-1.542,0.0939,0.347,-0.0012,33.6,4.35,25.425,,adl
10.977033,0.7023,-0.2259,-1.3109,0.0939,0.347,-0.0012,33.6,4.35,25.425,,adl
10.989837,0.7023,-0.2259,-1.3109,-0.0538,0.3966,-0.071,33.6,4.35,25.425,,adl
10.995406,0.7023,-0.2259,-1.3109,-0.0538,0.3966,-0.071,33.6,4.35,25.425,,adl
10.996539,0.5345,-0.5167,-0.9182,-0.0538,0.3966,-0.071,33.6,4.35,25.425,,adl
11.008355,0.5345,-0.5167,-0.9182,-0.0538,0.3966,-0.071,33.15,4.95,25.725,,adl
11.018808,0.5345,-0.5167,-0.9182,-0.0538,0.3966,-0.071,33.15,4.95,25.725,,adl
11.020928,0.4012,-0.2228,-0.6633,-0.0538,0.3966,-0.071,33.15,4.95,25.725,,adl
11.037964,0.4012,-0.2228,-0.6633,-0.0538,0.3966,-0.071,33.15,4.95,25.725,,adl
11.040291,0.3033,0.1081,-1.188,-0.0538,0.3966,-0.071,33.15,4.95,25.725,,adl
11.054463,0.3033,0.1081,-1.188,0.0339,0.1932,-0.0391,33.15,4.95,25.725,,adl
11.057089,0.3033,0.1081,-1.188,0.0339,0.1932,-0.0391,33.15,4.95,25.725,,adl
11.058269,0.2158,0.3582,-0.9261,0.0339,0.1932,-0.0391,33.15,4.95,25.725,,adl
11.077144,0.2158,0.3582,-0.9261,0.0339,0.1932,-0.0391,33.15,4.95,25.725,,adl
11.07857,0.2868,0.3638,-0.4369,0.0339,0.1932,-0.0391,33.15,4.95,25.725,,adl
11.079742,0.2868,0.3638,-0.4369,0.0339,0.1932,-0.0391,33.3,4.5,26.475,,adl
11.097183,0.2868,0.3638,-0.4369,0.0339,0.1932,-0.0391,33.3,4.5,26.475,,adl
11.100665,0.3514,0.3713,-0.0508,0.0339,0.1932,-0.0391,33.3,4.5,26.475,,adl
11.115709,0.3514,0.3713,-0.0508,0.0339,0.1932,-0.0391,33.3,4.5,26.475,,adl
11.118556,0.4827,0.3975,0.0628,0.0339,0.1932,-0.0391,33.3,4.5,26.475,,adl
11.120415,0.4827,0.3975,0.0628,-0.0304,0.0919,0.0087,33.3,4.5,26.475,,adl
11.138541,0.4827,0.3975,0.0628,-0.0304,0.0919,0.0087,33.3,4.5,26.475,,adl
11.140747,0.6477,0.3891,-0.1435,-0.0304,0.0919,0.0087,33.3,4.5,26.475,,adl
11.147331,0.6477,0.3891,-0.1435,-0.0304,0.0919,0.0087,33.9,4.575,27.0,,adl
11.155616,0.6477,0.3891,-0.1435,-0.0304,0.0919,0.0087,33.9,4.575,27.0,,adl
11.157743,0.6997,0.359,-0.3015,-0.0304,0.0919,0.0087,33.9,4.575,27.0,,adl
11.174273,0.6997,0.359,-0.3015,-0.0304,0.0919,0.0087,33.9,4.575,27.0,,adl
11.177207,0.5904,0.3179,-0.2521,-0.0304,0.0919,0.0087,33.9,4.575,27.0,,adl
11.188544,0.5904,0.3179,-0.2521,-0.0328,0.1321,0.0286,33.9,4.575,27.0,,adl
11.194105,0.5904,0.3179,-0.2521,-0.0328,0.1321,0.0286,33.9,4.575,27.0,,adl
11.195469,0.5232,0.3217,-0.0944,-0.0328,0.1321,0.0286,33.9,4.575,27.0,,adl
11.218871,0.5232,0.3217,-0.0944,-0.0328,0.1321,0.0286,33.9,4.575,27.0,,adl
11.222462,0.4663,0.3396,0.1091,-0.0328,0.1321,0.0286,33.9,4.575,27.0,,adl
11.225356,0.4663,0.3396,0.1091,-0.0328,0.1321,0.0286,33.15,4.8,27.45,,adl
11.240543,0.4663,0.3396,0.1091,-0.0328,0.1321,0.0286,33.15,4.8,27.45,,adl
11.242305,0.5168,0.3759,0.1027,-0.0328,0.1321,0.0286,33.15,4.8,27.45,,adl
11.256925,0.5168,0.3759,0.1027,-0.0328,0.1321,0.0286,33.15,4.8,27.45,,adl
11.259215,0.4505,0.2734,0.1785,-0.0328,0.1321,0.0286,33.15,4.8,27.45,,adl
11.262134,0.4505,0.2734,0.1785,0.0008,0.1179,0.0673,33.15,4.8,27.45,,adl
11.277498,0.4505,0.2734,0.1785,0.0008,0.1179,0.0673,33.15,4.8,27.45,,adl
11.280348,0.5367,0.0623,0.0401,0.0008,0.1179,0.0673,33.15,4.8,27.45,,adl
11.287172,0.5367,0.0623,0.0401,0.0008,0.1179,0.0673,33.675,4.8,27.9,,adl
11.296491,0.5367,0.0623,0.0401,0.0008,0.1179,0.0673,33.675,4.8,27.9,,adl
11.298306,0.6477,0.1561,-0.0891,0.0008,0.1179,0.0673,33.675,4.8,27.9,,adl
11.316053,0.6477,0.1561,-0.0891,0.0008,0.1179,0.0673,33.675,4.8,27.9,,adl
11.319456,0.5215,0.1951,0.2059,0.0008,0.1179,0.0673,33.675,4.8,27.9,,adl
11.330825,0.5215,0.1951,0.2059,0.0014,0.1394,0.104,33.675,4.8,27.9,,adl
11.33901,0.5215,0.1951,0.2059,0.0014,0.1394,0.104,33.675,4.8,27.9,,adl
11.340265,0.5461,0.1236,0.3558,0.0014,0.1394,0.104,33.675,4.8,27.9,,adl
11.354877,0.5461,0.1236,0.3558,0.0014,0.1394,0.104,33.675,4.8,27.9,,adl
11.356789,0.4237,0.2381,0.2571,0.0014,0.1394,0.104,33.675,4.8,27.9,,adl
11.357873,0.4237,0.2381,0.2571,0.0014,0.1394,0.104,34.05,4.725,27.975,,adl
11.374553,0.4237,0.2381,0.2571,0.0014,0.1394,0.104,34.05,4.725,27.975,,adl
11.37611,0.45,0.2686,0.4547,0.0014,0.1394,0.104,34.05,4.725,27.975,,adl
11.394335,0.45,0.2686,0.4547,0.0014,0.1394,0.104,34.05,4.725,27.975,,adl
11.396328,0.4604,0.3135,0.6537,0.0014,0.1394,0.104,34.05,4.725,27.975,,adl
11.398612,0.4604,0.3135,0.6537,0.0521,-0.0096,0.071,34.05,4.725,27.975,,adl
11.414243,0.4604,0.3135,0.6537,0.0521,-0.0096,0.071,34.05,4.725,27.975,,adl
11.416438,0.461,0.4314,0.5942,0.0521,-0.0096,0.071,34.05,4.725,27.975,,adl
11.427734,0.461,0.4314,0.5942,0.0521,-0.0096,0.071,33.75,4.65,28.575,,adl
11.434557,0.461,0.4314,0.5942,0.0521,-0.0096,0.071,33.75,4.65,28.575,,adl
11.436424,0.4471,0.4501,0.1781,0.0521,-0.0096,0.071,33.75,4.65,28.575,,adl
11.44795,0.4471,0.4501,0.1781,0.0521,-0.0096,0.071,33.75,4.65,28.575,,adl
11.449574,0.4187,0.3615,0.1677,0.0521,-0.0096,0.071,33.75,4.65,28.575,,adl
11.473027,0.4187,0.3615,0.1677,0.1028,-0.1593,0.0689,33.75,4.65,28.575,,adl
11.478874,0.4187,0.3615,0.1677,0.1028,-0.1593,0.0689,33.75,4.65,28.575,,adl
11.481861,0.4739,0.1826,0.3743,0.1028,-0.1593,0.0689,33.75,4.65,28.575,,adl
11.498693,0.4739,0.1826,0.3743,0.1028,-0.1593,0.0689,33.75,4.65,28.575,,adl
11.501054,0.4482,0.0721,0.3969,0.1028,-0.1593,0.0689,33.75,4.65,28.575,,adl
11.502789,0.4482,0.0721,0.3969,0.1028,-0.1593,0.0689,33.6,5.1,28.35,,adl
11.516537,0.4482,0.0721,0.3969,0.1028,-0.1593,0.0689,33.6,5.1,28.35,,adl
11.51896,0.5581,-0.0416,0.4948,0.1028,-0.1593,0.0689,33.6,5.1,28.35,,adl
11.539364,0.5581,-0.0416,0.4948,0.1028,-0.1593,0.0689,33.6,5.1,28.35,,adl
11.541871,0.626,-0.17,0.5899,0.1028,-0.1593,0.0689,33.6,5.1,28.35,,adl
11.543659,0.626,-0.17,0.5899,0.0863,-0.2825,0.0964,33.6,5.1,28.35,,adl
11.555896,0.626,-0.17,0.5899,0.0863,-0.2825,0.0964,33.6,5.1,28.35,,adl
11.5583,0.6401,-0.2756,0.8456,0.0863,-0.2825,0.0964,33.6,5.1,28.35,,adl
11.567762,0.6401,-0.2756,0.8456,0.0863,-0.2825,0.0964,33.75,5.4,28.35,,adl
11.575303,0.6401,-0.2756,0.8456,0.0863,-0.2825,0.0964,33.75,5.4,28.35,,adl
11.577368,0.5391,-0.7952,1.0222,0.0863,-0.2825,0.0964,33.75,5.4,28.35,,adl
11.590043,0.5391,-0.7952,1.0222,0.0863,-0.2825,0.0964,33.75,5.4,28.35,,adl
11.592907,-0.1021,-3.0019,-0.3725,0.0863,-0.2825,0.0964,33.75,5.4,28.35,,adl
11.609557,-0.1021,-3.0019,-0.3725,0.2697,-0.3706,0.12,33.75,5.4,28.35,,adl
11.611971,-0.1021,-3.0019,-0.3725,0.2697,-0.3706,0.12,33.75,5.4,28.35,,adl
11.61317,0.1102,-1.8136,0.4871,0.2697,-0.3706,0.12,33.75,5.4,28.35,,adl
11.635804,0.1102,-1.8136,0.4871,0.2697,-0.3706,0.12,33.75,5.4,28.35,,adl
11.638788,0.4341,-2.1041,-0.3404,0.2697,-0.3706,0.12,33.75,5.4,28.35,,adl
11.640887,0.4341,-2.1041,-0.3404,0.2697,-0.3706,0.12,35.1,4.95,27.75,,adl
11.64819,0.4341,-2.1041,-0.3404,0.2697,-0.3706,0.12,35.1,4.95,27.75,,adl
11.649366,0.5608,-1.2452,-0.7346,0.2697,-0.3706,0.12,35.1,4.95,27.75,,adl
11.673844,0.5608,-1.2452,-0.7346,0.2697,-0.3706,0.12,35.1,4.95,27.75,,adl
11.676091,0.9566,0.1697,-0.547,0.2697,-0.3706,0.12,35.1,4.95,27.75,,adl
11.677768,0.9566,0.1697,-0.547,0.2034,-0.0646,0.1915,35.1,4.95,27.75,,adl
11.688287,0.9566,0.1697,-0.547,0.2034,-0.0646,0.1915,35.1,4.95,27.75,,adl
11.689956,0.6298,0.8789,-0.5349,0.2034,-0.0646,0.1915,35.1,4.95,27.75,,adl
11.708107,0.6298,0.8789,-0.5349,0.2034,-0.0646,0.1915,35.25,5.85,26.625,,adl
11.712906,0.6298,0.8789,-0.5349,0.2034,-0.0646,0.1915,35.25,5.85,26.625,,adl
11.71453,0.0356,1.5491,-0.5244,0.2034,-0.0646,0.1915,35.25,5.85,26.625,,adl
11.731825,0.0356,1.5491,-0.5244,0.2034,-0.0646,0.1915,35.25,5.85,26.625,,adl
11.73479,-0.8329,2.1057,-1.0234,0.2034,-0.0646,0.1915,35.25,5.85,26.625,,adl
11.754249,-0.8329,2.1057,-1.0234,0.0901,-0.1975,-0.0631,35.25,5.85,26.625,,adl
11.757275,-0.8329,2.1057,-1.0234,0.0901,-0.1975,-0.0631,35.25,5.85,26.625,,adl
11.759039,-1.532,1.938,-1.5829,0.0901,-0.1975,-0.0631,35.25,5.85,26.625,,adl
11.775799,-1.532,1.938,-1.5829,0.0901,-0.1975,-0.0631,35.25,5.85,26.625,,adl
11.778386,-2.0204,0.9973,-2.1296,0.0901,-0.1975,-0.0631,35.25,5.85,26.625,,adl
11.78042,-2.0204,0.9973,-2.1296,0.0901,-0.1975,-0.0631,34.95,6.3,26.775,,adl
11.794975,-2.0204,0.9973,-2.1296,0.0901,-0.1975,-0.0631,34.95,6.3,26.775,,adl
11.797882,-2.1337,-0.1893,-1.858,0.0901,-0.1975,-0.0631,34.95,6.3,26.775,,adl
11.810757,-2.1337,-0.1893,-1.858,0.0901,-0.1975,-0.0631,34.95,6.3,26.775,,adl
11.813958,-1.3798,-0.949,-1.2726,0.0901,-0.1975,-0.0631,34.95,6.3,26.775,,adl
11.820581,-1.3798,-0.949,-1.2726,-0.0629,-0.3877,-0.009,34.95,6.3,26.775,,adl
11.82949,-1.3798,-0.949,-1.2726,-0.0629,-0.3877,-0.009,34.95,6.3,26.775,,adl
11.831315,-0.3688,-1.47,-1.0327,-0.0629,-0.3877,-0.009,34.95,6.3,26.775,,adl
11.847789,-0.3688,-1.47,-1.0327,-0.0629,-0.3877,-0.009,35.4,6.45,25.875,,adl
11.854755,-0.3688,-1.47,-1.0327,-0.0629,-0.3877,-0.009,35.4,6.45,25.875,,adl
11.857181,0.1943,-1.0421,-0.389,-0.0629,-0.3877,-0.009,35.4,6.45,25.875,,adl
11.874254,0.1943,-1.0421,-0.389,-0.0629,-0.3877,-0.009,35.4,6.45,25.875,,adl
11.876091,0.4761,-0.219,-0.0917,-0.0629,-0.3877,-0.009,35.4,6.45,25.875,,adl
11.888937,0.4761,-0.219,-0.0917,0.0392,-0.332,-0.0791,35.4,6.45,25.875,,adl
11.894312,0.4761,-0.219,-0.0917,0.0392,-0.332,-0.0791,35.4,6.45,25.875,,adl
11.895904,0.3406,0.3334,0.13,0.0392,-0.332,-0.0791,35.4,6.45,25.875,,adl
11.914028,0.3406,0.3334,0.13,0.0392,-0.332,-0.0791,35.4,6.45,25.875,,adl
11.915808,-0.0101,0.6109,0.2097,0.0392,-0.332,-0.0791,35.4,6.45,25.875,,adl
11.919452,-0.0101,0.6109,0.2097,0.0392,-0.332,-0.0791,36.75,6.45,25.95,,adl
11.933328,-0.0101,0.6109,0.2097,0.0392,-0.332,-0.0791,36.75,6.45,25.95,,adl
11.934897,-0.4965,0.7888,0.1001,0.0392,-0.332,-0.0791,36.75,6.45,25.95,,adl
11.949277,-0.4965,0.7888,0.1001,0.0392,-0.332,-0.0791,36.75,6.45,25.95,,adl
11.951017,-0.7513,0.8139,0.0004,0.0392,-0.332,-0.0791,36.75,6.45,25.95,,adl
11.958477,-0.7513,0.8139,0.0004,0.0496,-0.2234,-0.1548,36.75,6.45,25.95,,adl
11.973049,-0.7513,0.8139,0.0004,0.0496,-0.2234,-0.1548,36.75,6.45,25.95,,adl
11.975176,-0.8215,0.732,-0.1561,0.0496,-0.2234,-0.1548,36.75,6.45,25.95,,adl
11.988432,-0.8215,0.732,-0.1561,0.0496,-0.2234,-0.1548,36.75,6.45,25.95,,adl
11.99065,-0.9293,0.6566,-0.1251,0.0496,-0.2234,-0.1548,36.75,6.45,25.95,,adl
11.992368,-0.9293,0.6566,-0.1251,0.0496,-0.2234,-0.1548,37.35,7.05,25.05,,adl
12.011251,-0.9293,0.6566,-0.1251,0.0496,-0.2234,-0.1548,37.35,7.05,25.05,,adl
12.014506,-0.9433,0.5879,0.0145,0.0496,-0.2234,-0.1548,37.35,7.05,25.05,,adl
12.025673,-0.9433,0.5879,0.0145,-0.0389,-0.0858,-0.1348,37.35,7.05,25.05,,adl
12.030149,-0.9433,0.5879,0.0145,-0.0389,-0.0858,-0.1348,37.35,7.05,25.05,,adl
12.032814,-0.7282,0.5462,-0.0111,-0.0389,-0.0858,-0.1348,37.35,7.05,25.05,,adl
12.048404,-0.7282,0.5462,-0.0111,-0.0389,-0.0858,-0.1348,37.35,7.05,25.05,,adl
12.051417,-0.7403,0.434,0.5545,-0.0389,-0.0858,-0.1348,37.35,7.05,25.05,,adl
12.057782,-0.7403,0.434,0.5545,-0.0389,-0.0858,-0.1348,37.65,6.975,24.675,,adl
12.069319,-0.7403,0.434,0.5545,-0.0389,-0.0858,-0.1348,37.65,6.975,24.675,,adl
12.072596,-0.6479,0.4004,0.7156,-0.0389,-0.0858,-0.1348,37.65,6.975,24.675,,adl
