time,ax,ay,az,wx,wy,wz,Bx,By,Bz,Unnamed: 10,label
0.146795,0.0,0.0,0.0,0.0,0.0,0.0,0.0,0.0,0.0,,adl
0.147235,0.0,0.0,0.0,0.0,0.0,0.0,0.0,0.0,0.0,,adl
0.147498,0.0,0.0,0.0,0.0,0.0,0.0,0.0,0.0,0.0,,adl
0.147725,0.0,0.0,0.0,0.0,0.0,0.0,0.0,0.0,0.0,,adl
0.14791,0.0,0.0,0.0,0.0,0.0,0.0,0.0,0.0,0.0,,adl
0.148101,0.0,0.0,0.0,0.0,0.0,0.0,0.0,0.0,0.0,,adl
0.14828,0.0,0.0,0.0,0.0,0.0,0.0,0.0,0.0,0.0,,adl
0.14847,0.0,0.0,0.0,0.0,0.0,0.0,0.0,0.0,0.0,,adl
0.148681,0.0,0.0,0.0,0.0,0.0,0.0,0.0,0.0,0.0,,adl
0.148862,0.0,0.0,0.0,0.0,0.0,0.0,0.0,0.0,0.0,,adl
0.149147,0.0,0.0,0.0,0.0,0.0,0.0,0.0,0.0,0.0,,adl
0.149336,0.0,0.0,0.0,0.0,0.0,0.0,0.0,0.0,0.0,,adl
0.149528,0.0,0.0,0.0,0.0,0.0,0.0,0.0,0.0,0.0,,adl
0.149728,0.0,0.0,0.0,0.0,0.0,0.0,0.0,0.0,0.0,,adl
0.14995,-0.0134,0.0457,-0.0025,0.0,0.0,0.0,0.0,0.0,0.0,,adl
0.150133,-0.0134,0.0457,-0.0025,0.0,0.0,0.0,0.0,0.0,0.0,,adl
0.150311,-0.0445,0.0601,0.0118,0.0,0.0,0.0,0.0,0.0,0.0,,adl
0.150513,-0.0445,0.0601,0.0118,0.0,0.0,0.0,0.0,0.0,0.0,,adl
0.150699,-0.0565,0.0457,-0.0121,0.0,0.0,0.0,0.0,0.0,0.0,,adl
0.150892,-0.0565,0.0457,-0.0121,0.0,0.0,0.0,0.0,0.0,0.0,,adl
0.151074,-0.079,0.0601,-0.0362,0.0,0.0,0.0,0.0,0.0,0.0,,adl
0.151267,-0.079,0.0601,-0.0362,0.0,0.0,0.0,0.0,0.0,0.0,,adl
0.151453,-0.1025,0.06,-0.0104,0.0,0.0,0.0,0.0,0.0,0.0,,adl
0.151656,-0.1025,0.06,-0.0104,0.0,0.0,0.0,0.0,0.0,0.0,,adl
0.151834,-0.1072,0.0576,-0.0319,0.0,0.0,0.0,0.0,0.0,0.0,,adl
0.152034,-0.1072,0.0576,-0.0319,0.0,0.0,0.0,0.0,0.0,0.0,,adl
0.152225,-0.1094,0.0432,-0.0207,0.0,0.0,0.0,0.0,0.0,0.0,,adl
0.152459,-0.1094,0.0432,-0.0207,0.0038,0.0336,-0.0185,0.0,0.0,0.0,,adl
0.152646,-0.1094,0.0432,-0.0207,0.0038,0.0336,-0.0185,0.0,0.0,0.0,,adl
0.152842,-0.1045,0.036,-0.0327,0.0038,0.0336,-0.0185,0.0,0.0,0.0,,adl
0.153091,-0.1045,0.036,-0.0327,0.0038,0.0336,-0.0185,-29.55,8.625,-29.55,,adl
0.153295,-0.1045,0.036,-0.0327,0.0038,0.0336,-0.0185,-29.55,8.625,-29.55,,adl
0.153478,-0.0828,0.0574,-0.0194,0.0038,0.0336,-0.0185,-29.55,8.625,-29.55,,adl
0.153665,-0.0828,0.0574,-0.0194,0.0038,0.0336,-0.0185,-29.55,8.625,-29.55,,adl
0.153856,-0.0671,0.0502,-0.0272,0.0038,0.0336,-0.0185,-29.55,8.625,-29.55,,adl
0.154049,-0.0671,0.0502,-0.0272,0.0038,0.0336,-0.0185,-29.55,8.625,-29.55,,adl
0.154255,-0.0635,0.0621,-0.0516,0.0038,0.0336,-0.0185,-29.55,8.625,-29.55,,adl
0.154458,-0.0635,0.0621,-0.0516,0.0038,0.0336,-0.0185,-29.55,8.625,-29.55,,adl
0.154661,-0.0575,0.0669,-0.0306,0.0038,0.0336,-0.0185,-29.55,8.625,-29.55,,adl
0.154864,-0.0575,0.0669,-0.0306,0.0038,0.0336,-0.0185,-29.55,8.625,-29.55,,adl
0.155052,-0.0323,0.074,-0.0144,0.0038,0.0336,-0.0185,-29.55,8.625,-29.55,,adl
0.155258,-0.0323,0.074,-0.0144,0.0038,0.0336,-0.0185,-29.55,8.625,-29.55,,adl
0.15545,-0.0453,0.0668,0.0066,0.0038,0.0336,-0.0185,-29.55,8.625,-29.55,,adl
0.155672,-0.0453,0.0668,0.0066,0.0038,0.0336,-0.0185,-29.55,8.625,-29.55,,adl
0.155856,-0.0346,0.0547,0.0133,0.0038,0.0336,-0.0185,-29.55,8.625,-29.55,,adl
0.156059,-0.0346,0.0547,0.0133,0.0038,0.0336,-0.0185,-29.55,8.625,-29.55,,adl
0.15626,-0.0334,0.0403,0.0513,0.0038,0.0336,-0.0185,-29.55,8.625,-29.55,,adl
0.156459,-0.0334,0.0403,0.0513,0.0038,0.0336,-0.0185,-29.55,8.625,-29.55,,adl
0.156659,-0.0393,0.0259,0.0723,0.0038,0.0336,-0.0185,-29.55,8.625,-29.55,,adl
0.172326,-0.0393,0.0259,0.0723,0.0038,0.0336,-0.0185,-29.55,8.625,-29.55,,adl
0.173426,-0.0213,0.0235,0.0382,0.0038,0.0336,-0.0185,-29.55,8.625,-29.55,,adl
0.174066,-0.0213,0.0235,0.0382,0.0038,0.0336,-0.0185,-29.55,8.625,-29.55,,adl
0.174583,-0.0031,0.0067,0.0305,0.0038,0.0336,-0.0185,-29.55,8.625,-29.55,,adl
0.175168,-0.0031,0.0067,0.0305,0.0038,0.0336,-0.0185,-29.55,8.625,-29.55,,adl
0.175673,-0.0043,0.0162,-0.0227,0.0038,0.0336,-0.0185,-29.55,8.625,-29.55,,adl
0.176322,-0.0043,0.0162,-0.0227,0.0038,0.0336,-0.0185,-29.55,8.625,-29.55,,adl
0.17686,-0.0186,0.0425,-0.1015,0.0038,0.0336,-0.0185,-29.55,8.625,-29.55,,adl
0.177483,-0.0186,0.0425,-0.1015,0.0084,0.0399,-0.0208,-29.55,8.625,-29.55,,adl
0.178059,-0.0186,0.0425,-0.1015,0.0084,0.0399,-0.0208,-29.55,8.625,-29.55,,adl
0.182276,0.0122,0.0401,-0.2375,0.0084,0.0399,-0.0208,-29.55,8.625,-29.55,,adl
0.182926,0.0122,0.0401,-0.2375,0.0084,0.0399,-0.0208,-30.075,9.375,-28.725,,adl
0.183482,0.0122,0.0401,-0.2375,0.0084,0.0399,-0.0208,-30.075,9.375,-28.725,,adl
0.183932,-0.0467,0.0545,-0.168,0.0084,0.0399,-0.0208,-30.075,9.375,-28.725,,adl
0.188514,-0.0467,0.0545,-0.168,0.0084,0.0399,-0.0208,-30.075,9.375,-28.725,,adl
0.189272,-0.0958,0.0975,-0.1114,0.0084,0.0399,-0.0208,-30.075,9.375,-28.725,,adl
0.198502,-0.0958,0.0975,-0.1114,0.0084,0.0399,-0.0208,-30.075,9.375,-28.725,,adl
0.199165,-0.0947,0.1045,-0.1508,0.0084,0.0399,-0.0208,-30.075,9.375,-28.725,,adl
0.199746,-0.0947,0.1045,-0.1508,0.0084,0.0399,-0.0208,-30.075,9.375,-28.725,,adl
0.200128,-0.1437,0.0973,-0.0415,0.0084,0.0399,-0.0208,-30.075,9.375,-28.725,,adl
0.204366,-0.1437,0.0973,-0.0415,0.0084,0.0399,-0.0208,-30.075,9.375,-28.725,,adl
0.205057,-0.1998,0.0997,0.0614,0.0084,0.0399,-0.0208,-30.075,9.375,-28.725,,adl
0.206683,-0.1998,0.0997,0.0614,0.0084,0.0399,-0.0208,-30.075,9.375,-28.725,,adl
0.207249,-0.1362,0.0948,0.1426,0.0084,0.0399,-0.0208,-30.075,9.375,-28.725,,adl
0.211955,-0.1362,0.0948,0.1426,0.0084,0.0399,-0.0208,-30.075,9.375,-28.725,,adl
0.212543,-0.13,0.0732,0.4304,0.0084,0.0399,-0.0208,-30.075,9.375,-28.725,,adl
0.216007,-0.13,0.0732,0.4304,0.0084,0.0399,-0.0208,-30.075,9.375,-28.725,,adl
0.216439,-0.157,0.0539,0.3965,0.0084,0.0399,-0.0208,-30.075,9.375,-28.725,,adl
0.221603,-0.157,0.0539,0.3965,0.0084,0.0399,-0.0208,-30.075,9.375,-28.725,,adl
0.222189,-0.1015,0.0323,0.1185,0.0084,0.0399,-0.0208,-30.075,9.375,-28.725,,adl
0.226123,-0.1015,0.0323,0.1185,0.0084,0.0399,-0.0208,-30.075,9.375,-28.725,,adl
0.226716,-0.0196,-0.0085,-0.0997,0.0084,0.0399,-0.0208,-30.075,9.375,-28.725,,adl
0.23191,-0.0196,-0.0085,-0.0997,0.0084,0.0399,-0.0208,-30.075,9.375,-28.725,,adl
0.232606,0.0294,-0.0157,-0.2098,0.0084,0.0399,-0.0208,-30.075,9.375,-28.725,,adl
0.236774,0.0294,-0.0157,-0.2098,0.0084,0.0399,-0.0208,-30.075,9.375,-28.725,,adl
0.237677,0.0662,-0.0038,-0.2169,0.0084,0.0399,-0.0208,-30.075,9.375,-28.725,,adl
0.241466,0.0662,-0.0038,-0.2169,0.0084,0.0399,-0.0208,-30.075,9.375,-28.725,,adl
0.242133,0.0135,0.0417,-0.2112,0.0084,0.0399,-0.0208,-30.075,9.375,-28.725,,adl
0.246338,0.0135,0.0417,-0.2112,0.0084,0.0399,-0.0208,-30.075,9.375,-28.725,,adl
0.247001,-0.0093,0.0919,-0.2187,0.0084,0.0399,-0.0208,-30.075,9.375,-28.725,,adl
0.24764,-0.0093,0.0919,-0.2187,0.0168,0.0324,-0.0221,-30.075,9.375,-28.725,,adl
0.248435,-0.0093,0.0919,-0.2187,0.0168,0.0324,-0.0221,-29.25,9.45,-29.1,,adl
0.251226,-0.0093,0.0919,-0.2187,0.0168,0.0324,-0.0221,-29.25,9.45,-29.1,,adl
0.251828,-0.0455,0.099,-0.1641,0.0168,0.0324,-0.0221,-29.25,9.45,-29.1,,adl
0.255939,-0.0455,0.099,-0.1641,0.0168,0.0324,-0.0221,-29.25,9.45,-29.1,,adl
0.256455,-0.0392,0.1134,-0.0867,0.0168,0.0324,-0.0221,-29.25,9.45,-29.1,,adl
0.266496,-0.0392,0.1134,-0.0867,0.0168,0.0324,-0.0221,-29.25,9.45,-29.1,,adl
0.267516,-0.0033,0.0918,0.1737,0.0168,0.0324,-0.0221,-29.25,9.45,-29.1,,adl
0.272319,-0.0033,0.0918,0.1737,0.0168,0.0324,-0.0221,-29.25,9.45,-29.1,,adl
0.27335,0.0007,0.0583,0.2344,0.0168,0.0324,-0.0221,-29.25,9.45,-29.1,,adl
0.276865,0.0007,0.0583,0.2344,0.0168,0.0324,-0.0221,-29.25,9.45,-29.1,,adl
0.277789,-0.0107,0.0295,0.2309,0.0168,0.0324,-0.0221,-29.25,9.45,-29.1,,adl
0.28391,-0.0107,0.0295,0.2309,0.0168,0.0324,-0.0221,-29.25,9.45,-29.1,,adl
0.284747,-0.0197,0.0174,0.1695,0.0168,0.0324,-0.0221,-29.25,9.45,-29.1,,adl
0.285668,-0.0197,0.0174,0.1695,0.0168,0.0324,-0.0221,-29.25,9.45,-29.1,,adl
0.286226,-0.0623,0.0101,0.1221,0.0168,0.0324,-0.0221,-29.25,9.45,-29.1,,adl
0.289926,-0.0623,0.0101,0.1221,0.0168,0.0324,-0.0221,-29.25,9.45,-29.1,,adl
0.290676,-0.0832,-0.0091,0.0429,0.0168,0.0324,-0.0221,-29.25,9.45,-29.1,,adl
0.297956,-0.0832,-0.0091,0.0429,0.0168,0.0324,-0.0221,-29.25,9.45,-29.1,,adl
0.298871,-0.1392,-0.0141,-0.0127,0.0168,0.0324,-0.0221,-29.25,9.45,-29.1,,adl
0.29967,-0.1392,-0.0141,-0.0127,0.0168,0.0324,-0.0221,-29.25,9.45,-29.1,,adl
0.300322,-0.1499,0.0098,-0.0232,0.0168,0.0324,-0.0221,-29.25,9.45,-29.1,,adl
0.306345,-0.1499,0.0098,-0.0232,0.0168,0.0324,-0.0221,-29.25,9.45,-29.1,,adl
0.308136,-0.194,0.0169,-0.0666,0.0168,0.0324,-0.0221,-29.25,9.45,-29.1,,adl
0.309153,-0.194,0.0169,-0.0666,0.0168,0.0324,-0.0221,-29.25,9.45,-29.1,,adl
0.309939,-0.1807,0.0312,-0.1118,0.0168,0.0324,-0.0221,-29.25,9.45,-29.1,,adl
0.321453,-0.1807,0.0312,-0.1118,0.0168,0.0324,-0.0221,-29.25,9.45,-29.1,,adl
0.322245,-0.2055,0.0528,-0.1089,0.0168,0.0324,-0.0221,-29.25,9.45,-29.1,,adl
0.322976,-0.2055,0.0528,-0.1089,0.0168,0.0324,-0.0221,-29.55,9.675,-29.25,,adl
0.323606,-0.2055,0.0528,-0.1089,0.0168,0.0324,-0.0221,-29.55,9.675,-29.25,,adl
0.324232,-0.2186,0.0361,-0.1178,0.0168,0.0324,-0.0221,-29.55,9.675,-29.25,,adl
0.325062,-0.2186,0.0361,-0.1178,0.0047,0.0075,-0.0318,-29.55,9.675,-29.25,,adl
0.325763,-0.2186,0.0361,-0.1178,0.0047,0.0075,-0.0318,-29.55,9.675,-29.25,,adl
0.326254,-0.2328,0.0338,-0.0897,0.0047,0.0075,-0.0318,-29.55,9.675,-29.25,,adl
0.329243,-0.2328,0.0338,-0.0897,0.0047,0.0075,-0.0318,-29.55,9.675,-29.25,,adl
0.329997,-0.2052,0.0266,-0.0464,0.0047,0.0075,-0.0318,-29.55,9.675,-29.25,,adl
0.334198,-0.2052,0.0266,-0.0464,0.0047,0.0075,-0.0318,-29.55,9.675,-29.25,,adl
0.334952,-0.1924,0.0123,-0.006,0.0047,0.0075,-0.0318,-29.55,9.675,-29.25,,adl
0.338944,-0.1924,0.0123,-0.006,0.0047,0.0075,-0.0318,-29.55,9.675,-29.25,,adl
0.339575,-0.1732,0.0124,0.0238,0.0047,0.0075,-0.0318,-29.55,9.675,-29.25,,adl
0.344263,-0.1732,0.0124,0.0238,0.0047,0.0075,-0.0318,-29.55,9.675,-29.25,,adl
0.345132,-0.134,0.0196,0.0236,0.0047,0.0075,-0.0318,-29.55,9.675,-29.25,,adl
0.351113,-0.134,0.0196,0.0236,0.0047,0.0075,-0.0318,-29.55,9.675,-29.25,,adl
0.352273,-0.1091,0.0412,0.0271,0.0047,0.0075,-0.0318,-29.55,9.675,-29.25,,adl
0.352988,-0.1091,0.0412,0.0271,0.0047,0.0075,-0.0318,-29.55,9.675,-29.25,,adl
0.353522,-0.0976,0.0531,-0.0088,0.0047,0.0075,-0.0318,-29.55,9.675,-29.25,,adl
0.359849,-0.0976,0.0531,-0.0088,0.0047,0.0075,-0.0318,-29.55,9.675,-29.25,,adl
0.360649,-0.0406,0.0675,-0.0395,0.0047,0.0075,-0.0318,-29.55,9.675,-29.25,,adl
0.366595,-0.0406,0.0675,-0.0395,0.0047,0.0075,-0.0318,-29.55,9.675,-29.25,,adl
0.367446,-0.0199,0.0627,-0.0772,0.0047,0.0075,-0.0318,-29.55,9.675,-29.25,,adl
0.368121,-0.0199,0.0627,-0.0772,0.0047,0.0075,-0.0318,-29.55,9.675,-29.25,,adl
0.368675,0.0054,0.0651,-0.0933,0.0047,0.0075,-0.0318,-29.55,9.675,-29.25,,adl
0.374252,0.0054,0.0651,-0.0933,0.0047,0.0075,-0.0318,-29.55,9.675,-29.25,,adl
0.374968,0.0044,0.0556,-0.09,0.0047,0.0075,-0.0318,-29.55,9.675,-29.25,,adl
0.380826,0.0044,0.0556,-0.09,0.0047,0.0075,-0.0318,-29.55,9.675,-29.25,,adl
0.381683,0.0011,0.0652,-0.0889,0.0047,0.0075,-0.0318,-29.55,9.675,-29.25,,adl
0.382325,0.0011,0.0652,-0.0889,0.0047,0.0075,-0.0318,-29.55,9.675,-29.25,,adl
0.382835,0.012,0.0485,-0.0687,0.0047,0.0075,-0.0318,-29.55,9.675,-29.25,,adl
0.386617,0.012,0.0485,-0.0687,-0.0125,0.0136,-0.017,-29.55,9.675,-29.25,,adl
0.387298,0.012,0.0485,-0.0687,-0.0125,0.0136,-0.017,-29.55,9.675,-29.25,,adl
0.387797,0.0001,0.0294,-0.0539,-0.0125,0.0136,-0.017,-29.55,9.675,-29.25,,adl
0.388477,0.0001,0.0294,-0.0539,-0.0125,0.0136,-0.017,-29.85,9.15,-29.55,,adl
0.393406,0.0001,0.0294,-0.0539,-0.0125,0.0136,-0.017,-29.85,9.15,-29.55,,adl
0.394083,-0.001,0.0222,-0.036,-0.0125,0.0136,-0.017,-29.85,9.15,-29.55,,adl
0.399082,-0.001,0.0222,-0.036,-0.0125,0.0136,-0.017,-29.85,9.15,-29.55,,adl
0.399883,-0.0149,0.0223,-0.0238,-0.0125,0.0136,-0.017,-29.85,9.15,-29.55,,adl
0.402864,-0.0149,0.0223,-0.0238,-0.0125,0.0136,-0.017,-29.85,9.15,-29.55,,adl
0.403495,-0.0205,0.0032,-0.0128,-0.0125,0.0136,-0.017,-29.85,9.15,-29.55,,adl
0.410737,-0.0205,0.0032,-0.0128,-0.0125,0.0136,-0.017,-29.85,9.15,-29.55,,adl
0.411594,-0.0476,0.0033,-0.035,-0.0125,0.0136,-0.017,-29.85,9.15,-29.55,,adl
0.412377,-0.0476,0.0033,-0.035,-0.0125,0.0136,-0.017,-29.85,9.15,-29.55,,adl
0.413155,-0.0983,-0.0015,0.0374,-0.0125,0.0136,-0.017,-29.85,9.15,-29.55,,adl
0.420591,-0.0983,-0.0015,0.0374,-0.0125,0.0136,-0.017,-29.85,9.15,-29.55,,adl
0.421808,-0.0914,0.0033,0.1012,-0.0125,0.0136,-0.017,-29.85,9.15,-29.55,,adl
0.422516,-0.0914,0.0033,0.1012,-0.0125,0.0136,-0.017,-29.85,9.15,-29.55,,adl
0.42308,-0.0608,0.032,0.0461,-0.0125,0.0136,-0.017,-29.85,9.15,-29.55,,adl
0.430536,-0.0608,0.032,0.0461,-0.0125,0.0136,-0.017,-29.85,9.15,-29.55,,adl
0.431379,-0.0928,0.0607,-0.0182,-0.0125,0.0136,-0.017,-29.85,9.15,-29.55,,adl
0.432126,-0.0928,0.0607,-0.0182,-0.0125,0.0136,-0.017,-29.85,9.15,-29.55,,adl
0.432712,-0.1196,0.0559,-0.0747,-0.0125,0.0136,-0.017,-29.85,9.15,-29.55,,adl
0.438103,-0.1196,0.0559,-0.0747,-0.0125,0.0136,-0.017,-29.85,9.15,-29.55,,adl
0.439652,-0.1424,0.0488,-0.0908,-0.0125,0.0136,-0.017,-29.85,9.15,-29.55,,adl
0.442737,-0.1424,0.0488,-0.0908,-0.0125,0.0136,-0.017,-29.85,9.15,-29.55,,adl
0.443758,-0.1701,0.0608,-0.0968,-0.0125,0.0136,-0.017,-29.85,9.15,-29.55,,adl
0.450918,-0.1701,0.0608,-0.0968,-0.0125,0.0136,-0.017,-29.85,9.15,-29.55,,adl
0.452002,-0.1846,0.0848,-0.0838,-0.0125,0.0136,-0.017,-29.85,9.15,-29.55,,adl
0.452933,-0.1846,0.0848,-0.0838,-0.0125,0.0136,-0.017,-30.15,9.3,-29.175,,adl
0.45383,-0.1846,0.0848,-0.0838,-0.0125,0.0136,-0.017,-30.15,9.3,-29.175,,adl
0.454573,-0.2037,0.092,-0.0518,-0.0125,0.0136,-0.017,-30.15,9.3,-29.175,,adl
0.458819,-0.2037,0.092,-0.0518,-0.0156,0.0351,-0.0202,-30.15,9.3,-29.175,,adl
0.460175,-0.2037,0.092,-0.0518,-0.0156,0.0351,-0.0202,-30.15,9.3,-29.175,,adl
0.46101,-0.1928,0.0753,0.0293,-0.0156,0.0351,-0.0202,-30.15,9.3,-29.175,,adl
0.468592,-0.1928,0.0753,0.0293,-0.0156,0.0351,-0.0202,-30.15,9.3,-29.175,,adl
0.4694,-0.1868,0.0323,0.0716,-0.0156,0.0351,-0.0202,-30.15,9.3,-29.175,,adl
0.469977,-0.1868,0.0323,0.0716,-0.0156,0.0351,-0.0202,-30.15,9.3,-29.175,,adl
0.470492,-0.1579,0.0203,0.0932,-0.0156,0.0351,-0.0202,-30.15,9.3,-29.175,,adl
0.472688,-0.1579,0.0203,0.0932,-0.0156,0.0351,-0.0202,-30.15,9.3,-29.175,,adl
0.473407,-0.1385,0.0012,0.0974,-0.0156,0.0351,-0.0202,-30.15,9.3,-29.175,,adl
0.47697,-0.1385,0.0012,0.0974,-0.0156,0.0351,-0.0202,-30.15,9.3,-29.175,,adl
0.477595,-0.1364,-0.0419,0.0851,-0.0156,0.0351,-0.0202,-30.15,9.3,-29.175,,adl
0.482122,-0.1364,-0.0419,0.0851,-0.0156,0.0351,-0.0202,-30.15,9.3,-29.175,,adl
0.482916,-0.1415,-0.0396,0.0464,-0.0156,0.0351,-0.0202,-30.15,9.3,-29.175,,adl
0.486414,-0.1415,-0.0396,0.0464,-0.0156,0.0351,-0.0202,-30.15,9.3,-29.175,,adl
0.487002,-0.1631,-0.0372,0.0266,-0.0156,0.0351,-0.0202,-30.15,9.3,-29.175,,adl
0.491307,-0.1631,-0.0372,0.0266,-0.0156,0.0351,-0.0202,-30.15,9.3,-29.175,,adl
0.491951,-0.1796,-0.0253,0.0239,-0.0156,0.0351,-0.0202,-30.15,9.3,-29.175,,adl
0.497756,-0.1796,-0.0253,0.0239,-0.0156,0.0351,-0.0202,-30.15,9.3,-29.175,,adl
0.498529,-0.1705,-0.0133,0.0189,-0.0156,0.0351,-0.0202,-30.15,9.3,-29.175,,adl
0.500469,-0.1705,-0.0133,0.0189,-0.0156,0.0351,-0.0202,-30.15,9.3,-29.175,,adl
0.501114,-0.1572,-0.0013,0.0617,-0.0156,0.0351,-0.0202,-30.15,9.3,-29.175,,adl
0.506813,-0.1572,-0.0013,0.0617,-0.0156,0.0351,-0.0202,-30.15,9.3,-29.175,,adl
0.50773,-0.134,0.001,0.0609,-0.0156,0.0351,-0.0202,-30.15,9.3,-29.175,,adl
0.516852,-0.134,0.001,0.0609,-0.0156,0.0351,-0.0202,-30.15,9.3,-29.175,,adl
0.517916,-0.1142,0.0154,0.0489,-0.0156,0.0351,-0.0202,-30.15,9.3,-29.175,,adl
0.521056,-0.1142,0.0154,0.0489,-0.0156,0.0351,-0.0202,-30.15,9.3,-29.175,,adl
0.521825,-0.105,0.0249,0.0296,-0.0156,0.0351,-0.0202,-30.15,9.3,-29.175,,adl
0.525389,-0.105,0.0249,0.0296,-0.0156,0.0351,-0.0202,-30.0,8.925,-29.025,,adl
0.526405,-0.105,0.0249,0.0296,-0.0156,0.0351,-0.0202,-30.0,8.925,-29.025,,adl
0.527175,-0.0979,-0.0014,0.0005,-0.0156,0.0351,-0.0202,-30.0,8.925,-29.025,,adl
0.531725,-0.0979,-0.0014,0.0005,-0.0156,0.0351,-0.0202,-30.0,8.925,-29.025,,adl
0.532873,-0.1065,0.0178,-0.0138,-0.0156,0.0351,-0.0202,-30.0,8.925,-29.025,,adl
0.534099,-0.1065,0.0178,-0.0138,-0.0057,0.0315,-0.0244,-30.0,8.925,-29.025,,adl
0.535193,-0.1065,0.0178,-0.0138,-0.0057,0.0315,-0.0244,-30.0,8.925,-29.025,,adl
0.536107,-0.083,0.0201,-0.021,-0.0057,0.0315,-0.0244,-30.0,8.925,-29.025,,adl
0.541543,-0.083,0.0201,-0.021,-0.0057,0.0315,-0.0244,-30.0,8.925,-29.025,,adl
0.542701,-0.0717,0.0321,-0.0188,-0.0057,0.0315,-0.0244,-30.0,8.925,-29.025,,adl
0.543762,-0.0717,0.0321,-0.0188,-0.0057,0.0315,-0.0244,-30.0,8.925,-29.025,,adl
0.544598,-0.0708,0.0296,-0.0292,-0.0057,0.0315,-0.0244,-30.0,8.925,-29.025,,adl
0.55177,-0.0708,0.0296,-0.0292,-0.0057,0.0315,-0.0244,-30.0,8.925,-29.025,,adl
0.552855,-0.0607,0.0559,-0.0527,-0.0057,0.0315,-0.0244,-30.0,8.925,-29.025,,adl
0.553885,-0.0607,0.0559,-0.0527,-0.0057,0.0315,-0.0244,-30.0,8.925,-29.025,,adl
0.554538,-0.0735,0.0535,-0.0648,-0.0057,0.0315,-0.0244,-30.0,8.925,-29.025,,adl
0.559936,-0.0735,0.0535,-0.0648,-0.0057,0.0315,-0.0244,-30.0,8.925,-29.025,,adl
0.560845,-0.0584,0.0463,-0.0846,-0.0057,0.0315,-0.0244,-30.0,8.925,-29.025,,adl
0.56527,-0.0584,0.0463,-0.0846,-0.0057,0.0315,-0.0244,-30.0,8.925,-29.025,,adl
0.566077,-0.0472,0.0606,-0.087,-0.0057,0.0315,-0.0244,-30.0,8.925,-29.025,,adl
0.569554,-0.0472,0.0606,-0.087,-0.0057,0.0315,-0.0244,-30.0,8.925,-29.025,,adl
0.570297,-0.061,0.0631,-0.0982,-0.0057,0.0315,-0.0244,-30.0,8.925,-29.025,,adl
0.57471,-0.061,0.0631,-0.0982,-0.0057,0.0315,-0.0244,-30.0,8.925,-29.025,,adl
0.575609,-0.0498,0.0606,-0.0957,-0.0057,0.0315,-0.0244,-30.0,8.925,-29.025,,adl
0.579478,-0.0498,0.0606,-0.0957,-0.0057,0.0315,-0.0244,-30.0,8.925,-29.025,,adl
0.58046,-0.0471,0.051,-0.1175,-0.0057,0.0315,-0.0244,-30.0,8.925,-29.025,,adl
0.584232,-0.0471,0.051,-0.1175,-0.0057,0.0315,-0.0244,-30.0,8.925,-29.025,,adl
0.585039,-0.0503,0.063,-0.1125,-0.0057,0.0315,-0.0244,-30.0,8.925,-29.025,,adl
0.588719,-0.0503,0.063,-0.1125,-0.0057,0.0315,-0.0244,-30.0,8.925,-29.025,,adl
0.589441,-0.0428,0.0415,-0.1186,-0.0057,0.0315,-0.0244,-30.0,8.925,-29.025,,adl
0.595708,-0.0428,0.0415,-0.1186,-0.0057,0.0315,-0.0244,-30.0,8.925,-29.025,,adl
0.596483,-0.0498,0.0438,-0.1065,-0.0057,0.0315,-0.0244,-30.0,8.925,-29.025,,adl
0.599166,-0.0498,0.0438,-0.1065,-0.0057,0.0315,-0.0244,-30.15,8.85,-28.875,,adl
0.599979,-0.0498,0.0438,-0.1065,0.0108,0.0377,-0.0203,-30.15,8.85,-28.875,,adl
0.600566,-0.0498,0.0438,-0.1065,0.0108,0.0377,-0.0203,-30.15,8.85,-28.875,,adl
0.601087,-0.0483,0.0462,-0.1012,0.0108,0.0377,-0.0203,-30.15,8.85,-28.875,,adl
0.604022,-0.0483,0.0462,-0.1012,0.0108,0.0377,-0.0203,-30.15,8.85,-28.875,,adl
0.605405,-0.0455,0.0415,-0.0836,0.0108,0.0377,-0.0203,-30.15,8.85,-28.875,,adl
0.608985,-0.0455,0.0415,-0.0836,0.0108,0.0377,-0.0203,-30.15,8.85,-28.875,,adl
0.609872,-0.0559,0.0511,-0.0643,0.0108,0.0377,-0.0203,-30.15,8.85,-28.875,,adl
0.621145,-0.0559,0.0511,-0.0643,0.0108,0.0377,-0.0203,-30.15,8.85,-28.875,,adl
0.622133,-0.0441,0.0342,-0.0692,0.0108,0.0377,-0.0203,-30.15,8.85,-28.875,,adl
0.622875,-0.0441,0.0342,-0.0692,0.0108,0.0377,-0.0203,-30.15,8.85,-28.875,,adl
0.623468,-0.0428,0.0223,-0.0855,0.0108,0.0377,-0.0203,-30.15,8.85,-28.875,,adl
0.624132,-0.0428,0.0223,-0.0855,0.0108,0.0377,-0.0203,-30.15,8.85,-28.875,,adl
0.625057,-0.0462,0.0271,-0.0778,0.0108,0.0377,-0.0203,-30.15,8.85,-28.875,,adl
0.628741,-0.0462,0.0271,-0.0778,0.0108,0.0377,-0.0203,-30.15,8.85,-28.875,,adl
0.62949,-0.0386,0.0128,-0.0935,0.0108,0.0377,-0.0203,-30.15,8.85,-28.875,,adl
0.635103,-0.0386,0.0128,-0.0935,0.0108,0.0377,-0.0203,-30.15,8.85,-28.875,,adl
0.635855,-0.0317,0.0199,-0.0951,0.0108,0.0377,-0.0203,-30.15,8.85,-28.875,,adl
0.639898,-0.0317,0.0199,-0.0951,0.0108,0.0377,-0.0203,-30.15,8.85,-28.875,,adl
0.640465,-0.0479,0.0104,-0.0727,0.0108,0.0377,-0.0203,-30.15,8.85,-28.875,,adl
0.642419,-0.0479,0.0104,-0.0727,0.0108,0.0377,-0.0203,-30.15,8.85,-28.875,,adl
0.642985,-0.0182,0.0152,-0.0672,0.0108,0.0377,-0.0203,-30.15,8.85,-28.875,,adl
0.650026,-0.0182,0.0152,-0.0672,0.0108,0.0377,-0.0203,-30.15,8.85,-28.875,,adl
0.650648,-0.0092,0.0319,-0.0589,0.0108,0.0377,-0.0203,-30.15,8.85,-28.875,,adl
0.651116,-0.0092,0.0319,-0.0589,0.0108,0.0377,-0.0203,-30.15,8.85,-28.875,,adl
0.651474,-0.0082,0.0391,-0.0343,0.0108,0.0377,-0.0203,-30.15,8.85,-28.875,,adl
0.657441,-0.0082,0.0391,-0.0343,0.0108,0.0377,-0.0203,-30.15,8.85,-28.875,,adl
0.657996,-0.0097,0.0415,-0.0502,0.0108,0.0377,-0.0203,-30.15,8.85,-28.875,,adl
0.668112,-0.0097,0.0415,-0.0502,0.0108,0.0377,-0.0203,-28.95,9.525,-29.625,,adl
0.669313,-0.0097,0.0415,-0.0502,0.0108,0.0377,-0.0203,-28.95,9.525,-29.625,,adl
0.670117,-0.0088,0.0511,-0.0351,0.0108,0.0377,-0.0203,-28.95,9.525,-29.625,,adl
0.670985,-0.0088,0.0511,-0.0351,-0.0006,0.0252,-0.025,-28.95,9.525,-29.625,,adl
0.671999,-0.0088,0.0511,-0.0351,-0.0006,0.0252,-0.025,-28.95,9.525,-29.625,,adl
0.672766,-0.0324,0.0511,-0.0562,-0.0006,0.0252,-0.025,-28.95,9.525,-29.625,,adl
0.673669,-0.0324,0.0511,-0.0562,-0.0006,0.0252,-0.025,-28.95,9.525,-29.625,,adl
0.674392,-0.0043,0.0511,-0.0265,-0.0006,0.0252,-0.025,-28.95,9.525,-29.625,,adl
0.683748,-0.0043,0.0511,-0.0265,-0.0006,0.0252,-0.025,-28.95,9.525,-29.625,,adl
0.684643,-0.0484,0.0535,-0.0283,-0.0006,0.0252,-0.025,-28.95,9.525,-29.625,,adl
0.685451,-0.0484,0.0535,-0.0283,-0.0006,0.0252,-0.025,-28.95,9.525,-29.625,,adl
0.686003,-0.0305,0.0535,-0.0278,-0.0006,0.0252,-0.025,-28.95,9.525,-29.625,,adl
0.686603,-0.0305,0.0535,-0.0278,-0.0006,0.0252,-0.025,-28.95,9.525,-29.625,,adl
0.687144,-0.0515,0.0631,-0.011,-0.0006,0.0252,-0.025,-28.95,9.525,-29.625,,adl
0.691637,-0.0515,0.0631,-0.011,-0.0006,0.0252,-0.025,-28.95,9.525,-29.625,,adl
0.692375,-0.0311,0.0463,-0.0035,-0.0006,0.0252,-0.025,-28.95,9.525,-29.625,,adl
0.705379,-0.0311,0.0463,-0.0035,-0.0006,0.0252,-0.025,-28.95,9.525,-29.625,,adl
0.707548,-0.0216,0.0319,-0.0008,-0.0006,0.0252,-0.025,-28.95,9.525,-29.625,,adl
0.72205,-0.0216,0.0319,-0.0008,-0.0006,0.0252,-0.025,-28.95,9.525,-29.625,,adl
0.723212,-0.014,0.0223,-0.0173,-0.0006,0.0252,-0.025,-28.95,9.525,-29.625,,adl
0.724222,-0.014,0.0223,-0.0173,-0.0006,0.0252,-0.025,-28.95,9.525,-29.625,,adl
0.725307,-0.0236,0.0103,0.0067,-0.0006,0.0252,-0.025,-28.95,9.525,-29.625,,adl
0.725992,-0.0236,0.0103,0.0067,-0.0006,0.0252,-0.025,-28.95,9.525,-29.625,,adl
0.72662,0.0075,-0.0064,-0.0173,-0.0006,0.0252,-0.025,-28.95,9.525,-29.625,,adl
0.727332,0.0075,-0.0064,-0.0173,-0.0006,0.0252,-0.025,-28.95,9.525,-29.625,,adl
0.728001,0.0098,-0.016,-0.0052,-0.0006,0.0252,-0.025,-28.95,9.525,-29.625,,adl
0.728757,0.0098,-0.016,-0.0052,-0.0006,0.0252,-0.025,-28.95,9.525,-29.625,,adl
0.729538,-0.0007,-0.0233,-0.0083,-0.0006,0.0252,-0.025,-28.95,9.525,-29.625,,adl
0.730369,-0.0007,-0.0233,-0.0083,-0.0006,0.0252,-0.025,-28.95,9.525,-29.625,,adl
0.731089,0.0125,-0.0066,-0.0203,-0.0006,0.0252,-0.025,-28.95,9.525,-29.625,,adl
0.731837,0.0125,-0.0066,-0.0203,-0.0006,0.0252,-0.025,-28.95,8.925,-29.4,,adl
0.732598,0.0125,-0.0066,-0.0203,-0.0006,0.0252,-0.025,-28.95,8.925,-29.4,,adl
0.733373,0.0138,0.0029,-0.011,-0.0006,0.0252,-0.025,-28.95,8.925,-29.4,,adl
0.734141,0.0138,0.0029,-0.011,-0.0003,0.0339,-0.0194,-28.95,8.925,-29.4,,adl
0.734844,0.0138,0.0029,-0.011,-0.0003,0.0339,-0.0194,-28.95,8.925,-29.4,,adl
0.73558,0.0302,0.0125,-0.0227,-0.0003,0.0339,-0.0194,-28.95,8.925,-29.4,,adl
0.745039,0.0302,0.0125,-0.0227,-0.0003,0.0339,-0.0194,-28.95,8.925,-29.4,,adl
0.746072,0.0377,0.0292,-0.0448,-0.0003,0.0339,-0.0194,-28.95,8.925,-29.4,,adl
0.746954,0.0377,0.0292,-0.0448,-0.0003,0.0339,-0.0194,-28.95,8.925,-29.4,,adl
0.747716,0.0587,0.0579,-0.0372,-0.0003,0.0339,-0.0194,-28.95,8.925,-29.4,,adl
0.754327,0.0587,0.0579,-0.0372,-0.0003,0.0339,-0.0194,-28.95,8.925,-29.4,,adl
0.755217,0.0613,0.0745,-0.0404,-0.0003,0.0339,-0.0194,-28.95,8.925,-29.4,,adl
0.75594,0.0613,0.0745,-0.0404,-0.0003,0.0339,-0.0194,-28.95,8.925,-29.4,,adl
0.756495,0.06,0.1199,-0.036,-0.0003,0.0339,-0.0194,-28.95,8.925,-29.4,,adl
0.765041,0.06,0.1199,-0.036,-0.0003,0.0339,-0.0194,-28.95,8.925,-29.4,,adl
0.765733,0.0397,0.1342,-0.0674,-0.0003,0.0339,-0.0194,-28.95,8.925,-29.4,,adl
0.769059,0.0397,0.1342,-0.0674,-0.0003,0.0339,-0.0194,-28.95,8.925,-29.4,,adl
0.769592,0.0432,0.1079,-0.0867,-0.0003,0.0339,-0.0194,-28.95,8.925,-29.4,,adl
0.775609,0.0432,0.1079,-0.0867,-0.0003,0.0339,-0.0194,-28.95,8.925,-29.4,,adl
0.776273,0.0204,0.0911,-0.0726,-0.0003,0.0339,-0.0194,-28.95,8.925,-29.4,,adl
0.780516,0.0204,0.0911,-0.0726,-0.0003,0.0339,-0.0194,-28.95,8.925,-29.4,,adl
0.781325,-0.0046,0.0767,-0.0275,-0.0003,0.0339,-0.0194,-28.95,8.925,-29.4,,adl
0.78353,-0.0046,0.0767,-0.0275,-0.0003,0.0339,-0.0194,-28.95,8.925,-29.4,,adl
0.784047,-0.0341,0.0623,-0.0326,-0.0003,0.0339,-0.0194,-28.95,8.925,-29.4,,adl
0.789625,-0.0341,0.0623,-0.0326,-0.0003,0.0339,-0.0194,-28.95,8.925,-29.4,,adl
0.790473,-0.0587,0.0479,-0.0351,-0.0003,0.0339,-0.0194,-28.95,8.925,-29.4,,adl
0.797422,-0.0587,0.0479,-0.0351,-0.0003,0.0339,-0.0194,-28.95,8.925,-29.4,,adl
0.798432,-0.0628,0.0408,-0.0726,-0.0003,0.0339,-0.0194,-28.95,8.925,-29.4,,adl
0.799147,-0.0628,0.0408,-0.0726,-0.0003,0.0339,-0.0194,-28.95,8.925,-29.4,,adl
0.799782,-0.067,0.0288,-0.0985,-0.0003,0.0339,-0.0194,-28.95,8.925,-29.4,,adl
0.810753,-0.067,0.0288,-0.0985,-0.0003,0.0339,-0.0194,-28.95,8.925,-29.4,,adl
0.811803,-0.0628,0.0384,-0.1305,-0.0003,0.0339,-0.0194,-28.95,8.925,-29.4,,adl
0.812649,-0.0628,0.0384,-0.1305,-0.0003,0.0339,-0.0194,-28.95,8.925,-29.4,,adl
0.813445,-0.0408,0.0242,-0.2568,-0.0003,0.0339,-0.0194,-28.95,8.925,-29.4,,adl
0.814269,-0.0408,0.0242,-0.2568,0.0078,0.0516,-0.0168,-28.95,8.925,-29.4,,adl
0.815058,-0.0408,0.0242,-0.2568,0.0078,0.0516,-0.0168,-29.25,9.45,-29.325,,adl
0.815722,-0.0408,0.0242,-0.2568,0.0078,0.0516,-0.0168,-29.25,9.45,-29.325,,adl
0.816355,-0.1185,0.0219,-0.1424,0.0078,0.0516,-0.0168,-29.25,9.45,-29.325,,adl
0.825062,-0.1185,0.0219,-0.1424,0.0078,0.0516,-0.0168,-29.25,9.45,-29.325,,adl
0.825857,-0.1399,0.0363,-0.1369,0.0078,0.0516,-0.0168,-29.25,9.45,-29.325,,adl
0.826583,-0.1399,0.0363,-0.1369,0.0078,0.0516,-0.0168,-29.25,9.45,-29.325,,adl
0.827157,-0.0895,0.0579,-0.1365,0.0078,0.0516,-0.0168,-29.25,9.45,-29.325,,adl
0.827821,-0.0895,0.0579,-0.1365,0.0078,0.0516,-0.0168,-29.25,9.45,-29.325,,adl
0.828388,-0.1316,0.0603,-0.0049,0.0078,0.0516,-0.0168,-29.25,9.45,-29.325,,adl
0.83485,-0.1316,0.0603,-0.0049,0.0078,0.0516,-0.0168,-29.25,9.45,-29.325,,adl
0.835646,-0.1172,0.0459,0.1236,0.0078,0.0516,-0.0168,-29.25,9.45,-29.325,,adl
0.839159,-0.1172,0.0459,0.1236,0.0078,0.0516,-0.0168,-29.25,9.45,-29.325,,adl
0.83981,-0.0355,0.0505,0.3302,0.0078,0.0516,-0.0168,-29.25,9.45,-29.325,,adl
0.842944,-0.0355,0.0505,0.3302,0.0078,0.0516,-0.0168,-29.25,9.45,-29.325,,adl
0.84361,-0.0353,0.0334,0.4318,0.0078,0.0516,-0.0168,-29.25,9.45,-29.325,,adl
0.847435,-0.0353,0.0334,0.4318,0.0078,0.0516,-0.0168,-29.25,9.45,-29.325,,adl
0.848203,-0.0567,0.0548,0.2206,0.0078,0.0516,-0.0168,-29.25,9.45,-29.325,,adl
0.852652,-0.0567,0.0548,0.2206,0.0078,0.0516,-0.0168,-29.25,9.45,-29.325,,adl
0.853422,0.0145,0.0522,-0.0618,0.0078,0.0516,-0.0168,-29.25,9.45,-29.325,,adl
0.858007,0.0145,0.0522,-0.0618,0.0078,0.0516,-0.0168,-29.25,9.45,-29.325,,adl
0.858884,0.0971,0.026,-0.2219,0.0078,0.0516,-0.0168,-29.25,9.45,-29.325,,adl
0.864022,0.0971,0.026,-0.2219,0.0078,0.0516,-0.0168,-29.25,9.45,-29.325,,adl
0.865129,0.1548,-0.0242,-0.251,0.0078,0.0516,-0.0168,-29.25,9.45,-29.325,,adl
0.868115,0.1548,-0.0242,-0.251,0.0078,0.0516,-0.0168,-29.25,9.45,-29.325,,adl
0.868959,0.1313,-0.0217,-0.2981,0.0078,0.0516,-0.0168,-29.25,9.45,-29.325,,adl
0.873516,0.1313,-0.0217,-0.2981,0.0078,0.0516,-0.0168,-29.25,9.45,-29.325,,adl
0.87459,0.0413,0.0095,-0.3261,0.0078,0.0516,-0.0168,-29.25,9.45,-29.325,,adl
0.875533,0.0413,0.0095,-0.3261,0.0078,0.0516,-0.0168,-29.1,8.775,-28.65,,adl
0.884814,0.0413,0.0095,-0.3261,0.0082,0.064,-0.0079,-29.1,8.775,-28.65,,adl
0.888297,0.0413,0.0095,-0.3261,0.0082,0.064,-0.0079,-29.1,8.775,-28.65,,adl
0.889251,-0.0143,0.0743,-0.216,0.0082,0.064,-0.0079,-29.1,8.775,-28.65,,adl
0.890223,-0.0143,0.0743,-0.216,0.0082,0.064,-0.0079,-29.1,8.775,-28.65,,adl
0.890871,-0.0315,0.0935,-0.0684,0.0082,0.064,-0.0079,-29.1,8.775,-28.65,,adl
0.891645,-0.0315,0.0935,-0.0684,0.0082,0.064,-0.0079,-29.1,8.775,-28.65,,adl
0.892451,0.0067,0.091,0.1056,0.0082,0.064,-0.0079,-29.1,8.775,-28.65,,adl
0.893208,0.0067,0.091,0.1056,0.0082,0.064,-0.0079,-29.1,8.775,-28.65,,adl
0.893787,0.0193,0.0431,0.23,0.0082,0.064,-0.0079,-29.1,8.775,-28.65,,adl
0.899249,0.0193,0.0431,0.23,0.0082,0.064,-0.0079,-29.1,8.775,-28.65,,adl
0.900008,0.0357,-0.0145,0.2746,0.0082,0.064,-0.0079,-29.1,8.775,-28.65,,adl
0.900717,0.0357,-0.0145,0.2746,0.0082,0.064,-0.0079,-29.1,8.775,-28.65,,adl
0.901374,0.0378,-0.0362,0.2583,0.0082,0.064,-0.0079,-29.1,8.775,-28.65,,adl
0.907634,0.0378,-0.0362,0.2583,0.0082,0.064,-0.0079,-29.1,8.775,-28.65,,adl
0.908406,0.009,-0.0411,0.1916,0.0082,0.064,-0.0079,-29.1,8.775,-28.65,,adl
0.912249,0.009,-0.0411,0.1916,0.0082,0.064,-0.0079,-29.1,8.775,-28.65,,adl
0.913004,-0.0054,-0.039,0.1304,0.0082,0.064,-0.0079,-29.1,8.775,-28.65,,adl
0.916184,-0.0054,-0.039,0.1304,0.0082,0.064,-0.0079,-29.1,8.775,-28.65,,adl
0.916976,-0.0314,-0.0366,0.0391,0.0082,0.064,-0.0079,-29.1,8.775,-28.65,,adl
0.921886,-0.0314,-0.0366,0.0391,0.0082,0.064,-0.0079,-29.1,8.775,-28.65,,adl
0.922587,-0.0376,-0.0177,-0.0295,0.0082,0.064,-0.0079,-29.1,8.775,-28.65,,adl
0.926746,-0.0376,-0.0177,-0.0295,0.0082,0.064,-0.0079,-29.1,8.775,-28.65,,adl
0.927772,-0.0324,0.0063,-0.0574,0.0082,0.064,-0.0079,-29.1,8.775,-28.65,,adl
0.934012,-0.0324,0.0063,-0.0574,0.0082,0.064,-0.0079,-29.1,8.775,-28.65,,adl
0.935101,-0.0264,0.0467,-0.1058,0.0082,0.064,-0.0079,-29.1,8.775,-28.65,,adl
0.935969,-0.0264,0.0467,-0.1058,0.0082,0.064,-0.0079,-29.1,8.775,-28.65,,adl
0.936665,-0.0195,0.0969,-0.1255,0.0082,0.064,-0.0079,-29.1,8.775,-28.65,,adl
0.941184,-0.0195,0.0969,-0.1255,0.0082,0.064,-0.0079,-29.1,8.775,-28.65,,adl
0.942084,-0.0408,0.1377,-0.1294,0.0082,0.064,-0.0079,-29.1,8.775,-28.65,,adl
0.942812,-0.0408,0.1377,-0.1294,0.0082,0.064,-0.0079,-29.85,8.85,-29.85,,adl
0.944827,-0.0408,0.1377,-0.1294,0.0124,0.0258,-0.0111,-29.85,8.85,-29.85,,adl
0.945771,-0.0408,0.1377,-0.1294,0.0124,0.0258,-0.0111,-29.85,8.85,-29.85,,adl
0.946311,-0.0317,0.1759,-0.1114,0.0124,0.0258,-0.0111,-29.85,8.85,-29.85,,adl
0.95059,-0.0317,0.1759,-0.1114,0.0124,0.0258,-0.0111,-29.85,8.85,-29.85,,adl
0.951278,-0.0317,0.1855,-0.0897,0.0124,0.0258,-0.0111,-29.85,8.85,-29.85,,adl
0.955699,-0.0317,0.1855,-0.0897,0.0124,0.0258,-0.0111,-29.85,8.85,-29.85,,adl
0.956315,-0.0125,0.1663,-0.0701,0.0124,0.0258,-0.0111,-29.85,8.85,-29.85,,adl
0.963538,-0.0125,0.1663,-0.0701,0.0124,0.0258,-0.0111,-29.85,8.85,-29.85,,adl
0.964491,-0.008,0.1472,-0.0199,0.0124,0.0258,-0.0111,-29.85,8.85,-29.85,,adl
0.965497,-0.008,0.1472,-0.0199,0.0124,0.0258,-0.0111,-29.85,8.85,-29.85,,adl
0.96617,0.011,0.1304,-0.0103,0.0124,0.0258,-0.0111,-29.85,8.85,-29.85,,adl
0.969943,0.011,0.1304,-0.0103,0.0124,0.0258,-0.0111,-29.85,8.85,-29.85,,adl
0.970861,-0.0083,0.1161,0.004,0.0124,0.0258,-0.0111,-29.85,8.85,-29.85,,adl
0.976238,-0.0083,0.1161,0.004,0.0124,0.0258,-0.0111,-29.85,8.85,-29.85,,adl
0.97721,-0.0277,0.0945,-0.0103,0.0124,0.0258,-0.0111,-29.85,8.85,-29.85,,adl
0.982984,-0.0277,0.0945,-0.0103,0.0124,0.0258,-0.0111,-29.85,8.85,-29.85,,adl
0.984155,-0.044,0.0778,-0.0481,0.0124,0.0258,-0.0111,-29.85,8.85,-29.85,,adl
0.985237,-0.044,0.0778,-0.0481,0.0124,0.0258,-0.0111,-29.85,8.85,-29.85,,adl
0.986003,-0.0417,0.0635,-0.038,0.0124,0.0258,-0.0111,-29.85,8.85,-29.85,,adl
0.990002,-0.0417,0.0635,-0.038,0.0124,0.0258,-0.0111,-29.85,8.85,-29.85,,adl
0.990904,-0.0626,0.0707,-0.0518,0.0124,0.0258,-0.0111,-29.85,8.85,-29.85,,adl
0.994875,-0.0626,0.0707,-0.0518,0.0124,0.0258,-0.0111,-29.85,8.85,-29.85,,adl
0.995779,-0.0601,0.0612,-0.0649,0.0124,0.0258,-0.0111,-29.85,8.85,-29.85,,adl
1.000279,-0.0601,0.0612,-0.0649,0.0124,0.0258,-0.0111,-29.85,8.85,-29.85,,adl
1.001254,-0.0573,0.0685,-0.0233,0.0124,0.0258,-0.0111,-29.85,8.85,-29.85,,adl
1.00613,-0.0573,0.0685,-0.0233,0.0124,0.0258,-0.0111,-29.85,8.85,-29.85,,adl
1.007598,-0.0804,0.0685,-0.035,0.0124,0.0258,-0.0111,-29.85,8.85,-29.85,,adl
1.008741,-0.0804,0.0685,-0.035,0.0124,0.0258,-0.0111,-29.85,8.85,-29.85,,adl
1.009779,-0.0584,0.0639,-0.0258,0.0124,0.0258,-0.0111,-29.85,8.85,-29.85,,adl
1.010997,-0.0584,0.0639,-0.0258,0.0124,0.0258,-0.0111,-29.175,8.775,-29.625,,adl
1.022089,-0.0584,0.0639,-0.0258,0.0124,0.0258,-0.0111,-29.175,8.775,-29.625,,adl
1.023334,-0.0555,0.0544,-0.0008,0.0124,0.0258,-0.0111,-29.175,8.775,-29.625,,adl
1.024262,-0.0555,0.0544,-0.0008,-0.0069,0.0281,0.002,-29.175,8.775,-29.625,,adl
1.025261,-0.0555,0.0544,-0.0008,-0.0069,0.0281,0.002,-29.175,8.775,-29.625,,adl
1.025831,-0.0643,0.0449,-0.0091,-0.0069,0.0281,0.002,-29.175,8.775,-29.625,,adl
1.026462,-0.0643,0.0449,-0.0091,-0.0069,0.0281,0.002,-29.175,8.775,-29.625,,adl
1.027014,-0.0612,0.021,-0.0067,-0.0069,0.0281,0.002,-29.175,8.775,-29.625,,adl
1.027641,-0.0612,0.021,-0.0067,-0.0069,0.0281,0.002,-29.175,8.775,-29.625,,adl
1.028165,-0.0604,0.0379,-0.0088,-0.0069,0.0281,0.002,-29.175,8.775,-29.625,,adl
1.035405,-0.0604,0.0379,-0.0088,-0.0069,0.0281,0.002,-29.175,8.775,-29.625,,adl
1.036177,-0.0809,0.0212,-0.0205,-0.0069,0.0281,0.002,-29.175,8.775,-29.625,,adl
1.039143,-0.0809,0.0212,-0.0205,-0.0069,0.0281,0.002,-29.175,8.775,-29.625,,adl
1.039787,-0.1174,0.0069,0.0281,-0.0069,0.0281,0.002,-29.175,8.775,-29.625,,adl
1.045718,-0.1174,0.0069,0.0281,-0.0069,0.0281,0.002,-29.175,8.775,-29.625,,adl
1.046351,-0.1012,0.0165,0.1184,-0.0069,0.0281,0.002,-29.175,8.775,-29.625,,adl
1.048155,-0.1012,0.0165,0.1184,-0.0069,0.0281,0.002,-29.175,8.775,-29.625,,adl
1.048767,-0.0458,0.0691,0.0958,-0.0069,0.0281,0.002,-29.175,8.775,-29.625,,adl
1.054018,-0.0458,0.0691,0.0958,-0.0069,0.0281,0.002,-29.175,8.775,-29.625,,adl
1.054688,-0.0259,0.0835,0.0522,-0.0069,0.0281,0.002,-29.175,8.775,-29.625,,adl
1.058074,-0.0259,0.0835,0.0522,-0.0069,0.0281,0.002,-29.175,8.775,-29.625,,adl
1.058683,0.0009,0.0644,-0.0264,-0.0069,0.0281,0.002,-29.175,8.775,-29.625,,adl
1.063146,0.0009,0.0644,-0.0264,-0.0069,0.0281,0.002,-29.175,8.775,-29.625,,adl
1.063897,0.0368,0.0261,-0.0563,-0.0069,0.0281,0.002,-29.175,8.775,-29.625,,adl
1.06986,0.0368,0.0261,-0.0563,-0.0069,0.0281,0.002,-29.175,8.775,-29.625,,adl
1.070544,0.0322,0.0262,-0.0836,-0.0069,0.0281,0.002,-29.175,8.775,-29.625,,adl
1.074695,0.0322,0.0262,-0.0836,-0.0069,0.0281,0.002,-29.175,8.775,-29.625,,adl
1.075491,0.0255,0.0646,-0.1035,-0.0069,0.0281,0.002,-29.175,8.775,-29.625,,adl
1.079069,0.0255,0.0646,-0.1035,-0.0069,0.0281,0.002,-29.175,8.775,-29.625,,adl
1.079957,-0.0194,0.091,-0.0738,-0.0069,0.0281,0.002,-29.175,8.775,-29.625,,adl
1.08077,-0.0194,0.091,-0.0738,-0.0069,0.0281,0.002,-28.95,8.475,-30.225,,adl
1.081714,-0.0194,0.091,-0.0738,-0.0134,0.0096,0.0128,-28.95,8.475,-30.225,,adl
1.082404,-0.0194,0.091,-0.0738,-0.0134,0.0096,0.0128,-28.95,8.475,-30.225,,adl
1.083289,-0.0217,0.0719,0.0146,-0.0134,0.0096,0.0128,-28.95,8.475,-30.225,,adl
1.088187,-0.0217,0.0719,0.0146,-0.0134,0.0096,0.0128,-28.95,8.475,-30.225,,adl
1.088998,0.005,0.0575,0.0865,-0.0134,0.0096,0.0128,-28.95,8.475,-30.225,,adl
1.092413,0.005,0.0575,0.0865,-0.0134,0.0096,0.0128,-28.95,8.475,-30.225,,adl
1.093074,0.0408,0.0503,0.1243,-0.0134,0.0096,0.0128,-28.95,8.475,-30.225,,adl
1.097746,0.0408,0.0503,0.1243,-0.0134,0.0096,0.0128,-28.95,8.475,-30.225,,adl
1.098541,0.0625,0.0432,0.113,-0.0134,0.0096,0.0128,-28.95,8.475,-30.225,,adl
1.108669,0.0625,0.0432,0.113,-0.0134,0.0096,0.0128,-28.95,8.475,-30.225,,adl
1.109537,0.024,0.0599,0.0691,-0.0134,0.0096,0.0128,-28.95,8.475,-30.225,,adl
1.113586,0.024,0.0599,0.0691,-0.0134,0.0096,0.0128,-28.95,8.475,-30.225,,adl
1.114523,0.0126,0.0551,0.0597,-0.0134,0.0096,0.0128,-28.95,8.475,-30.225,,adl
1.119432,0.0126,0.0551,0.0597,-0.0134,0.0096,0.0128,-28.95,8.475,-30.225,,adl
1.120402,0.0077,0.0407,0.0519,-0.0134,0.0096,0.0128,-28.95,8.475,-30.225,,adl
1.123237,0.0077,0.0407,0.0519,-0.0134,0.0096,0.0128,-28.95,8.475,-30.225,,adl
1.12411,0.0104,0.0455,0.0371,-0.0134,0.0096,0.0128,-28.95,8.475,-30.225,,adl
1.128214,0.0104,0.0455,0.0371,-0.0134,0.0096,0.0128,-28.95,8.475,-30.225,,adl
1.129277,0.0114,0.0049,0.0397,-0.0134,0.0096,0.0128,-28.95,8.475,-30.225,,adl
1.135248,0.0114,0.0049,0.0397,-0.0134,0.0096,0.0128,-28.95,8.475,-30.225,,adl
1.136239,0.012,0.024,0.0373,-0.0134,0.0096,0.0128,-28.95,8.475,-30.225,,adl
1.137088,0.012,0.024,0.0373,-0.0134,0.0096,0.0128,-28.95,8.475,-30.225,,adl
1.139123,0.0237,0.0312,0.0489,-0.0134,0.0096,0.0128,-28.95,8.475,-30.225,,adl
1.140308,0.0237,0.0312,0.0489,-0.0134,0.0096,0.0128,-28.95,8.475,-30.225,,adl
1.141359,0.0336,0.0359,0.0607,-0.0134,0.0096,0.0128,-28.95,8.475,-30.225,,adl
1.151906,0.0336,0.0359,0.0607,-0.0134,0.0096,0.0128,-28.95,8.475,-30.225,,adl
1.153108,0.0181,0.0623,0.061,-0.0134,0.0096,0.0128,-28.95,8.475,-30.225,,adl
1.154145,0.0181,0.0623,0.061,-0.0134,0.0096,0.0128,-29.25,9.0,-30.6,,adl
1.155254,0.0181,0.0623,0.061,-0.0134,0.0096,0.0128,-29.25,9.0,-30.6,,adl
1.156377,0.0401,0.0551,0.0608,-0.0134,0.0096,0.0128,-29.25,9.0,-30.6,,adl
1.157376,0.0401,0.0551,0.0608,-0.0127,0.0182,0.0185,-29.25,9.0,-30.6,,adl
1.158349,0.0401,0.0551,0.0608,-0.0127,0.0182,0.0185,-29.25,9.0,-30.6,,adl
1.159089,0.0357,0.0647,0.0534,-0.0127,0.0182,0.0185,-29.25,9.0,-30.6,,adl
1.168438,0.0357,0.0647,0.0534,-0.0127,0.0182,0.0185,-29.25,9.0,-30.6,,adl
1.169258,0.014,0.0407,0.0527,-0.0127,0.0182,0.0185,-29.25,9.0,-30.6,,adl
1.16991,0.014,0.0407,0.0527,-0.0127,0.0182,0.0185,-29.25,9.0,-30.6,,adl
1.170488,0.0002,0.0431,0.0379,-0.0127,0.0182,0.0185,-29.25,9.0,-30.6,,adl
1.171103,0.0002,0.0431,0.0379,-0.0127,0.0182,0.0185,-29.25,9.0,-30.6,,adl
1.171641,-0.0109,0.0599,0.0094,-0.0127,0.0182,0.0185,-29.25,9.0,-30.6,,adl
1.181195,-0.0109,0.0599,0.0094,-0.0127,0.0182,0.0185,-29.25,9.0,-30.6,,adl
1.181996,-0.0287,0.0767,0.0074,-0.0127,0.0182,0.0185,-29.25,9.0,-30.6,,adl
1.182633,-0.0287,0.0767,0.0074,-0.0127,0.0182,0.0185,-29.25,9.0,-30.6,,adl
1.183144,-0.0261,0.0791,-0.0164,-0.0127,0.0182,0.0185,-29.25,9.0,-30.6,,adl
1.185393,-0.0261,0.0791,-0.0164,-0.0127,0.0182,0.0185,-29.25,9.0,-30.6,,adl
1.185972,-0.039,0.084,-0.0129,-0.0127,0.0182,0.0185,-29.25,9.0,-30.6,,adl
1.190465,-0.039,0.084,-0.0129,-0.0127,0.0182,0.0185,-29.25,9.0,-30.6,,adl
1.191217,-0.0174,0.0912,-0.0437,-0.0127,0.0182,0.0185,-29.25,9.0,-30.6,,adl
1.195916,-0.0174,0.0912,-0.0437,-0.0127,0.0182,0.0185,-29.25,9.0,-30.6,,adl
1.196656,-0.0235,0.0842,-0.0205,-0.0127,0.0182,0.0185,-29.25,9.0,-30.6,,adl
1.200871,-0.0235,0.0842,-0.0205,-0.0127,0.0182,0.0185,-29.25,9.0,-30.6,,adl
1.201928,-0.0157,0.0866,-0.0051,-0.0127,0.0182,0.0185,-29.25,9.0,-30.6,,adl
1.204631,-0.0157,0.0866,-0.0051,-0.0127,0.0182,0.0185,-29.25,9.0,-30.6,,adl
1.205519,-0.0345,0.0675,-0.0003,-0.0127,0.0182,0.0185,-29.25,9.0,-30.6,,adl
1.210321,-0.0345,0.0675,-0.0003,-0.0127,0.0182,0.0185,-29.25,9.0,-30.6,,adl
1.211,-0.0433,0.0484,-0.0016,-0.0127,0.0182,0.0185,-29.25,9.0,-30.6,,adl
1.218349,-0.0433,0.0484,-0.0016,-0.0127,0.0182,0.0185,-29.25,9.0,-30.6,,adl
1.219111,-0.0469,0.0486,0.0316,-0.0127,0.0182,0.0185,-29.25,9.0,-30.6,,adl
1.219613,-0.0469,0.0486,0.0316,-0.0127,0.0182,0.0185,-29.25,9.0,-30.6,,adl
1.219979,-0.0535,0.0318,0.0527,-0.0127,0.0182,0.0185,-29.25,9.0,-30.6,,adl
1.220417,-0.0535,0.0318,0.0527,-0.0127,0.0182,0.0185,-28.875,8.85,-29.85,,adl
1.223168,-0.0535,0.0318,0.0527,-0.0168,0.0147,0.0153,-28.875,8.85,-29.85,,adl
1.223727,-0.0535,0.0318,0.0527,-0.0168,0.0147,0.0153,-28.875,8.85,-29.85,,adl
1.224087,-0.05,0.0272,0.0572,-0.0168,0.0147,0.0153,-28.875,8.85,-29.85,,adl
1.22951,-0.05,0.0272,0.0572,-0.0168,0.0147,0.0153,-28.875,8.85,-29.85,,adl
1.230133,-0.0589,0.0487,0.0731,-0.0168,0.0147,0.0153,-28.875,8.85,-29.85,,adl
1.234617,-0.0589,0.0487,0.0731,-0.0168,0.0147,0.0153,-28.875,8.85,-29.85,,adl
1.235246,-0.0486,0.0584,0.0485,-0.0168,0.0147,0.0153,-28.875,8.85,-29.85,,adl
1.239448,-0.0486,0.0584,0.0485,-0.0168,0.0147,0.0153,-28.875,8.85,-29.85,,adl
1.239984,-0.0363,0.0703,0.0432,-0.0168,0.0147,0.0153,-28.875,8.85,-29.85,,adl
1.249603,-0.0363,0.0703,0.0432,-0.0168,0.0147,0.0153,-28.875,8.85,-29.85,,adl
1.250692,-0.0406,0.0561,0.0287,-0.0168,0.0147,0.0153,-28.875,8.85,-29.85,,adl
1.251638,-0.0406,0.0561,0.0287,-0.0168,0.0147,0.0153,-28.875,8.85,-29.85,,adl
1.252365,-0.0591,0.0657,0.0271,-0.0168,0.0147,0.0153,-28.875,8.85,-29.85,,adl
1.25324,-0.0591,0.0657,0.0271,-0.0168,0.0147,0.0153,-28.875,8.85,-29.85,,adl
1.253962,-0.0728,0.0706,0.0231,-0.0168,0.0147,0.0153,-28.875,8.85,-29.85,,adl
1.260748,-0.0728,0.0706,0.0231,-0.0168,0.0147,0.0153,-28.875,8.85,-29.85,,adl
1.261942,-0.0602,0.0826,0.0003,-0.0168,0.0147,0.0153,-28.875,8.85,-29.85,,adl
1.267177,-0.0602,0.0826,0.0003,-0.0168,0.0147,0.0153,-28.875,8.85,-29.85,,adl
1.268064,-0.0738,0.0683,0.0073,-0.0168,0.0147,0.0153,-28.875,8.85,-29.85,,adl
1.268772,-0.0738,0.0683,0.0073,-0.0168,0.0147,0.0153,-28.875,8.85,-29.85,,adl
1.269393,-0.0827,0.078,-0.0095,-0.0168,0.0147,0.0153,-28.875,8.85,-29.85,,adl
1.274495,-0.0827,0.078,-0.0095,-0.0168,0.0147,0.0153,-28.875,8.85,-29.85,,adl
1.275287,-0.0914,0.0853,0.001,-0.0168,0.0147,0.0153,-28.875,8.85,-29.85,,adl
1.279801,-0.0914,0.0853,0.001,-0.0168,0.0147,0.0153,-28.875,8.85,-29.85,,adl
1.280619,-0.1071,0.0829,-0.0242,-0.0168,0.0147,0.0153,-28.875,8.85,-29.85,,adl
1.285817,-0.1071,0.0829,-0.0242,-0.0168,0.0147,0.0153,-28.875,8.85,-29.85,,adl
1.286451,-0.0966,0.0926,-0.0348,-0.0168,0.0147,0.0153,-28.875,8.85,-29.85,,adl
1.287001,-0.0966,0.0926,-0.0348,-0.0168,0.0147,0.0153,-28.875,8.85,-29.85,,adl
1.287437,-0.072,0.0783,-0.025,-0.0168,0.0147,0.0153,-28.875,8.85,-29.85,,adl
1.289078,-0.072,0.0783,-0.025,-0.0168,0.0147,0.0153,-29.175,9.525,-29.55,,adl
1.293281,-0.072,0.0783,-0.025,-0.0237,0.0031,0.0073,-29.175,9.525,-29.55,,adl
1.294541,-0.072,0.0783,-0.025,-0.0237,0.0031,0.0073,-29.175,9.525,-29.55,,adl
1.295201,-0.0593,0.0856,-0.0403,-0.0237,0.0031,0.0073,-29.175,9.525,-29.55,,adl
1.301599,-0.0593,0.0856,-0.0403,-0.0237,0.0031,0.0073,-29.175,9.525,-29.55,,adl
1.302511,-0.0539,0.0929,-0.0589,-0.0237,0.0031,0.0073,-29.175,9.525,-29.55,,adl
1.305442,-0.0539,0.0929,-0.0589,-0.0237,0.0031,0.0073,-29.175,9.525,-29.55,,adl
1.306242,-0.0605,0.0858,-0.0548,-0.0237,0.0031,0.0073,-29.175,9.525,-29.55,,adl
1.306987,-0.0605,0.0858,-0.0548,-0.0237,0.0031,0.0073,-29.175,9.525,-29.55,,adl
1.307586,-0.0386,0.0907,-0.0757,-0.0237,0.0031,0.0073,-29.175,9.525,-29.55,,adl
1.312611,-0.0386,0.0907,-0.0757,-0.0237,0.0031,0.0073,-29.175,9.525,-29.55,,adl
1.313531,-0.0477,0.1004,-0.0775,-0.0237,0.0031,0.0073,-29.175,9.525,-29.55,,adl
1.318109,-0.0477,0.1004,-0.0775,-0.0237,0.0031,0.0073,-29.175,9.525,-29.55,,adl
1.319039,-0.0497,0.1005,-0.116,-0.0237,0.0031,0.0073,-29.175,9.525,-29.55,,adl
1.322205,-0.0497,0.1005,-0.116,-0.0237,0.0031,0.0073,-29.175,9.525,-29.55,,adl
1.322865,-0.0518,0.1102,-0.1258,-0.0237,0.0031,0.0073,-29.175,9.525,-29.55,,adl
1.328678,-0.0518,0.1102,-0.1258,-0.0237,0.0031,0.0073,-29.175,9.525,-29.55,,adl
1.329308,-0.0704,0.1104,-0.1662,-0.0237,0.0031,0.0073,-29.175,9.525,-29.55,,adl
1.332088,-0.0704,0.1104,-0.1662,-0.0237,0.0031,0.0073,-29.175,9.525,-29.55,,adl
1.332675,-0.0842,0.101,-0.1801,-0.0237,0.0031,0.0073,-29.175,9.525,-29.55,,adl
1.337196,-0.0842,0.101,-0.1801,-0.0237,0.0031,0.0073,-29.175,9.525,-29.55,,adl
1.338028,-0.1122,0.0987,-0.1595,-0.0237,0.0031,0.0073,-29.175,9.525,-29.55,,adl
1.341539,-0.1122,0.0987,-0.1595,-0.0237,0.0031,0.0073,-29.175,9.525,-29.55,,adl
1.34207,-0.1208,0.1012,-0.1378,-0.0237,0.0031,0.0073,-29.175,9.525,-29.55,,adl
1.347495,-0.1208,0.1012,-0.1378,-0.0237,0.0031,0.0073,-29.175,9.525,-29.55,,adl
1.348424,-0.1154,0.0966,-0.1336,-0.0237,0.0031,0.0073,-29.175,9.525,-29.55,,adl
1.351937,-0.1154,0.0966,-0.1336,-0.0237,0.0031,0.0073,-29.175,9.525,-29.55,,adl
1.352604,-0.1215,0.0777,-0.1118,-0.0237,0.0031,0.0073,-29.175,9.525,-29.55,,adl
1.357072,-0.1215,0.0777,-0.1118,-0.0237,0.0031,0.0073,-29.175,9.525,-29.55,,adl
1.35794,-0.1205,0.0755,-0.1612,-0.0237,0.0031,0.0073,-29.175,9.525,-29.55,,adl
1.359903,-0.1205,0.0755,-0.1612,-0.0237,0.0031,0.0073,-28.2,9.825,-30.075,,adl
1.360664,-0.1205,0.0755,-0.1612,-0.0266,-0.0194,0.0058,-28.2,9.825,-30.075,,adl
1.364551,-0.1205,0.0755,-0.1612,-0.0266,-0.0194,0.0058,-28.2,9.825,-30.075,,adl
1.365834,-0.1124,0.0637,-0.1458,-0.0266,-0.0194,0.0058,-28.2,9.825,-30.075,,adl
1.366778,-0.1124,0.0637,-0.1458,-0.0266,-0.0194,0.0058,-28.2,9.825,-30.075,,adl
1.367466,-0.092,0.0733,-0.1064,-0.0266,-0.0194,0.0058,-28.2,9.825,-30.075,,adl
1.371604,-0.092,0.0733,-0.1064,-0.0266,-0.0194,0.0058,-28.2,9.825,-30.075,,adl
1.372471,-0.0844,0.0496,-0.0804,-0.0266,-0.0194,0.0058,-28.2,9.825,-30.075,,adl
1.376392,-0.0844,0.0496,-0.0804,-0.0266,-0.0194,0.0058,-28.2,9.825,-30.075,,adl
1.377233,-0.0742,0.0402,-0.068,-0.0266,-0.0194,0.0058,-28.2,9.825,-30.075,,adl
1.382543,-0.0742,0.0402,-0.068,-0.0266,-0.0194,0.0058,-28.2,9.825,-30.075,,adl
1.383592,-0.0662,0.0426,-0.0507,-0.0266,-0.0194,0.0058,-28.2,9.825,-30.075,,adl
1.38635,-0.0662,0.0426,-0.0507,-0.0266,-0.0194,0.0058,-28.2,9.825,-30.075,,adl
1.387102,-0.0611,0.0333,-0.0367,-0.0266,-0.0194,0.0058,-28.2,9.825,-30.075,,adl
1.397774,-0.0611,0.0333,-0.0367,-0.0266,-0.0194,0.0058,-28.2,9.825,-30.075,,adl
1.398844,-0.0748,0.0502,-0.0745,-0.0266,-0.0194,0.0058,-28.2,9.825,-30.075,,adl
1.399791,-0.0748,0.0502,-0.0745,-0.0266,-0.0194,0.0058,-28.2,9.825,-30.075,,adl
1.400537,-0.0481,0.0599,-0.1116,-0.0266,-0.0194,0.0058,-28.2,9.825,-30.075,,adl
1.407228,-0.0481,0.0599,-0.1116,-0.0266,-0.0194,0.0058,-28.2,9.825,-30.075,,adl
1.407993,-0.0191,0.0528,-0.1317,-0.0266,-0.0194,0.0058,-28.2,9.825,-30.075,,adl
1.410057,-0.0191,0.0528,-0.1317,-0.0266,-0.0194,0.0058,-28.2,9.825,-30.075,,adl
1.41068,0.0114,0.0436,-0.2571,-0.0266,-0.0194,0.0058,-28.2,9.825,-30.075,,adl
1.416038,0.0114,0.0436,-0.2571,-0.0266,-0.0194,0.0058,-28.2,9.825,-30.075,,adl
1.416873,-0.0174,0.0272,-0.3127,-0.0266,-0.0194,0.0058,-28.2,9.825,-30.075,,adl
1.419728,-0.0174,0.0272,-0.3127,-0.0266,-0.0194,0.0058,-28.2,9.825,-30.075,,adl
1.420433,-0.1028,0.068,-0.2976,-0.0266,-0.0194,0.0058,-28.2,9.825,-30.075,,adl
1.425911,-0.1028,0.068,-0.2976,-0.0266,-0.0194,0.0058,-28.2,9.825,-30.075,,adl
1.42674,-0.0735,0.0898,-0.3212,-0.0266,-0.0194,0.0058,-28.2,9.825,-30.075,,adl
1.435589,-0.0735,0.0898,-0.3212,-0.0266,-0.0194,0.0058,-28.2,9.825,-30.075,,adl
1.437038,-0.1065,0.1114,-0.0271,-0.0266,-0.0194,0.0058,-28.2,9.825,-30.075,,adl
1.438199,-0.1065,0.1114,-0.0271,-0.0266,-0.0194,0.0058,-29.55,9.375,-30.075,,adl
1.439072,-0.1065,0.1114,-0.0271,-0.045,-0.0675,0.0058,-29.55,9.375,-30.075,,adl
1.440134,-0.1065,0.1114,-0.0271,-0.045,-0.0675,0.0058,-29.55,9.375,-30.075,,adl
1.441148,-0.1012,0.0877,0.2208,-0.045,-0.0675,0.0058,-29.55,9.375,-30.075,,adl
1.442004,-0.1012,0.0877,0.2208,-0.045,-0.0675,0.0058,-29.55,9.375,-30.075,,adl
1.442657,-0.043,0.0517,0.211,-0.045,-0.0675,0.0058,-29.55,9.375,-30.075,,adl
1.447541,-0.043,0.0517,0.211,-0.045,-0.0675,0.0058,-29.55,9.375,-30.075,,adl
1.448471,-0.0448,0.0591,0.0557,-0.045,-0.0675,0.0058,-29.55,9.375,-30.075,,adl
1.449162,-0.0448,0.0591,0.0557,-0.045,-0.0675,0.0058,-29.55,9.375,-30.075,,adl
1.44969,-0.0845,0.0472,0.0334,-0.045,-0.0675,0.0058,-29.55,9.375,-30.075,,adl
1.456449,-0.0845,0.0472,0.0334,-0.045,-0.0675,0.0058,-29.55,9.375,-30.075,,adl
1.457768,-0.0622,0.0378,-0.1112,-0.045,-0.0675,0.0058,-29.55,9.375,-30.075,,adl
1.458472,-0.0622,0.0378,-0.1112,-0.045,-0.0675,0.0058,-29.55,9.375,-30.075,,adl
1.458972,0.019,0.0141,-0.1909,-0.045,-0.0675,0.0058,-29.55,9.375,-30.075,,adl
1.465393,0.019,0.0141,-0.1909,-0.045,-0.0675,0.0058,-29.55,9.375,-30.075,,adl
1.466203,0.0119,0.0191,-0.2573,-0.045,-0.0675,0.0058,-29.55,9.375,-30.075,,adl
1.469549,0.0119,0.0191,-0.2573,-0.045,-0.0675,0.0058,-29.55,9.375,-30.075,,adl
1.470156,-0.0308,0.0217,-0.3083,-0.045,-0.0675,0.0058,-29.55,9.375,-30.075,,adl
1.473715,-0.0308,0.0217,-0.3083,-0.045,-0.0675,0.0058,-29.55,9.375,-30.075,,adl
1.474317,-0.0947,0.0626,-0.2982,-0.045,-0.0675,0.0058,-29.55,9.375,-30.075,,adl
1.479928,-0.0947,0.0626,-0.2982,-0.045,-0.0675,0.0058,-29.55,9.375,-30.075,,adl
1.480687,-0.1055,0.0749,-0.1853,-0.045,-0.0675,0.0058,-29.55,9.375,-30.075,,adl
1.483295,-0.1055,0.0749,-0.1853,-0.045,-0.0675,0.0058,-29.55,9.375,-30.075,,adl
1.483971,-0.1093,0.1014,-0.0236,-0.045,-0.0675,0.0058,-29.55,9.375,-30.075,,adl
1.489126,-0.1093,0.1014,-0.0236,-0.045,-0.0675,0.0058,-29.55,9.375,-30.075,,adl
1.489856,-0.0942,0.0919,0.1058,-0.045,-0.0675,0.0058,-29.55,9.375,-30.075,,adl
1.494361,-0.0942,0.0919,0.1058,-0.045,-0.0675,0.0058,-29.55,9.375,-30.075,,adl
1.4952,-0.0885,0.0465,0.2003,-0.045,-0.0675,0.0058,-29.55,9.375,-30.075,,adl
1.501658,-0.0885,0.0465,0.2003,-0.045,-0.0675,0.0058,-29.55,9.375,-30.075,,adl
1.502707,-0.0612,0.0082,0.2209,-0.045,-0.0675,0.0058,-29.55,9.375,-30.075,,adl
1.503299,-0.0612,0.0082,0.2209,-0.045,-0.0675,0.0058,-29.775,9.3,-30.075,,adl
1.503867,-0.0612,0.0082,0.2209,-0.0527,-0.086,0.0095,-29.775,9.3,-30.075,,adl
1.504396,-0.0612,0.0082,0.2209,-0.0527,-0.086,0.0095,-29.775,9.3,-30.075,,adl
1.504947,-0.0399,-0.0253,0.1846,-0.0527,-0.086,0.0095,-29.775,9.3,-30.075,,adl
1.508682,-0.0399,-0.0253,0.1846,-0.0527,-0.086,0.0095,-29.775,9.3,-30.075,,adl
1.509598,-0.0305,-0.0373,0.0912,-0.0527,-0.086,0.0095,-29.775,9.3,-30.075,,adl
1.514744,-0.0305,-0.0373,0.0912,-0.0527,-0.086,0.0095,-29.775,9.3,-30.075,,adl
1.515645,-0.0402,-0.0348,-0.0158,-0.0527,-0.086,0.0095,-29.775,9.3,-30.075,,adl
1.518208,-0.0402,-0.0348,-0.0158,-0.0527,-0.086,0.0095,-29.775,9.3,-30.075,,adl
1.518988,-0.0468,-0.0276,-0.0982,-0.0527,-0.086,0.0095,-29.775,9.3,-30.075,,adl
1.523924,-0.0468,-0.0276,-0.0982,-0.0527,-0.086,0.0095,-29.775,9.3,-30.075,,adl
1.524718,-0.0349,0.0084,-0.1298,-0.0527,-0.086,0.0095,-29.775,9.3,-30.075,,adl
1.530325,-0.0349,0.0084,-0.1298,-0.0527,-0.086,0.0095,-29.775,9.3,-30.075,,adl
1.531313,-0.0043,0.0228,-0.114,-0.0527,-0.086,0.0095,-29.775,9.3,-30.075,,adl
1.532147,-0.0043,0.0228,-0.114,-0.0527,-0.086,0.0095,-29.775,9.3,-30.075,,adl
1.532831,0.0325,0.0611,-0.0812,-0.0527,-0.086,0.0095,-29.775,9.3,-30.075,,adl
1.537299,0.0325,0.0611,-0.0812,-0.0527,-0.086,0.0095,-29.775,9.3,-30.075,,adl
1.538068,0.0487,0.0611,-0.0472,-0.0527,-0.086,0.0095,-29.775,9.3,-30.075,,adl
1.543378,0.0487,0.0611,-0.0472,-0.0527,-0.086,0.0095,-29.775,9.3,-30.075,,adl
1.544252,0.0714,0.0707,-0.0457,-0.0527,-0.086,0.0095,-29.775,9.3,-30.075,,adl
1.550803,0.0714,0.0707,-0.0457,-0.0527,-0.086,0.0095,-29.775,9.3,-30.075,,adl
1.551832,0.082,0.0755,-0.0369,-0.0527,-0.086,0.0095,-29.775,9.3,-30.075,,adl
1.552567,0.082,0.0755,-0.0369,-0.0527,-0.086,0.0095,-29.775,9.3,-30.075,,adl
1.553526,0.0632,0.0732,-0.0355,-0.0527,-0.086,0.0095,-29.775,9.3,-30.075,,adl
1.559325,0.0632,0.0732,-0.0355,-0.0527,-0.086,0.0095,-29.775,9.3,-30.075,,adl
1.560397,0.0453,0.0661,-0.0119,-0.0527,-0.086,0.0095,-29.775,9.3,-30.075,,adl
1.561376,0.0453,0.0661,-0.0119,-0.0527,-0.086,0.0095,-29.775,9.3,-30.075,,adl
1.562138,0.051,0.047,-0.0146,-0.0527,-0.086,0.0095,-29.775,9.3,-30.075,,adl
1.569469,0.051,0.047,-0.0146,-0.0527,-0.086,0.0095,-29.775,9.3,-30.075,,adl
1.571314,0.0197,0.0422,-0.0097,-0.0527,-0.086,0.0095,-29.775,9.3,-30.075,,adl
1.572136,0.0197,0.0422,-0.0097,-0.0527,-0.086,0.0095,-29.55,10.125,-29.25,,adl
1.572761,0.0197,0.0422,-0.0097,-0.0194,-0.133,-0.0012,-29.55,10.125,-29.25,,adl
1.573457,0.0197,0.0422,-0.0097,-0.0194,-0.133,-0.0012,-29.55,10.125,-29.25,,adl
1.574031,-0.0157,0.059,-0.0202,-0.0194,-0.133,-0.0012,-29.55,10.125,-29.25,,adl
1.578854,-0.0157,0.059,-0.0202,-0.0194,-0.133,-0.0012,-29.55,10.125,-29.25,,adl
1.579636,-0.0237,0.0973,-0.0421,-0.0194,-0.133,-0.0012,-29.55,10.125,-29.25,,adl
1.580255,-0.0237,0.0973,-0.0421,-0.0194,-0.133,-0.0012,-29.55,10.125,-29.25,,adl
1.580841,-0.0473,0.1117,-0.056,-0.0194,-0.133,-0.0012,-29.55,10.125,-29.25,,adl
1.586974,-0.0473,0.1117,-0.056,-0.0194,-0.133,-0.0012,-29.55,10.125,-29.25,,adl
1.587786,-0.0706,0.1166,-0.0764,-0.0194,-0.133,-0.0012,-29.55,10.125,-29.25,,adl
1.593056,-0.0706,0.1166,-0.0764,-0.0194,-0.133,-0.0012,-29.55,10.125,-29.25,,adl
1.593785,-0.0762,0.1478,-0.0884,-0.0194,-0.133,-0.0012,-29.55,10.125,-29.25,,adl
1.596608,-0.0762,0.1478,-0.0884,-0.0194,-0.133,-0.0012,-29.55,10.125,-29.25,,adl
1.597742,-0.0722,0.1526,-0.105,-0.0194,-0.133,-0.0012,-29.55,10.125,-29.25,,adl
1.601001,-0.0722,0.1526,-0.105,-0.0194,-0.133,-0.0012,-29.55,10.125,-29.25,,adl
1.60175,-0.0835,0.1407,-0.1041,-0.0194,-0.133,-0.0012,-29.55,10.125,-29.25,,adl
1.607327,-0.0835,0.1407,-0.1041,-0.0194,-0.133,-0.0012,-29.55,10.125,-29.25,,adl
1.608259,-0.0691,0.1145,-0.097,-0.0194,-0.133,-0.0012,-29.55,10.125,-29.25,,adl
1.61219,-0.0691,0.1145,-0.097,-0.0194,-0.133,-0.0012,-29.55,10.125,-29.25,,adl
1.613381,-0.0651,0.105,-0.0749,-0.0194,-0.133,-0.0012,-29.55,10.125,-29.25,,adl
1.616161,-0.0651,0.105,-0.0749,-0.0194,-0.133,-0.0012,-29.55,10.125,-29.25,,adl
1.61711,-0.0374,0.0692,-0.0458,-0.0194,-0.133,-0.0012,-29.55,10.125,-29.25,,adl
1.620676,-0.0374,0.0692,-0.0458,-0.0194,-0.133,-0.0012,-29.55,10.125,-29.25,,adl
1.621602,0.0114,0.0501,-0.0569,-0.0194,-0.133,-0.0012,-29.55,10.125,-29.25,,adl
1.625587,0.0114,0.0501,-0.0569,-0.0194,-0.133,-0.0012,-29.55,10.125,-29.25,,adl
1.62627,0.0537,0.0214,-0.0585,-0.0194,-0.133,-0.0012,-29.55,10.125,-29.25,,adl
1.634245,0.0537,0.0214,-0.0585,-0.0194,-0.133,-0.0012,-29.55,10.125,-29.25,,adl
1.635249,0.0644,-0.0048,-0.0378,-0.0194,-0.133,-0.0012,-29.55,10.125,-29.25,,adl
1.636177,0.0644,-0.0048,-0.0378,-0.0194,-0.133,-0.0012,-29.55,10.125,-29.25,,adl
1.636872,0.0668,-0.0096,0.041,-0.0194,-0.133,-0.0012,-29.55,10.125,-29.25,,adl
1.639545,0.0668,-0.0096,0.041,-0.0194,-0.133,-0.0012,-29.4,9.75,-29.25,,adl
1.647584,0.0668,-0.0096,0.041,-0.0383,-0.1548,-0.0144,-29.4,9.75,-29.25,,adl
1.648655,0.0668,-0.0096,0.041,-0.0383,-0.1548,-0.0144,-29.4,9.75,-29.25,,adl
1.649411,0.0646,-0.0097,0.2428,-0.0383,-0.1548,-0.0144,-29.4,9.75,-29.25,,adl
1.650163,0.0646,-0.0097,0.2428,-0.0383,-0.1548,-0.0144,-29.4,9.75,-29.25,,adl
1.650832,0.1525,-0.017,0.1607,-0.0383,-0.1548,-0.0144,-29.4,9.75,-29.25,,adl
1.65513,0.1525,-0.017,0.1607,-0.0383,-0.1548,-0.0144,-29.4,9.75,-29.25,,adl
1.655907,0.1807,0.0116,0.0969,-0.0383,-0.1548,-0.0144,-29.4,9.75,-29.25,,adl
1.660223,0.1807,0.0116,0.0969,-0.0383,-0.1548,-0.0144,-29.4,9.75,-29.25,,adl
1.660951,0.2035,-0.0292,0.0123,-0.0383,-0.1548,-0.0144,-29.4,9.75,-29.25,,adl
1.665623,0.2035,-0.0292,0.0123,-0.0383,-0.1548,-0.0144,-29.4,9.75,-29.25,,adl
1.66645,0.2206,-0.0555,-0.0171,-0.0383,-0.1548,-0.0144,-29.4,9.75,-29.25,,adl
1.669678,0.2206,-0.0555,-0.0171,-0.0383,-0.1548,-0.0144,-29.4,9.75,-29.25,,adl
1.670536,0.2333,-0.0268,-0.0315,-0.0383,-0.1548,-0.0144,-29.4,9.75,-29.25,,adl
1.674298,0.2333,-0.0268,-0.0315,-0.0383,-0.1548,-0.0144,-29.4,9.75,-29.25,,adl
1.675044,0.2288,0.021,-0.0291,-0.0383,-0.1548,-0.0144,-29.4,9.75,-29.25,,adl
1.681008,0.2288,0.021,-0.0291,-0.0383,-0.1548,-0.0144,-29.4,9.75,-29.25,,adl
1.682321,0.2061,0.0688,-0.0388,-0.0383,-0.1548,-0.0144,-29.4,9.75,-29.25,,adl
1.683413,0.2061,0.0688,-0.0388,-0.0383,-0.1548,-0.0144,-29.4,9.75,-29.25,,adl
1.684328,0.1979,0.0688,-0.0201,-0.0383,-0.1548,-0.0144,-29.4,9.75,-29.25,,adl
1.692394,0.1979,0.0688,-0.0201,-0.0383,-0.1548,-0.0144,-29.4,9.75,-29.25,,adl
1.693874,0.2162,0.107,0.0032,-0.0383,-0.1548,-0.0144,-29.4,9.75,-29.25,,adl
1.694979,0.2162,0.107,0.0032,-0.0383,-0.1548,-0.0144,-29.4,9.75,-29.25,,adl
1.695855,0.2735,0.1213,0.0032,-0.0383,-0.1548,-0.0144,-29.4,9.75,-29.25,,adl
1.707249,0.2735,0.1213,0.0032,-0.0383,-0.1548,-0.0144,-29.4,9.75,-29.25,,adl
1.707972,0.3197,0.126,0.036,-0.0383,-0.1548,-0.0144,-29.4,9.75,-29.25,,adl
1.708529,0.3197,0.126,0.036,-0.0383,-0.1548,-0.0144,-29.4,9.75,-29.25,,adl
1.709064,0.3691,0.1307,0.0307,-0.0383,-0.1548,-0.0144,-29.4,9.75,-29.25,,adl
1.709593,0.3691,0.1307,0.0307,-0.0383,-0.1548,-0.0144,-29.4,9.75,-29.25,,adl
1.710025,0.3717,0.1234,0.0301,-0.0383,-0.1548,-0.0144,-29.4,9.75,-29.25,,adl
1.710537,0.3717,0.1234,0.0301,-0.0383,-0.1548,-0.0144,-30.6,10.05,-28.65,,adl
1.713475,0.3717,0.1234,0.0301,-0.0344,-0.1694,-0.0099,-30.6,10.05,-28.65,,adl
1.714224,0.3717,0.1234,0.0301,-0.0344,-0.1694,-0.0099,-30.6,10.05,-28.65,,adl
1.714703,0.3479,0.1209,0.022,-0.0344,-0.1694,-0.0099,-30.6,10.05,-28.65,,adl
1.718458,0.3479,0.1209,0.022,-0.0344,-0.1694,-0.0099,-30.6,10.05,-28.65,,adl
1.719142,0.3362,0.0993,0.0212,-0.0344,-0.1694,-0.0099,-30.6,10.05,-28.65,,adl
1.724181,0.3362,0.0993,0.0212,-0.0344,-0.1694,-0.0099,-30.6,10.05,-28.65,,adl
1.724746,0.3504,0.0872,0.0229,-0.0344,-0.1694,-0.0099,-30.6,10.05,-28.65,,adl
1.729588,0.3504,0.0872,0.0229,-0.0344,-0.1694,-0.0099,-30.6,10.05,-28.65,,adl
1.730325,0.333,0.044,0.0388,-0.0344,-0.1694,-0.0099,-30.6,10.05,-28.65,,adl
1.734957,0.333,0.044,0.0388,-0.0344,-0.1694,-0.0099,-30.6,10.05,-28.65,,adl
1.735555,0.3313,0.0199,0.0686,-0.0344,-0.1694,-0.0099,-30.6,10.05,-28.65,,adl
1.738465,0.3313,0.0199,0.0686,-0.0344,-0.1694,-0.0099,-30.6,10.05,-28.65,,adl
1.738979,0.3304,0.0005,0.0819,-0.0344,-0.1694,-0.0099,-30.6,10.05,-28.65,,adl
1.742894,0.3304,0.0005,0.0819,-0.0344,-0.1694,-0.0099,-30.6,10.05,-28.65,,adl
1.743415,0.3296,-0.002,0.0855,-0.0344,-0.1694,-0.0099,-30.6,10.05,-28.65,,adl
1.748017,0.3296,-0.002,0.0855,-0.0344,-0.1694,-0.0099,-30.6,10.05,-28.65,,adl
1.748706,0.3324,-0.0046,0.0773,-0.0344,-0.1694,-0.0099,-30.6,10.05,-28.65,,adl
1.752674,0.3324,-0.0046,0.0773,-0.0344,-0.1694,-0.0099,-30.6,10.05,-28.65,,adl
1.753439,0.3283,-0.0071,0.0951,-0.0344,-0.1694,-0.0099,-30.6,10.05,-28.65,,adl
1.757502,0.3283,-0.0071,0.0951,-0.0344,-0.1694,-0.0099,-30.6,10.05,-28.65,,adl
1.758157,0.3438,0.007,0.0935,-0.0344,-0.1694,-0.0099,-30.6,10.05,-28.65,,adl
1.763204,0.3438,0.007,0.0935,-0.0344,-0.1694,-0.0099,-30.6,10.05,-28.65,,adl
1.76396,0.3409,-0.0052,0.0873,-0.0344,-0.1694,-0.0099,-30.6,10.05,-28.65,,adl
1.767505,0.3409,-0.0052,0.0873,-0.0344,-0.1694,-0.0099,-30.6,10.05,-28.65,,adl
1.768218,0.3472,-0.0006,0.1093,-0.0344,-0.1694,-0.0099,-30.6,10.05,-28.65,,adl
1.772559,0.3472,-0.0006,0.1093,-0.0344,-0.1694,-0.0099,-30.6,10.05,-28.65,,adl
1.773564,0.3487,0.0016,0.1167,-0.0344,-0.1694,-0.0099,-30.6,10.05,-28.65,,adl
1.777841,0.3487,0.0016,0.1167,-0.0344,-0.1694,-0.0099,-30.6,10.05,-28.65,,adl
1.778751,0.3742,-0.0058,0.1097,-0.0344,-0.1694,-0.0099,-30.6,10.05,-28.65,,adl
1.783525,0.3742,-0.0058,0.1097,-0.0362,-0.1581,-0.0086,-30.6,10.05,-28.65,,adl
1.784404,0.3742,-0.0058,0.1097,-0.0362,-0.1581,-0.0086,-30.75,9.825,-28.05,,adl
1.785158,0.3742,-0.0058,0.1097,-0.0362,-0.1581,-0.0086,-30.75,9.825,-28.05,,adl
1.786176,0.3636,0.0059,0.1064,-0.0362,-0.1581,-0.0086,-30.75,9.825,-28.05,,adl
1.78684,0.3636,0.0059,0.1064,-0.0362,-0.1581,-0.0086,-30.75,9.825,-28.05,,adl
1.787377,0.3571,0.0176,0.0846,-0.0362,-0.1581,-0.0086,-30.75,9.825,-28.05,,adl
1.791804,0.3571,0.0176,0.0846,-0.0362,-0.1581,-0.0086,-30.75,9.825,-28.05,,adl
1.792537,0.3316,0.0556,0.0694,-0.0362,-0.1581,-0.0086,-30.75,9.825,-28.05,,adl
1.798223,0.3316,0.0556,0.0694,-0.0362,-0.1581,-0.0086,-30.75,9.825,-28.05,,adl
1.799044,0.3052,0.0818,0.0724,-0.0362,-0.1581,-0.0086,-30.75,9.825,-28.05,,adl
1.80128,0.3052,0.0818,0.0724,-0.0362,-0.1581,-0.0086,-30.75,9.825,-28.05,,adl
1.801962,0.2798,0.0864,0.0841,-0.0362,-0.1581,-0.0086,-30.75,9.825,-28.05,,adl
1.807123,0.2798,0.0864,0.0841,-0.0362,-0.1581,-0.0086,-30.75,9.825,-28.05,,adl
1.807828,0.2791,0.0767,0.1021,-0.0362,-0.1581,-0.0086,-30.75,9.825,-28.05,,adl
1.814353,0.2791,0.0767,0.1021,-0.0362,-0.1581,-0.0086,-30.75,9.825,-28.05,,adl
1.815521,0.2467,0.0956,0.1162,-0.0362,-0.1581,-0.0086,-30.75,9.825,-28.05,,adl
1.816355,0.2467,0.0956,0.1162,-0.0362,-0.1581,-0.0086,-30.75,9.825,-28.05,,adl
1.817104,0.2649,0.0883,0.1486,-0.0362,-0.1581,-0.0086,-30.75,9.825,-28.05,,adl
1.822204,0.2649,0.0883,0.1486,-0.0362,-0.1581,-0.0086,-30.75,9.825,-28.05,,adl
1.823183,0.264,0.0929,0.1639,-0.0362,-0.1581,-0.0086,-30.75,9.825,-28.05,,adl
1.826542,0.264,0.0929,0.1639,-0.0362,-0.1581,-0.0086,-30.75,9.825,-28.05,,adl
1.827456,0.2893,0.0783,0.1694,-0.0362,-0.1581,-0.0086,-30.75,9.825,-28.05,,adl
1.832028,0.2893,0.0783,0.1694,-0.0362,-0.1581,-0.0086,-30.75,9.825,-28.05,,adl
1.833044,0.2404,0.0805,0.1653,-0.0362,-0.1581,-0.0086,-30.75,9.825,-28.05,,adl
1.836039,0.2404,0.0805,0.1653,-0.0362,-0.1581,-0.0086,-30.75,9.825,-28.05,,adl
1.836781,0.2302,0.0755,0.1633,-0.0362,-0.1581,-0.0086,-30.75,9.825,-28.05,,adl
1.841944,0.2302,0.0755,0.1633,-0.0362,-0.1581,-0.0086,-30.75,9.825,-28.05,,adl
1.842659,0.2316,0.0537,0.1468,-0.0362,-0.1581,-0.0086,-30.75,9.825,-28.05,,adl
1.846313,0.2316,0.0537,0.1468,-0.0362,-0.1581,-0.0086,-30.75,9.825,-28.05,,adl
1.847207,0.2231,0.0272,0.1135,-0.0362,-0.1581,-0.0086,-30.75,9.825,-28.05,,adl
1.849504,0.2231,0.0272,0.1135,0.0029,-0.1822,0.0008,-30.75,9.825,-28.05,,adl
1.850283,0.2231,0.0272,0.1135,0.0029,-0.1822,0.0008,-30.75,9.6,-28.05,,adl
1.850984,0.2231,0.0272,0.1135,0.0029,-0.1822,0.0008,-30.75,9.6,-28.05,,adl
1.851634,0.2177,0.0365,0.134,0.0029,-0.1822,0.0008,-30.75,9.6,-28.05,,adl
1.855917,0.2177,0.0365,0.134,0.0029,-0.1822,0.0008,-30.75,9.6,-28.05,,adl
1.856639,0.2339,0.0483,0.1536,0.0029,-0.1822,0.0008,-30.75,9.6,-28.05,,adl
1.859566,0.2339,0.0483,0.1536,0.0029,-0.1822,0.0008,-30.75,9.6,-28.05,,adl
1.860185,0.226,0.0528,0.1711,0.0029,-0.1822,0.0008,-30.75,9.6,-28.05,,adl
1.865452,0.226,0.0528,0.1711,0.0029,-0.1822,0.0008,-30.75,9.6,-28.05,,adl
1.866293,0.2514,0.0453,0.1677,0.0029,-0.1822,0.0008,-30.75,9.6,-28.05,,adl
1.871113,0.2514,0.0453,0.1677,0.0029,-0.1822,0.0008,-30.75,9.6,-28.05,,adl
1.871934,0.2648,0.0378,0.1664,0.0029,-0.1822,0.0008,-30.75,9.6,-28.05,,adl
1.876487,0.2648,0.0378,0.1664,0.0029,-0.1822,0.0008,-30.75,9.6,-28.05,,adl
1.877386,0.2749,0.016,0.1568,0.0029,-0.1822,0.0008,-30.75,9.6,-28.05,,adl
1.880817,0.2749,0.016,0.1568,0.0029,-0.1822,0.0008,-30.75,9.6,-28.05,,adl
1.881748,0.2992,0.0157,0.16,0.0029,-0.1822,0.0008,-30.75,9.6,-28.05,,adl
1.884829,0.2992,0.0157,0.16,0.0029,-0.1822,0.0008,-30.75,9.6,-28.05,,adl
1.885912,0.2976,0.0009,0.1472,0.0029,-0.1822,0.0008,-30.75,9.6,-28.05,,adl
1.895781,0.2976,0.0009,0.1472,0.0029,-0.1822,0.0008,-30.75,9.6,-28.05,,adl
1.896746,0.2913,0.0054,0.1546,0.0029,-0.1822,0.0008,-30.75,9.6,-28.05,,adl
1.900604,0.2913,0.0054,0.1546,0.0029,-0.1822,0.0008,-30.75,9.6,-28.05,,adl
1.9018,0.2986,0.0289,0.1902,0.0029,-0.1822,0.0008,-30.75,9.6,-28.05,,adl
1.905582,0.2986,0.0289,0.1902,0.0029,-0.1822,0.0008,-30.75,9.6,-28.05,,adl
1.90651,0.3156,0.0404,0.2019,0.0029,-0.1822,0.0008,-30.75,9.6,-28.05,,adl
1.910502,0.3156,0.0404,0.2019,0.0029,-0.1822,0.0008,-30.75,9.6,-28.05,,adl
1.911454,0.3113,0.0448,0.2039,0.0029,-0.1822,0.0008,-30.75,9.6,-28.05,,adl
1.9174,0.3113,0.0448,0.2039,0.0029,-0.1822,0.0008,-30.75,9.6,-28.05,,adl
1.918517,0.3262,0.0588,0.2036,0.0029,-0.1822,0.0008,-30.75,9.6,-28.05,,adl
1.919568,0.3262,0.0588,0.2036,0.0029,-0.1822,0.0008,-30.75,9.6,-28.05,,adl
1.920318,0.346,0.0775,0.2108,0.0029,-0.1822,0.0008,-30.75,9.6,-28.05,,adl
1.921339,0.346,0.0775,0.2108,0.0029,-0.1822,0.0008,-31.35,9.6,-27.825,,adl
1.9258,0.346,0.0775,0.2108,0.0487,-0.1965,0.0118,-31.35,9.6,-27.825,,adl
1.926682,0.346,0.0775,0.2108,0.0487,-0.1965,0.0118,-31.35,9.6,-27.825,,adl
1.927212,0.3868,0.0626,0.1991,0.0487,-0.1965,0.0118,-31.35,9.6,-27.825,,adl
1.931879,0.3868,0.0626,0.1991,0.0487,-0.1965,0.0118,-31.35,9.6,-27.825,,adl
1.932712,0.3819,0.0694,0.17,0.0487,-0.1965,0.0118,-31.35,9.6,-27.825,,adl
1.933545,0.3819,0.0694,0.17,0.0487,-0.1965,0.0118,-31.35,9.6,-27.825,,adl
1.934048,0.3719,0.0593,0.1434,0.0487,-0.1965,0.0118,-31.35,9.6,-27.825,,adl
1.939123,0.3719,0.0593,0.1434,0.0487,-0.1965,0.0118,-31.35,9.6,-27.825,,adl
1.939786,0.3675,0.0614,0.1274,0.0487,-0.1965,0.0118,-31.35,9.6,-27.825,,adl
1.944575,0.3675,0.0614,0.1274,0.0487,-0.1965,0.0118,-31.35,9.6,-27.825,,adl
1.946902,0.3556,0.0729,0.1204,0.0487,-0.1965,0.0118,-31.35,9.6,-27.825,,adl
1.947885,0.3556,0.0729,0.1204,0.0487,-0.1965,0.0118,-31.35,9.6,-27.825,,adl
1.948617,0.3242,0.0843,0.1171,0.0487,-0.1965,0.0118,-31.35,9.6,-27.825,,adl
1.954967,0.3242,0.0843,0.1171,0.0487,-0.1965,0.0118,-31.35,9.6,-27.825,,adl
1.955974,0.2937,0.0719,0.11,0.0487,-0.1965,0.0118,-31.35,9.6,-27.825,,adl
1.959671,0.2937,0.0719,0.11,0.0487,-0.1965,0.0118,-31.35,9.6,-27.825,,adl
1.961343,0.2591,0.0835,0.103,0.0487,-0.1965,0.0118,-31.35,9.6,-27.825,,adl
1.962373,0.2591,0.0835,0.103,0.0487,-0.1965,0.0118,-31.35,9.6,-27.825,,adl
1.962915,0.2437,0.0807,0.0937,0.0487,-0.1965,0.0118,-31.35,9.6,-27.825,,adl
1.968021,0.2437,0.0807,0.0937,0.0487,-0.1965,0.0118,-31.35,9.6,-27.825,,adl
1.968797,0.2652,0.1164,0.1141,0.0487,-0.1965,0.0118,-31.35,9.6,-27.825,,adl
1.973444,0.2652,0.1164,0.1141,0.0487,-0.1965,0.0118,-31.35,9.6,-27.825,,adl
1.974175,0.2542,0.1206,0.127,0.0487,-0.1965,0.0118,-31.35,9.6,-27.825,,adl
1.979284,0.2542,0.1206,0.127,0.0487,-0.1965,0.0118,-31.35,9.6,-27.825,,adl
1.97997,0.2608,0.137,0.1411,0.0487,-0.1965,0.0118,-31.35,9.6,-27.825,,adl
1.983745,0.2608,0.137,0.1411,0.0487,-0.1965,0.0118,-31.35,9.6,-27.825,,adl
1.984425,0.2722,0.1509,0.1481,0.0487,-0.1965,0.0118,-31.35,9.6,-27.825,,adl
1.988463,0.2722,0.1509,0.1481,0.0487,-0.1965,0.0118,-31.35,9.6,-27.825,,adl
1.989246,0.2888,0.1579,0.0943,0.0487,-0.1965,0.0118,-31.35,9.6,-27.825,,adl
1.989894,0.2888,0.1579,0.0943,0.0487,-0.1965,0.0118,-31.05,9.15,-27.3,,adl
1.994131,0.2888,0.1579,0.0943,0.0487,-0.1965,0.0118,-31.05,9.15,-27.3,,adl
1.994853,0.3198,0.1743,0.0694,0.0487,-0.1965,0.0118,-31.05,9.15,-27.3,,adl
1.998385,0.3198,0.1743,0.0694,0.0811,-0.1542,0.0003,-31.05,9.15,-27.3,,adl
1.999307,0.3198,0.1743,0.0694,0.0811,-0.1542,0.0003,-31.05,9.15,-27.3,,adl
1.99983,0.3191,0.1715,0.0316,0.0811,-0.1542,0.0003,-31.05,9.15,-27.3,,adl
2.001923,0.3191,0.1715,0.0316,0.0811,-0.1542,0.0003,-31.05,9.15,-27.3,,adl
2.002525,0.3328,0.2023,-0.0888,0.0811,-0.1542,0.0003,-31.05,9.15,-27.3,,adl
2.007877,0.3328,0.2023,-0.0888,0.0811,-0.1542,0.0003,-31.05,9.15,-27.3,,adl
2.008577,0.3347,0.2307,-0.2535,0.0811,-0.1542,0.0003,-31.05,9.15,-27.3,,adl
2.018501,0.3347,0.2307,-0.2535,0.0811,-0.1542,0.0003,-31.05,9.15,-27.3,,adl
2.01954,0.2696,0.2351,-0.2,0.0811,-0.1542,0.0003,-31.05,9.15,-27.3,,adl
2.020378,0.2696,0.2351,-0.2,0.0811,-0.1542,0.0003,-31.05,9.15,-27.3,,adl
2.021445,0.1867,0.2707,-0.1299,0.0811,-0.1542,0.0003,-31.05,9.15,-27.3,,adl
2.022215,0.1867,0.2707,-0.1299,0.0811,-0.1542,0.0003,-31.05,9.15,-27.3,,adl
2.022858,0.1545,0.2993,-0.0697,0.0811,-0.1542,0.0003,-31.05,9.15,-27.3,,adl
2.027949,0.1545,0.2993,-0.0697,0.0811,-0.1542,0.0003,-31.05,9.15,-27.3,,adl
2.029063,0.0602,0.2893,0.0472,0.0811,-0.1542,0.0003,-31.05,9.15,-27.3,,adl
2.035396,0.0602,0.2893,0.0472,0.0811,-0.1542,0.0003,-31.05,9.15,-27.3,,adl
2.036454,0.0336,0.2318,0.1968,0.0811,-0.1542,0.0003,-31.05,9.15,-27.3,,adl
2.037444,0.0336,0.2318,0.1968,0.0811,-0.1542,0.0003,-31.05,9.15,-27.3,,adl
2.038085,0.0738,0.1644,0.3103,0.0811,-0.1542,0.0003,-31.05,9.15,-27.3,,adl
2.042386,0.0738,0.1644,0.3103,0.0811,-0.1542,0.0003,-31.05,9.15,-27.3,,adl
2.043234,0.0623,0.1351,0.5372,0.0811,-0.1542,0.0003,-31.05,9.15,-27.3,,adl
2.047391,0.0623,0.1351,0.5372,0.0811,-0.1542,0.0003,-31.05,9.15,-27.3,,adl
2.048194,0.0153,0.1562,0.5153,0.0811,-0.1542,0.0003,-31.05,9.15,-27.3,,adl
2.051409,0.0153,0.1562,0.5153,0.0811,-0.1542,0.0003,-31.05,9.15,-27.3,,adl
2.052139,0.0615,0.1726,0.2847,0.0811,-0.1542,0.0003,-31.05,9.15,-27.3,,adl
2.057286,0.0615,0.1726,0.2847,0.0811,-0.1542,0.0003,-31.05,9.15,-27.3,,adl
2.057947,0.1673,0.1364,0.0343,0.0811,-0.1542,0.0003,-31.05,9.15,-27.3,,adl
2.058549,0.1673,0.1364,0.0343,0.0811,-0.1542,0.0003,-31.575,8.85,-26.55,,adl
2.059106,0.1673,0.1364,0.0343,0.095,-0.0849,0.0189,-31.575,8.85,-26.55,,adl
2.059646,0.1673,0.1364,0.0343,0.095,-0.0849,0.0189,-31.575,8.85,-26.55,,adl
2.060115,0.2439,0.0811,-0.077,0.095,-0.0849,0.0189,-31.575,8.85,-26.55,,adl
2.067575,0.2439,0.0811,-0.077,0.095,-0.0849,0.0189,-31.575,8.85,-26.55,,adl
2.0685,0.2836,0.0642,-0.1092,0.095,-0.0849,0.0189,-31.575,8.85,-26.55,,adl
2.07097,0.2836,0.0642,-0.1092,0.095,-0.0849,0.0189,-31.575,8.85,-26.55,,adl
2.072203,0.2713,0.1047,-0.1942,0.095,-0.0849,0.0189,-31.575,8.85,-26.55,,adl
2.076073,0.2713,0.1047,-0.1942,0.095,-0.0849,0.0189,-31.575,8.85,-26.55,,adl
2.077089,0.2406,0.1546,-0.1983,0.095,-0.0849,0.0189,-31.575,8.85,-26.55,,adl
2.082947,0.2406,0.1546,-0.1983,0.095,-0.0849,0.0189,-31.575,8.85,-26.55,,adl
2.083946,0.196,0.2288,-0.1423,0.095,-0.0849,0.0189,-31.575,8.85,-26.55,,adl
2.084973,0.196,0.2288,-0.1423,0.095,-0.0849,0.0189,-31.575,8.85,-26.55,,adl
2.08678,0.1976,0.2692,-0.0185,0.095,-0.0849,0.0189,-31.575,8.85,-26.55,,adl
2.091028,0.1976,0.2692,-0.0185,0.095,-0.0849,0.0189,-31.575,8.85,-26.55,,adl
2.091862,0.1967,0.2428,0.1214,0.095,-0.0849,0.0189,-31.575,8.85,-26.55,,adl
2.096171,0.1967,0.2428,0.1214,0.095,-0.0849,0.0189,-31.575,8.85,-26.55,,adl
2.096853,0.214,0.1923,0.2271,0.095,-0.0849,0.0189,-31.575,8.85,-26.55,,adl
2.099991,0.214,0.1923,0.2271,0.095,-0.0849,0.0189,-31.575,8.85,-26.55,,adl
2.100674,0.2229,0.1419,0.2642,0.095,-0.0849,0.0189,-31.575,8.85,-26.55,,adl
2.105474,0.2229,0.1419,0.2642,0.095,-0.0849,0.0189,-31.575,8.85,-26.55,,adl
2.106126,0.2134,0.1176,0.2543,0.095,-0.0849,0.0189,-31.575,8.85,-26.55,,adl
2.109442,0.2134,0.1176,0.2543,0.095,-0.0849,0.0189,-31.575,8.85,-26.55,,adl
2.110179,0.1819,0.0982,0.1896,0.095,-0.0849,0.0189,-31.575,8.85,-26.55,,adl
2.116563,0.1819,0.0982,0.1896,0.095,-0.0849,0.0189,-31.575,8.85,-26.55,,adl
2.117608,0.1619,0.0812,0.1428,0.095,-0.0849,0.0189,-31.575,8.85,-26.55,,adl
2.118334,0.1619,0.0812,0.1428,0.095,-0.0849,0.0189,-31.575,8.85,-26.55,,adl
2.118885,0.129,0.0858,0.0891,0.095,-0.0849,0.0189,-31.575,8.85,-26.55,,adl
2.125099,0.129,0.0858,0.0891,0.095,-0.0849,0.0189,-31.575,8.85,-26.55,,adl
2.125894,0.1496,0.033,0.0408,0.095,-0.0849,0.0189,-31.575,8.85,-26.55,,adl
2.130023,0.1496,0.033,0.0408,0.095,-0.0849,0.0189,-31.575,8.85,-26.55,,adl
2.13083,0.132,0.0089,-0.0329,0.095,-0.0849,0.0189,-31.575,8.85,-26.55,,adl
2.131558,0.132,0.0089,-0.0329,0.084,0.0168,0.0689,-31.575,8.85,-26.55,,adl
2.134353,0.132,0.0089,-0.0329,0.084,0.0168,0.0689,-31.875,9.375,-26.475,,adl
2.135173,0.132,0.0089,-0.0329,0.084,0.0168,0.0689,-31.875,9.375,-26.475,,adl
2.13578,0.1176,0.004,-0.0567,0.084,0.0168,0.0689,-31.875,9.375,-26.475,,adl
2.140002,0.1176,0.004,-0.0567,0.084,0.0168,0.0689,-31.875,9.375,-26.475,,adl
2.14084,0.1025,0.0016,-0.0848,0.084,0.0168,0.0689,-31.875,9.375,-26.475,,adl
2.146399,0.1025,0.0016,-0.0848,0.084,0.0168,0.0689,-31.875,9.375,-26.475,,adl
2.147151,0.0935,0.0327,-0.1036,0.084,0.0168,0.0689,-31.875,9.375,-26.475,,adl
2.14924,0.0935,0.0327,-0.1036,0.084,0.0168,0.0689,-31.875,9.375,-26.475,,adl
2.14989,0.0805,0.0423,-0.0953,0.084,0.0168,0.0689,-31.875,9.375,-26.475,,adl
2.155068,0.0805,0.0423,-0.0953,0.084,0.0168,0.0689,-31.875,9.375,-26.475,,adl
2.1558,0.0714,0.0162,-0.0853,0.084,0.0168,0.0689,-31.875,9.375,-26.475,,adl
2.160198,0.0714,0.0162,-0.0853,0.084,0.0168,0.0689,-31.875,9.375,-26.475,,adl
2.161084,0.037,0.0283,-0.0794,0.084,0.0168,0.0689,-31.875,9.375,-26.475,,adl
2.165542,0.037,0.0283,-0.0794,0.084,0.0168,0.0689,-31.875,9.375,-26.475,,adl
2.166482,0.0289,-0.0051,-0.0565,0.084,0.0168,0.0689,-31.875,9.375,-26.475,,adl
2.167264,0.0289,-0.0051,-0.0565,0.084,0.0168,0.0689,-31.875,9.375,-26.475,,adl
2.167934,-0.012,-0.0144,-0.081,0.084,0.0168,0.0689,-31.875,9.375,-26.475,,adl
2.173733,-0.012,-0.0144,-0.081,0.084,0.0168,0.0689,-31.875,9.375,-26.475,,adl
2.174575,-0.0287,-0.0094,-0.1097,0.084,0.0168,0.0689,-31.875,9.375,-26.475,,adl
2.179437,-0.0287,-0.0094,-0.1097,0.084,0.0168,0.0689,-31.875,9.375,-26.475,,adl
2.180298,-0.0737,0.0005,-0.1616,0.084,0.0168,0.0689,-31.875,9.375,-26.475,,adl
2.184059,-0.0737,0.0005,-0.1616,0.084,0.0168,0.0689,-31.875,9.375,-26.475,,adl
2.184814,-0.1462,0.0199,-0.2212,0.084,0.0168,0.0689,-31.875,9.375,-26.475,,adl
2.18877,-0.1462,0.0199,-0.2212,0.084,0.0168,0.0689,-31.875,9.375,-26.475,,adl
2.189898,-0.2095,0.073,-0.2867,0.084,0.0168,0.0689,-31.875,9.375,-26.475,,adl
2.193999,-0.2095,0.073,-0.2867,0.084,0.0168,0.0689,-31.875,9.375,-26.475,,adl
2.194897,-0.2824,0.1263,-0.3117,0.084,0.0168,0.0689,-31.875,9.375,-26.475,,adl
2.198929,-0.2824,0.1263,-0.3117,0.0371,0.1035,0.0898,-31.875,9.375,-26.475,,adl
2.199758,-0.2824,0.1263,-0.3117,0.0371,0.1035,0.0898,-31.05,9.9,-26.325,,adl
2.20033,-0.2824,0.1263,-0.3117,0.0371,0.1035,0.0898,-31.05,9.9,-26.325,,adl
2.200825,-0.3665,0.1818,-0.3482,0.0371,0.1035,0.0898,-31.05,9.9,-26.325,,adl
2.201556,-0.3665,0.1818,-0.3482,0.0371,0.1035,0.0898,-31.05,9.9,-26.325,,adl
2.202102,-0.431,0.2515,-0.3366,0.0371,0.1035,0.0898,-31.05,9.9,-26.325,,adl
2.208525,-0.431,0.2515,-0.3366,0.0371,0.1035,0.0898,-31.05,9.9,-26.325,,adl
2.209599,-0.4763,0.264,-0.3384,0.0371,0.1035,0.0898,-31.05,9.9,-26.325,,adl
2.217086,-0.4763,0.264,-0.3384,0.0371,0.1035,0.0898,-31.05,9.9,-26.325,,adl
2.218964,-0.5135,0.2387,-0.3557,0.0371,0.1035,0.0898,-31.05,9.9,-26.325,,adl
2.220629,-0.5135,0.2387,-0.3557,0.0371,0.1035,0.0898,-31.05,9.9,-26.325,,adl
2.221314,-0.5477,0.2275,-0.3431,0.0371,0.1035,0.0898,-31.05,9.9,-26.325,,adl
2.222261,-0.5477,0.2275,-0.3431,0.0371,0.1035,0.0898,-31.05,9.9,-26.325,,adl
2.222862,-0.5789,0.2044,-0.3393,0.0371,0.1035,0.0898,-31.05,9.9,-26.325,,adl
2.230631,-0.5789,0.2044,-0.3393,0.0371,0.1035,0.0898,-31.05,9.9,-26.325,,adl
2.231521,-0.614,0.1814,-0.3205,0.0371,0.1035,0.0898,-31.05,9.9,-26.325,,adl
2.232279,-0.614,0.1814,-0.3205,0.0371,0.1035,0.0898,-31.05,9.9,-26.325,,adl
2.232857,-0.6387,0.1464,-0.2939,0.0371,0.1035,0.0898,-31.05,9.9,-26.325,,adl
2.237325,-0.6387,0.1464,-0.2939,0.0371,0.1035,0.0898,-31.05,9.9,-26.325,,adl
2.238054,-0.6359,0.0924,-0.2642,0.0371,0.1035,0.0898,-31.05,9.9,-26.325,,adl
2.242598,-0.6359,0.0924,-0.2642,0.0371,0.1035,0.0898,-31.05,9.9,-26.325,,adl
2.243259,-0.657,0.0218,-0.2858,0.0371,0.1035,0.0898,-31.05,9.9,-26.325,,adl
2.248949,-0.657,0.0218,-0.2858,0.0371,0.1035,0.0898,-31.05,9.9,-26.325,,adl
2.250267,-0.6759,-0.0328,-0.1354,0.0371,0.1035,0.0898,-31.05,9.9,-26.325,,adl
2.251217,-0.6759,-0.0328,-0.1354,0.0371,0.1035,0.0898,-31.05,9.9,-26.325,,adl
2.251942,-0.6005,-0.0989,-0.0051,0.0371,0.1035,0.0898,-31.05,9.9,-26.325,,adl
2.257189,-0.6005,-0.0989,-0.0051,0.0371,0.1035,0.0898,-31.05,9.9,-26.325,,adl
2.25805,-0.5256,-0.1358,-0.0389,0.0371,0.1035,0.0898,-31.05,9.9,-26.325,,adl
2.262799,-0.5256,-0.1358,-0.0389,0.0371,0.1035,0.0898,-31.05,9.9,-26.325,,adl
2.263703,-0.5237,-0.2005,-0.0741,0.0371,0.1035,0.0898,-31.05,9.9,-26.325,,adl
2.264565,-0.5237,-0.2005,-0.0741,-0.0956,0.048,0.1358,-31.05,9.9,-26.325,,adl
2.268499,-0.5237,-0.2005,-0.0741,-0.0956,0.048,0.1358,-31.05,9.9,-26.325,,adl
2.269335,-0.5182,-0.2637,-0.1144,-0.0956,0.048,0.1358,-31.05,9.9,-26.325,,adl
2.269979,-0.5182,-0.2637,-0.1144,-0.0956,0.048,0.1358,-30.9,9.975,-26.775,,adl
2.27727,-0.5182,-0.2637,-0.1144,-0.0956,0.048,0.1358,-30.9,9.975,-26.775,,adl
2.278256,-0.4821,-0.3036,-0.0359,-0.0956,0.048,0.1358,-30.9,9.975,-26.775,,adl
2.28417,-0.4821,-0.3036,-0.0359,-0.0956,0.048,0.1358,-30.9,9.975,-26.775,,adl
2.2859,-0.4793,-0.267,0.0116,-0.0956,0.048,0.1358,-30.9,9.975,-26.775,,adl
2.286927,-0.4793,-0.267,0.0116,-0.0956,0.048,0.1358,-30.9,9.975,-26.775,,adl
2.28764,-0.5089,-0.2286,0.0424,-0.0956,0.048,0.1358,-30.9,9.975,-26.775,,adl
2.291964,-0.5089,-0.2286,0.0424,-0.0956,0.048,0.1358,-30.9,9.975,-26.775,,adl
2.292997,-0.4796,-0.2105,0.1202,-0.0956,0.048,0.1358,-30.9,9.975,-26.775,,adl
2.295771,-0.4796,-0.2105,0.1202,-0.0956,0.048,0.1358,-30.9,9.975,-26.775,,adl
2.29669,-0.4972,-0.1811,0.1376,-0.0956,0.048,0.1358,-30.9,9.975,-26.775,,adl
2.302615,-0.4972,-0.1811,0.1376,-0.0956,0.048,0.1358,-30.9,9.975,-26.775,,adl
2.303549,-0.5236,-0.1427,0.1482,-0.0956,0.048,0.1358,-30.9,9.975,-26.775,,adl
2.304436,-0.5236,-0.1427,0.1482,-0.0956,0.048,0.1358,-30.9,9.975,-26.775,,adl
2.305207,-0.5474,-0.1126,0.2226,-0.0956,0.048,0.1358,-30.9,9.975,-26.775,,adl
2.310942,-0.5474,-0.1126,0.2226,-0.0956,0.048,0.1358,-30.9,9.975,-26.775,,adl
2.311718,-0.5844,-0.0786,0.3085,-0.0956,0.048,0.1358,-30.9,9.975,-26.775,,adl
2.316161,-0.5844,-0.0786,0.3085,-0.0956,0.048,0.1358,-30.9,9.975,-26.775,,adl
2.317117,-0.6306,-0.0762,0.419,-0.0956,0.048,0.1358,-30.9,9.975,-26.775,,adl
2.319997,-0.6306,-0.0762,0.419,-0.0956,0.048,0.1358,-30.9,9.975,-26.775,,adl
2.320702,-0.651,-0.0854,0.5003,-0.0956,0.048,0.1358,-30.9,9.975,-26.775,,adl
2.325173,-0.651,-0.0854,0.5003,-0.0956,0.048,0.1358,-30.9,9.975,-26.775,,adl
2.327351,-0.6715,-0.1115,0.569,-0.0956,0.048,0.1358,-30.9,9.975,-26.775,,adl
2.336131,-0.6715,-0.1115,0.569,-0.0956,0.048,0.1358,-30.9,9.975,-26.775,,adl
2.337463,-0.6591,-0.1253,0.63,-0.0956,0.048,0.1358,-30.9,9.975,-26.775,,adl
2.338604,-0.6591,-0.1253,0.63,-0.0956,0.048,0.1358,-30.9,9.975,-26.775,,adl
2.339594,-0.6755,-0.1494,0.6701,-0.0956,0.048,0.1358,-30.9,9.975,-26.775,,adl
2.340729,-0.6755,-0.1494,0.6701,-0.0956,0.048,0.1358,-31.275,9.75,-26.925,,adl
2.341637,-0.6755,-0.1494,0.6701,-0.1037,0.0174,0.1956,-31.275,9.75,-26.925,,adl
2.343211,-0.6755,-0.1494,0.6701,-0.1037,0.0174,0.1956,-31.275,9.75,-26.925,,adl
2.343759,-0.6889,-0.1519,0.6984,-0.1037,0.0174,0.1956,-31.275,9.75,-26.925,,adl
2.344372,-0.6889,-0.1519,0.6984,-0.1037,0.0174,0.1956,-31.275,9.75,-26.925,,adl
2.345012,-0.6657,-0.1733,0.6905,-0.1037,0.0174,0.1956,-31.275,9.75,-26.925,,adl
2.350939,-0.6657,-0.1733,0.6905,-0.1037,0.0174,0.1956,-31.275,9.75,-26.925,,adl
2.351609,-0.6513,-0.1806,0.6782,-0.1037,0.0174,0.1956,-31.275,9.75,-26.925,,adl
2.355366,-0.6513,-0.1806,0.6782,-0.1037,0.0174,0.1956,-31.275,9.75,-26.925,,adl
2.356089,-0.6293,-0.1973,0.649,-0.1037,0.0174,0.1956,-31.275,9.75,-26.925,,adl
2.359027,-0.6293,-0.1973,0.649,-0.1037,0.0174,0.1956,-31.275,9.75,-26.925,,adl
2.359602,-0.6069,-0.1951,0.6362,-0.1037,0.0174,0.1956,-31.275,9.75,-26.925,,adl
2.364795,-0.6069,-0.1951,0.6362,-0.1037,0.0174,0.1956,-31.275,9.75,-26.925,,adl
2.365655,-0.5778,-0.2,0.6255,-0.1037,0.0174,0.1956,-31.275,9.75,-26.925,,adl
2.369759,-0.5778,-0.2,0.6255,-0.1037,0.0174,0.1956,-31.275,9.75,-26.925,,adl
2.370413,-0.5448,-0.2242,0.5933,-0.1037,0.0174,0.1956,-31.275,9.75,-26.925,,adl
2.373818,-0.5448,-0.2242,0.5933,-0.1037,0.0174,0.1956,-31.275,9.75,-26.925,,adl
2.374446,-0.5434,-0.2411,0.5753,-0.1037,0.0174,0.1956,-31.275,9.75,-26.925,,adl
2.379648,-0.5434,-0.2411,0.5753,-0.1037,0.0174,0.1956,-31.275,9.75,-26.925,,adl
2.380267,-0.5494,-0.2295,0.5998,-0.1037,0.0174,0.1956,-31.275,9.75,-26.925,,adl
2.383768,-0.5494,-0.2295,0.5998,-0.1037,0.0174,0.1956,-31.275,9.75,-26.925,,adl
2.384432,-0.5881,-0.1914,0.6479,-0.1037,0.0174,0.1956,-31.275,9.75,-26.925,,adl
2.390507,-0.5881,-0.1914,0.6479,-0.1037,0.0174,0.1956,-31.275,9.75,-26.925,,adl
2.391119,-0.5873,-0.1441,0.6741,-0.1037,0.0174,0.1956,-31.275,9.75,-26.925,,adl
2.393143,-0.5873,-0.1441,0.6741,-0.1037,0.0174,0.1956,-31.275,9.75,-26.925,,adl
2.394082,-0.5761,-0.1132,0.5974,-0.1037,0.0174,0.1956,-31.275,9.75,-26.925,,adl
2.400865,-0.5761,-0.1132,0.5974,-0.1037,0.0174,0.1956,-31.275,9.75,-26.925,,adl
2.402005,-0.5404,-0.0587,0.4913,-0.1037,0.0174,0.1956,-31.275,9.75,-26.925,,adl
2.407421,-0.5404,-0.0587,0.4913,-0.1037,0.0174,0.1956,-31.275,9.75,-26.925,,adl
2.408396,-0.4966,0.0029,0.4184,-0.1037,0.0174,0.1956,-31.275,9.75,-26.925,,adl
2.40932,-0.4966,0.0029,0.4184,0.0467,0.135,0.1469,-31.275,9.75,-26.925,,adl
2.410048,-0.4966,0.0029,0.4184,0.0467,0.135,0.1469,-31.275,9.75,-26.925,,adl
2.410682,-0.4322,0.0693,0.4079,0.0467,0.135,0.1469,-31.275,9.75,-26.925,,adl
2.411471,-0.4322,0.0693,0.4079,0.0467,0.135,0.1469,-30.75,11.1,-26.925,,adl
2.412161,-0.4322,0.0693,0.4079,0.0467,0.135,0.1469,-30.75,11.1,-26.925,,adl
2.412776,-0.3929,0.131,0.4689,0.0467,0.135,0.1469,-30.75,11.1,-26.925,,adl
2.422925,-0.3929,0.131,0.4689,0.0467,0.135,0.1469,-30.75,11.1,-26.925,,adl
2.42395,-0.3724,0.207,0.5183,0.0467,0.135,0.1469,-30.75,11.1,-26.925,,adl
2.424741,-0.3724,0.207,0.5183,0.0467,0.135,0.1469,-30.75,11.1,-26.925,,adl
2.425408,-0.3426,0.2568,0.5969,0.0467,0.135,0.1469,-30.75,11.1,-26.925,,adl
2.428681,-0.3426,0.2568,0.5969,0.0467,0.135,0.1469,-30.75,11.1,-26.925,,adl
2.429468,-0.3422,0.2541,0.6416,0.0467,0.135,0.1469,-30.75,11.1,-26.925,,adl
2.433399,-0.3422,0.2541,0.6416,0.0467,0.135,0.1469,-30.75,11.1,-26.925,,adl
2.4343,-0.3656,0.239,0.6548,0.0467,0.135,0.1469,-30.75,11.1,-26.925,,adl
2.437126,-0.3656,0.239,0.6548,0.0467,0.135,0.1469,-30.75,11.1,-26.925,,adl
2.437703,-0.379,0.2049,0.5964,0.0467,0.135,0.1469,-30.75,11.1,-26.925,,adl
2.443271,-0.379,0.2049,0.5964,0.0467,0.135,0.1469,-30.75,11.1,-26.925,,adl
2.444021,-0.3989,0.1493,0.5544,0.0467,0.135,0.1469,-30.75,11.1,-26.925,,adl
2.450405,-0.3989,0.1493,0.5544,0.0467,0.135,0.1469,-30.75,11.1,-26.925,,adl
2.451358,-0.4033,0.0935,0.547,0.0467,0.135,0.1469,-30.75,11.1,-26.925,,adl
2.452132,-0.4033,0.0935,0.547,0.0467,0.135,0.1469,-30.75,11.1,-26.925,,adl
2.454125,-0.4347,0.0544,0.5525,0.0467,0.135,0.1469,-30.75,11.1,-26.925,,adl
2.459266,-0.4347,0.0544,0.5525,0.0467,0.135,0.1469,-30.75,11.1,-26.925,,adl
2.46018,-0.4267,0.0368,0.6044,0.0467,0.135,0.1469,-30.75,11.1,-26.925,,adl
2.461036,-0.4267,0.0368,0.6044,0.0467,0.135,0.1469,-30.75,11.1,-26.925,,adl
2.461795,-0.4369,0.0527,0.584,0.0467,0.135,0.1469,-30.75,11.1,-26.925,,adl
2.467766,-0.4369,0.0527,0.584,0.0467,0.135,0.1469,-30.75,11.1,-26.925,,adl
2.468692,-0.4176,0.0663,0.5878,0.0467,0.135,0.1469,-30.75,11.1,-26.925,,adl
2.472404,-0.4176,0.0663,0.5878,0.0467,0.135,0.1469,-30.75,11.1,-26.925,,adl
2.473283,-0.3671,0.0942,0.5827,0.0467,0.135,0.1469,-30.75,11.1,-26.925,,adl
2.473952,-0.3671,0.0942,0.5827,0.0467,0.135,0.1469,-30.6,11.25,-27.825,,adl
2.474924,-0.3671,0.0942,0.5827,0.0449,0.2511,0.0874,-30.6,11.25,-27.825,,adl
2.475603,-0.3671,0.0942,0.5827,0.0449,0.2511,0.0874,-30.6,11.25,-27.825,,adl
2.47633,-0.3235,0.1365,0.587,0.0449,0.2511,0.0874,-30.6,11.25,-27.825,,adl
2.482269,-0.3235,0.1365,0.587,0.0449,0.2511,0.0874,-30.6,11.25,-27.825,,adl
2.483092,-0.313,0.1718,0.5428,0.0449,0.2511,0.0874,-30.6,11.25,-27.825,,adl
2.487569,-0.313,0.1718,0.5428,0.0449,0.2511,0.0874,-30.6,11.25,-27.825,,adl
2.488237,-0.2888,0.2408,0.5005,0.0449,0.2511,0.0874,-30.6,11.25,-27.825,,adl
2.492174,-0.2888,0.2408,0.5005,0.0449,0.2511,0.0874,-30.6,11.25,-27.825,,adl
2.492869,-0.282,0.3003,0.4422,0.0449,0.2511,0.0874,-30.6,11.25,-27.825,,adl
2.498436,-0.282,0.3003,0.4422,0.0449,0.2511,0.0874,-30.6,11.25,-27.825,,adl
2.499581,-0.244,0.336,0.3653,0.0449,0.2511,0.0874,-30.6,11.25,-27.825,,adl
2.504407,-0.244,0.336,0.3653,0.0449,0.2511,0.0874,-30.6,11.25,-27.825,,adl
2.506348,-0.2496,0.3814,0.3177,0.0449,0.2511,0.0874,-30.6,11.25,-27.825,,adl
2.50958,-0.2496,0.3814,0.3177,0.0449,0.2511,0.0874,-30.6,11.25,-27.825,,adl
2.510454,-0.2601,0.4511,0.3144,0.0449,0.2511,0.0874,-30.6,11.25,-27.825,,adl
2.511333,-0.2601,0.4511,0.3144,0.0449,0.2511,0.0874,-30.6,11.25,-27.825,,adl
2.511992,-0.2897,0.4726,0.2831,0.0449,0.2511,0.0874,-30.6,11.25,-27.825,,adl
2.518646,-0.2897,0.4726,0.2831,0.0449,0.2511,0.0874,-30.6,11.25,-27.825,,adl
2.519711,-0.3073,0.506,0.2959,0.0449,0.2511,0.0874,-30.6,11.25,-27.825,,adl
2.527515,-0.3073,0.506,0.2959,0.0449,0.2511,0.0874,-30.6,11.25,-27.825,,adl
2.528511,-0.3132,0.5183,0.2972,0.0449,0.2511,0.0874,-30.6,11.25,-27.825,,adl
2.533325,-0.3132,0.5183,0.2972,0.0449,0.2511,0.0874,-30.6,11.25,-27.825,,adl
2.534418,-0.3118,0.5017,0.3084,0.0449,0.2511,0.0874,-30.6,11.25,-27.825,,adl
2.535324,-0.3118,0.5017,0.3084,0.0449,0.2511,0.0874,-30.6,11.25,-27.825,,adl
2.536034,-0.2962,0.4828,0.3318,0.0449,0.2511,0.0874,-30.6,11.25,-27.825,,adl
2.540665,-0.2962,0.4828,0.3318,0.0449,0.2511,0.0874,-30.6,11.25,-27.825,,adl
2.541658,-0.3016,0.4443,0.3226,0.0449,0.2511,0.0874,-30.6,11.25,-27.825,,adl
2.547887,-0.3016,0.4443,0.3226,0.0449,0.2511,0.0874,-30.6,11.25,-27.825,,adl
2.548833,-0.3315,0.4233,0.3622,0.0449,0.2511,0.0874,-30.6,11.25,-27.825,,adl
2.549727,-0.3315,0.4233,0.3622,0.0449,0.2511,0.0874,-29.85,11.1,-28.725,,adl
2.550348,-0.3315,0.4233,0.3622,-0.0715,0.3972,0.0753,-29.85,11.1,-28.725,,adl
2.551047,-0.3315,0.4233,0.3622,-0.0715,0.3972,0.0753,-29.85,11.1,-28.725,,adl
2.551614,-0.3094,0.3921,0.3537,-0.0715,0.3972,0.0753,-29.85,11.1,-28.725,,adl
2.556682,-0.3094,0.3921,0.3537,-0.0715,0.3972,0.0753,-29.85,11.1,-28.725,,adl
2.557487,-0.3171,0.3444,0.3512,-0.0715,0.3972,0.0753,-29.85,11.1,-28.725,,adl
2.559467,-0.3171,0.3444,0.3512,-0.0715,0.3972,0.0753,-29.85,11.1,-28.725,,adl
2.560021,-0.3366,0.3182,0.3676,-0.0715,0.3972,0.0753,-29.85,11.1,-28.725,,adl
2.565259,-0.3366,0.3182,0.3676,-0.0715,0.3972,0.0753,-29.85,11.1,-28.725,,adl
2.565983,-0.3539,0.3399,0.3724,-0.0715,0.3972,0.0753,-29.85,11.1,-28.725,,adl
2.571365,-0.3539,0.3399,0.3724,-0.0715,0.3972,0.0753,-29.85,11.1,-28.725,,adl
2.572208,-0.342,0.3564,0.3483,-0.0715,0.3972,0.0753,-29.85,11.1,-28.725,,adl
2.576873,-0.342,0.3564,0.3483,-0.0715,0.3972,0.0753,-29.85,11.1,-28.725,,adl
2.579009,-0.3284,0.3781,0.3584,-0.0715,0.3972,0.0753,-29.85,11.1,-28.725,,adl
2.580098,-0.3284,0.3781,0.3584,-0.0715,0.3972,0.0753,-29.85,11.1,-28.725,,adl
2.581,-0.3246,0.3783,0.3736,-0.0715,0.3972,0.0753,-29.85,11.1,-28.725,,adl
2.591124,-0.3246,0.3783,0.3736,-0.0715,0.3972,0.0753,-29.85,11.1,-28.725,,adl
2.592073,-0.3287,0.3646,0.3981,-0.0715,0.3972,0.0753,-29.85,11.1,-28.725,,adl
2.592812,-0.3287,0.3646,0.3981,-0.0715,0.3972,0.0753,-29.85,11.1,-28.725,,adl
2.593477,-0.3249,0.3409,0.4756,-0.0715,0.3972,0.0753,-29.85,11.1,-28.725,,adl
2.594341,-0.3249,0.3409,0.4756,-0.0715,0.3972,0.0753,-29.85,11.1,-28.725,,adl
2.594981,-0.326,0.3195,0.522,-0.0715,0.3972,0.0753,-29.85,11.1,-28.725,,adl
2.601622,-0.326,0.3195,0.522,-0.0715,0.3972,0.0753,-29.85,11.1,-28.725,,adl
2.602581,-0.3081,0.3197,0.5464,-0.0715,0.3972,0.0753,-29.85,11.1,-28.725,,adl
2.603298,-0.3081,0.3197,0.5464,-0.0715,0.3972,0.0753,-29.85,11.1,-28.725,,adl
2.603883,-0.2811,0.3007,0.5086,-0.0715,0.3972,0.0753,-29.85,11.1,-28.725,,adl
2.609624,-0.2811,0.3007,0.5086,-0.0715,0.3972,0.0753,-29.85,11.1,-28.725,,adl
2.610394,-0.264,0.332,0.5051,-0.0715,0.3972,0.0753,-29.85,11.1,-28.725,,adl
2.615926,-0.264,0.332,0.5051,-0.0715,0.3972,0.0753,-29.85,11.1,-28.725,,adl
2.617003,-0.2668,0.3365,0.4656,-0.0715,0.3972,0.0753,-29.85,11.1,-28.725,,adl
2.617837,-0.2668,0.3365,0.4656,-0.0715,0.3972,0.0753,-28.2,10.725,-29.025,,adl
2.618441,-0.2668,0.3365,0.4656,-0.1666,0.5316,0.0483,-28.2,10.725,-29.025,,adl
2.619077,-0.2668,0.3365,0.4656,-0.1666,0.5316,0.0483,-28.2,10.725,-29.025,,adl
2.61964,-0.2341,0.3494,0.3625,-0.1666,0.5316,0.0483,-28.2,10.725,-29.025,,adl
2.624278,-0.2341,0.3494,0.3625,-0.1666,0.5316,0.0483,-28.2,10.725,-29.025,,adl
2.62512,-0.2254,0.364,0.3459,-0.1666,0.5316,0.0483,-28.2,10.725,-29.025,,adl
2.628097,-0.2254,0.364,0.3459,-0.1666,0.5316,0.0483,-28.2,10.725,-29.025,,adl
2.628814,-0.2645,0.3786,0.4477,-0.1666,0.5316,0.0483,-28.2,10.725,-29.025,,adl
2.633548,-0.2645,0.3786,0.4477,-0.1666,0.5316,0.0483,-28.2,10.725,-29.025,,adl
2.634411,-0.2509,0.3951,0.4256,-0.1666,0.5316,0.0483,-28.2,10.725,-29.025,,adl
2.638987,-0.2509,0.3951,0.4256,-0.1666,0.5316,0.0483,-28.2,10.725,-29.025,,adl
2.639775,-0.3193,0.403,0.5768,-0.1666,0.5316,0.0483,-28.2,10.725,-29.025,,adl
2.644295,-0.3193,0.403,0.5768,-0.1666,0.5316,0.0483,-28.2,10.725,-29.025,,adl
2.645265,-0.3795,0.3696,0.7492,-0.1666,0.5316,0.0483,-28.2,10.725,-29.025,,adl
2.654277,-0.3795,0.3696,0.7492,-0.1666,0.5316,0.0483,-28.2,10.725,-29.025,,adl
2.655289,-0.3296,0.3002,0.865,-0.1666,0.5316,0.0483,-28.2,10.725,-29.025,,adl
2.656081,-0.3296,0.3002,0.865,-0.1666,0.5316,0.0483,-28.2,10.725,-29.025,,adl
2.656711,-0.2841,0.2161,1.101,-0.1666,0.5316,0.0483,-28.2,10.725,-29.025,,adl
2.657514,-0.2841,0.2161,1.101,-0.1666,0.5316,0.0483,-28.2,10.725,-29.025,,adl
2.6581,-0.3104,0.1552,1.1639,-0.1666,0.5316,0.0483,-28.2,10.725,-29.025,,adl
2.662726,-0.3104,0.1552,1.1639,-0.1666,0.5316,0.0483,-28.2,10.725,-29.025,,adl
2.663493,-0.3054,0.1597,0.8359,-0.1666,0.5316,0.0483,-28.2,10.725,-29.025,,adl
2.66819,-0.3054,0.1597,0.8359,-0.1666,0.5316,0.0483,-28.2,10.725,-29.025,,adl
2.669061,-0.2305,0.1932,0.5944,-0.1666,0.5316,0.0483,-28.2,10.725,-29.025,,adl
2.673215,-0.2305,0.1932,0.5944,-0.1666,0.5316,0.0483,-28.2,10.725,-29.025,,adl
2.674026,-0.1828,0.2053,0.5238,-0.1666,0.5316,0.0483,-28.2,10.725,-29.025,,adl
2.680718,-0.1828,0.2053,0.5238,-0.1666,0.5316,0.0483,-28.2,10.725,-29.025,,adl
2.681761,-0.1524,0.2438,0.4571,-0.1666,0.5316,0.0483,-28.2,10.725,-29.025,,adl
2.68258,-0.1524,0.2438,0.4571,-0.1666,0.5316,0.0483,-27.9,11.625,-29.475,,adl
2.683411,-0.1524,0.2438,0.4571,-0.1666,0.5316,0.0483,-27.9,11.625,-29.475,,adl
2.684081,-0.1281,0.2849,0.3523,-0.1666,0.5316,0.0483,-27.9,11.625,-29.475,,adl
2.688929,-0.1281,0.2849,0.3523,-0.1791,0.5379,-0.0037,-27.9,11.625,-29.475,,adl
2.690062,-0.1281,0.2849,0.3523,-0.1791,0.5379,-0.0037,-27.9,11.625,-29.475,,adl
2.690697,-0.199,0.3594,0.2499,-0.1791,0.5379,-0.0037,-27.9,11.625,-29.475,,adl
2.691538,-0.199,0.3594,0.2499,-0.1791,0.5379,-0.0037,-27.9,11.625,-29.475,,adl
2.692205,-0.2439,0.4296,0.2726,-0.1791,0.5379,-0.0037,-27.9,11.625,-29.475,,adl
2.699907,-0.2439,0.4296,0.2726,-0.1791,0.5379,-0.0037,-27.9,11.625,-29.475,,adl
2.701882,-0.265,0.4516,0.4056,-0.1791,0.5379,-0.0037,-27.9,11.625,-29.475,,adl
2.703123,-0.265,0.4516,0.4056,-0.1791,0.5379,-0.0037,-27.9,11.625,-29.475,,adl
2.704122,-0.2767,0.4328,0.6075,-0.1791,0.5379,-0.0037,-27.9,11.625,-29.475,,adl
2.705366,-0.2767,0.4328,0.6075,-0.1791,0.5379,-0.0037,-27.9,11.625,-29.475,,adl
2.706206,-0.2716,0.3467,0.7618,-0.1791,0.5379,-0.0037,-27.9,11.625,-29.475,,adl
2.71377,-0.2716,0.3467,0.7618,-0.1791,0.5379,-0.0037,-27.9,11.625,-29.475,,adl
2.715104,-0.2497,0.2296,0.8058,-0.1791,0.5379,-0.0037,-27.9,11.625,-29.475,,adl
2.715861,-0.2497,0.2296,0.8058,-0.1791,0.5379,-0.0037,-27.9,11.625,-29.475,,adl
2.716493,-0.218,0.1476,0.7528,-0.1791,0.5379,-0.0037,-27.9,11.625,-29.475,,adl
2.724752,-0.218,0.1476,0.7528,-0.1791,0.5379,-0.0037,-27.9,11.625,-29.475,,adl
2.725641,-0.2285,0.0763,0.673,-0.1791,0.5379,-0.0037,-27.9,11.625,-29.475,,adl
2.726306,-0.2285,0.0763,0.673,-0.1791,0.5379,-0.0037,-27.9,11.625,-29.475,,adl
2.726833,-0.2134,0.0763,0.6053,-0.1791,0.5379,-0.0037,-27.9,11.625,-29.475,,adl
2.732187,-0.2134,0.0763,0.6053,-0.1791,0.5379,-0.0037,-27.9,11.625,-29.475,,adl
2.733122,-0.23,0.1075,0.5289,-0.1791,0.5379,-0.0037,-27.9,11.625,-29.475,,adl
2.735786,-0.23,0.1075,0.5289,-0.1791,0.5379,-0.0037,-27.9,11.625,-29.475,,adl
2.736652,-0.1965,0.1263,0.4351,-0.1791,0.5379,-0.0037,-27.9,11.625,-29.475,,adl
2.740571,-0.1965,0.1263,0.4351,-0.1791,0.5379,-0.0037,-27.9,11.625,-29.475,,adl
2.741377,-0.1786,0.1458,0.3501,-0.1791,0.5379,-0.0037,-27.9,11.625,-29.475,,adl
2.746482,-0.1786,0.1458,0.3501,-0.1791,0.5379,-0.0037,-27.9,11.625,-29.475,,adl
2.747406,-0.179,0.1493,0.2596,-0.1791,0.5379,-0.0037,-27.9,11.625,-29.475,,adl
2.753453,-0.179,0.1493,0.2596,-0.1791,0.5379,-0.0037,-27.9,11.625,-29.475,,adl
2.754382,-0.1654,0.1731,0.1859,-0.1791,0.5379,-0.0037,-27.9,11.625,-29.475,,adl
2.755019,-0.1654,0.1731,0.1859,-0.1791,0.5379,-0.0037,-26.175,11.85,-31.8,,adl
2.755577,-0.1654,0.1731,0.1859,-0.1987,0.496,-0.075,-26.175,11.85,-31.8,,adl
2.756167,-0.1654,0.1731,0.1859,-0.1987,0.496,-0.075,-26.175,11.85,-31.8,,adl
2.756668,-0.1821,0.1863,0.1756,-0.1987,0.496,-0.075,-26.175,11.85,-31.8,,adl
2.759588,-0.1821,0.1863,0.1756,-0.1987,0.496,-0.075,-26.175,11.85,-31.8,,adl
2.760217,-0.1945,0.1622,0.1809,-0.1987,0.496,-0.075,-26.175,11.85,-31.8,,adl
2.767325,-0.1945,0.1622,0.1809,-0.1987,0.496,-0.075,-26.175,11.85,-31.8,,adl
2.768046,-0.2048,0.1011,0.218,-0.1987,0.496,-0.075,-26.175,11.85,-31.8,,adl
2.775677,-0.2048,0.1011,0.218,-0.1987,0.496,-0.075,-26.175,11.85,-31.8,,adl
2.77627,-0.2347,-0.0564,0.2576,-0.1987,0.496,-0.075,-26.175,11.85,-31.8,,adl
2.782102,-0.2347,-0.0564,0.2576,-0.1987,0.496,-0.075,-26.175,11.85,-31.8,,adl
2.783268,-0.2585,-0.1236,0.3048,-0.1987,0.496,-0.075,-26.175,11.85,-31.8,,adl
2.784119,-0.2585,-0.1236,0.3048,-0.1987,0.496,-0.075,-26.175,11.85,-31.8,,adl
2.78479,-0.2751,-0.1659,0.3179,-0.1987,0.496,-0.075,-26.175,11.85,-31.8,,adl
2.789475,-0.2751,-0.1659,0.3179,-0.1987,0.496,-0.075,-26.175,11.85,-31.8,,adl
2.790298,-0.2757,-0.1967,0.3244,-0.1987,0.496,-0.075,-26.175,11.85,-31.8,,adl
2.794928,-0.2757,-0.1967,0.3244,-0.1987,0.496,-0.075,-26.175,11.85,-31.8,,adl
2.795952,-0.2696,-0.1891,0.3064,-0.1987,0.496,-0.075,-26.175,11.85,-31.8,,adl
2.803666,-0.2696,-0.1891,0.3064,-0.1987,0.496,-0.075,-26.175,11.85,-31.8,,adl
2.804647,-0.297,-0.1911,0.269,-0.1987,0.496,-0.075,-26.175,11.85,-31.8,,adl
2.805582,-0.297,-0.1911,0.269,-0.1987,0.496,-0.075,-26.175,11.85,-31.8,,adl
2.806239,-0.3671,-0.1597,0.2668,-0.1987,0.496,-0.075,-26.175,11.85,-31.8,,adl
2.809713,-0.3671,-0.1597,0.2668,-0.1987,0.496,-0.075,-26.175,11.85,-31.8,,adl
2.81058,-0.3897,-0.1333,0.2572,-0.1987,0.496,-0.075,-26.175,11.85,-31.8,,adl
2.81503,-0.3897,-0.1333,0.2572,-0.1987,0.496,-0.075,-26.175,11.85,-31.8,,adl
2.815931,-0.4584,-0.0824,0.2678,-0.1987,0.496,-0.075,-26.175,11.85,-31.8,,adl
2.819162,-0.4584,-0.0824,0.2678,-0.1987,0.496,-0.075,-26.175,11.85,-31.8,,adl
2.819933,-0.5293,-0.0655,0.2661,-0.1987,0.496,-0.075,-26.175,11.85,-31.8,,adl
2.823474,-0.5293,-0.0655,0.2661,-0.1987,0.496,-0.075,-25.95,12.3,-31.875,,adl
2.824282,-0.5293,-0.0655,0.2661,-0.1987,0.496,-0.075,-25.95,12.3,-31.875,,adl
2.825001,-0.6281,-0.0367,0.2794,-0.1987,0.496,-0.075,-25.95,12.3,-31.875,,adl
2.827965,-0.6281,-0.0367,0.2794,-0.1122,0.4502,-0.1776,-25.95,12.3,-31.875,,adl
2.829518,-0.6281,-0.0367,0.2794,-0.1122,0.4502,-0.1776,-25.95,12.3,-31.875,,adl
2.830674,-0.7047,-0.0634,0.3119,-0.1122,0.4502,-0.1776,-25.95,12.3,-31.875,,adl
2.837009,-0.7047,-0.0634,0.3119,-0.1122,0.4502,-0.1776,-25.95,12.3,-31.875,,adl
2.838102,-0.7987,-0.0964,0.3679,-0.1122,0.4502,-0.1776,-25.95,12.3,-31.875,,adl
2.839091,-0.7987,-0.0964,0.3679,-0.1122,0.4502,-0.1776,-25.95,12.3,-31.875,,adl
2.839942,-0.8551,-0.1804,0.4185,-0.1122,0.4502,-0.1776,-25.95,12.3,-31.875,,adl
2.844537,-0.8551,-0.1804,0.4185,-0.1122,0.4502,-0.1776,-25.95,12.3,-31.875,,adl
2.845549,-0.8508,-0.3264,0.4852,-0.1122,0.4502,-0.1776,-25.95,12.3,-31.875,,adl
2.850675,-0.8508,-0.3264,0.4852,-0.1122,0.4502,-0.1776,-25.95,12.3,-31.875,,adl
2.851504,-0.7834,-0.5225,0.5344,-0.1122,0.4502,-0.1776,-25.95,12.3,-31.875,,adl
2.852168,-0.7834,-0.5225,0.5344,-0.1122,0.4502,-0.1776,-25.95,12.3,-31.875,,adl
2.852688,-0.6123,-0.8984,0.4923,-0.1122,0.4502,-0.1776,-25.95,12.3,-31.875,,adl
2.857891,-0.6123,-0.8984,0.4923,-0.1122,0.4502,-0.1776,-25.95,12.3,-31.875,,adl
2.858656,-0.288,-1.5901,0.1268,-0.1122,0.4502,-0.1776,-25.95,12.3,-31.875,,adl
2.865432,-0.288,-1.5901,0.1268,-0.1122,0.4502,-0.1776,-25.95,12.3,-31.875,,adl
2.866234,-0.0841,-2.3154,-0.2667,-0.1122,0.4502,-0.1776,-25.95,12.3,-31.875,,adl
2.867005,-0.0841,-2.3154,-0.2667,-0.1122,0.4502,-0.1776,-25.95,12.3,-31.875,,adl
2.867619,-0.1735,-2.5812,-0.549,-0.1122,0.4502,-0.1776,-25.95,12.3,-31.875,,adl
2.873723,-0.1735,-2.5812,-0.549,-0.1122,0.4502,-0.1776,-25.95,12.3,-31.875,,adl
2.874655,-0.4923,-2.1981,-0.3006,-0.1122,0.4502,-0.1776,-25.95,12.3,-31.875,,adl
2.879921,-0.4923,-2.1981,-0.3006,-0.1122,0.4502,-0.1776,-25.95,12.3,-31.875,,adl
2.881075,-0.6705,-1.5949,0.1088,-0.1122,0.4502,-0.1776,-25.95,12.3,-31.875,,adl
2.882069,-0.6705,-1.5949,0.1088,-0.1122,0.4502,-0.1776,-25.95,12.3,-31.875,,adl
2.882651,-0.6187,-1.2769,0.3581,-0.1122,0.4502,-0.1776,-25.95,12.3,-31.875,,adl
2.887599,-0.6187,-1.2769,0.3581,-0.1122,0.4502,-0.1776,-25.95,12.3,-31.875,,adl
2.888363,-0.3284,-1.3416,0.4457,-0.1122,0.4502,-0.1776,-25.95,12.3,-31.875,,adl
2.891752,-0.3284,-1.3416,0.4457,-0.1122,0.4502,-0.1776,-25.95,12.3,-31.875,,adl
2.892378,0.004,-1.6384,0.4391,-0.1122,0.4502,-0.1776,-25.95,12.3,-31.875,,adl
2.893003,0.004,-1.6384,0.4391,-0.1122,0.4502,-0.1776,-24.6,11.85,-32.85,,adl
2.897585,0.004,-1.6384,0.4391,-0.1122,0.4502,-0.1776,-24.6,11.85,-32.85,,adl
2.898339,0.1421,-1.9283,0.2601,-0.1122,0.4502,-0.1776,-24.6,11.85,-32.85,,adl
2.898983,0.1421,-1.9283,0.2601,0.0942,0.2127,-0.2275,-24.6,11.85,-32.85,,adl
2.901813,0.1421,-1.9283,0.2601,0.0942,0.2127,-0.2275,-24.6,11.85,-32.85,,adl
2.902458,0.0827,-2.1584,-0.1539,0.0942,0.2127,-0.2275,-24.6,11.85,-32.85,,adl
2.912204,0.0827,-2.1584,-0.1539,0.0942,0.2127,-0.2275,-24.6,11.85,-32.85,,adl
2.913189,-0.1137,-2.3502,-0.705,0.0942,0.2127,-0.2275,-24.6,11.85,-32.85,,adl
2.914064,-0.1137,-2.3502,-0.705,0.0942,0.2127,-0.2275,-24.6,11.85,-32.85,,adl
2.914744,-0.4365,-2.4772,-1.1464,0.0942,0.2127,-0.2275,-24.6,11.85,-32.85,,adl
2.915581,-0.4365,-2.4772,-1.1464,0.0942,0.2127,-0.2275,-24.6,11.85,-32.85,,adl
2.916249,-0.7598,-2.4679,-1.3666,0.0942,0.2127,-0.2275,-24.6,11.85,-32.85,,adl
2.923235,-0.7598,-2.4679,-1.3666,0.0942,0.2127,-0.2275,-24.6,11.85,-32.85,,adl
2.924138,-1.0445,-2.2359,-1.2298,0.0942,0.2127,-0.2275,-24.6,11.85,-32.85,,adl
2.927119,-1.0445,-2.2359,-1.2298,0.0942,0.2127,-0.2275,-24.6,11.85,-32.85,,adl
2.927875,-1.1637,-1.8368,-0.9174,0.0942,0.2127,-0.2275,-24.6,11.85,-32.85,,adl
2.932773,-1.1637,-1.8368,-0.9174,0.0942,0.2127,-0.2275,-24.6,11.85,-32.85,,adl
2.933661,-1.0106,-1.4249,-0.5641,0.0942,0.2127,-0.2275,-24.6,11.85,-32.85,,adl
2.936635,-1.0106,-1.4249,-0.5641,0.0942,0.2127,-0.2275,-24.6,11.85,-32.85,,adl
2.937395,-0.7399,-1.0565,-0.3323,0.0942,0.2127,-0.2275,-24.6,11.85,-32.85,,adl
2.940784,-0.7399,-1.0565,-0.3323,0.0942,0.2127,-0.2275,-24.6,11.85,-32.85,,adl
2.941665,-0.4358,-0.7504,-0.1899,0.0942,0.2127,-0.2275,-24.6,11.85,-32.85,,adl
2.94932,-0.4358,-0.7504,-0.1899,0.0942,0.2127,-0.2275,-24.6,11.85,-32.85,,adl
2.950697,-0.2295,-0.4918,-0.1886,0.0942,0.2127,-0.2275,-24.6,11.85,-32.85,,adl
2.951683,-0.2295,-0.4918,-0.1886,0.0942,0.2127,-0.2275,-24.6,11.85,-32.85,,adl
2.952517,-0.1263,-0.2527,-0.256,0.0942,0.2127,-0.2275,-24.6,11.85,-32.85,,adl
2.956953,-0.1263,-0.2527,-0.256,0.0942,0.2127,-0.2275,-24.6,11.85,-32.85,,adl
2.957792,-0.0847,-0.0369,-0.3509,0.0942,0.2127,-0.2275,-24.6,11.85,-32.85,,adl
2.96206,-0.0847,-0.0369,-0.3509,0.0942,0.2127,-0.2275,-24.6,11.85,-32.85,,adl
2.962949,-0.0483,0.1643,-0.4114,0.0942,0.2127,-0.2275,-24.6,11.85,-32.85,,adl
2.963687,-0.0483,0.1643,-0.4114,0.0942,0.2127,-0.2275,-24.45,10.875,-32.85,,adl
2.966733,-0.0483,0.1643,-0.4114,0.1523,-0.0883,-0.1665,-24.45,10.875,-32.85,,adl
2.967546,-0.0483,0.1643,-0.4114,0.1523,-0.0883,-0.1665,-24.45,10.875,-32.85,,adl
2.968052,-0.0274,0.3841,-0.4667,0.1523,-0.0883,-0.1665,-24.45,10.875,-32.85,,adl
2.970952,-0.0274,0.3841,-0.4667,0.1523,-0.0883,-0.1665,-24.45,10.875,-32.85,,adl
2.971593,-0.0049,0.59,-0.49,0.1523,-0.0883,-0.1665,-24.45,10.875,-32.85,,adl
2.976472,-0.0049,0.59,-0.49,0.1523,-0.0883,-0.1665,-24.45,10.875,-32.85,,adl
2.977167,0.0261,0.8174,-0.4669,0.1523,-0.0883,-0.1665,-24.45,10.875,-32.85,,adl
2.982303,0.0261,0.8174,-0.4669,0.1523,-0.0883,-0.1665,-24.45,10.875,-32.85,,adl
2.983087,0.0364,1.0563,-0.4911,0.1523,-0.0883,-0.1665,-24.45,10.875,-32.85,,adl
2.985303,0.0364,1.0563,-0.4911,0.1523,-0.0883,-0.1665,-24.45,10.875,-32.85,,adl
2.985998,0.0483,1.286,-0.5069,0.1523,-0.0883,-0.1665,-24.45,10.875,-32.85,,adl
2.992412,0.0483,1.286,-0.5069,0.1523,-0.0883,-0.1665,-24.45,10.875,-32.85,,adl
2.993183,0.0002,1.5054,-0.5875,0.1523,-0.0883,-0.1665,-24.45,10.875,-32.85,,adl
2.994071,0.0002,1.5054,-0.5875,0.1523,-0.0883,-0.1665,-24.45,10.875,-32.85,,adl
2.994744,-0.0404,1.6469,-0.6468,0.1523,-0.0883,-0.1665,-24.45,10.875,-32.85,,adl
3.004929,-0.0404,1.6469,-0.6468,0.1523,-0.0883,-0.1665,-24.45,10.875,-32.85,,adl
3.005804,-0.0827,1.7203,-0.7704,0.1523,-0.0883,-0.1665,-24.45,10.875,-32.85,,adl
3.006485,-0.0827,1.7203,-0.7704,0.1523,-0.0883,-0.1665,-24.45,10.875,-32.85,,adl
3.007092,-0.1104,1.7606,-0.9271,0.1523,-0.0883,-0.1665,-24.45,10.875,-32.85,,adl
3.010139,-0.1104,1.7606,-0.9271,0.1523,-0.0883,-0.1665,-24.45,10.875,-32.85,,adl
3.010938,-0.1246,1.7415,-1.0811,0.1523,-0.0883,-0.1665,-24.45,10.875,-32.85,,adl
3.016331,-0.1246,1.7415,-1.0811,0.1523,-0.0883,-0.1665,-24.45,10.875,-32.85,,adl
3.017353,-0.1114,1.7269,-1.2228,0.1523,-0.0883,-0.1665,-24.45,10.875,-32.85,,adl
3.018113,-0.1114,1.7269,-1.2228,0.1523,-0.0883,-0.1665,-24.45,10.875,-32.85,,adl
3.018702,-0.117,1.7242,-1.3371,0.1523,-0.0883,-0.1665,-24.45,10.875,-32.85,,adl
3.025316,-0.117,1.7242,-1.3371,0.1523,-0.0883,-0.1665,-24.45,10.875,-32.85,,adl
3.026224,-0.0872,1.7142,-1.4309,0.1523,-0.0883,-0.1665,-24.45,10.875,-32.85,,adl
3.031534,-0.0872,1.7142,-1.4309,0.1523,-0.0883,-0.1665,-24.45,10.875,-32.85,,adl
3.032538,-0.0492,1.6973,-1.4922,0.1523,-0.0883,-0.1665,-24.45,10.875,-32.85,,adl
3.033455,-0.0492,1.6973,-1.4922,0.1523,-0.0883,-0.1665,-24.9,10.35,-32.7,,adl
3.03426,-0.0492,1.6973,-1.4922,0.1251,0.1136,-0.0371,-24.9,10.35,-32.7,,adl
3.034921,-0.0492,1.6973,-1.4922,0.1251,0.1136,-0.0371,-24.9,10.35,-32.7,,adl
3.035456,0.0164,1.6401,-1.5408,0.1251,0.1136,-0.0371,-24.9,10.35,-32.7,,adl
3.039065,0.0164,1.6401,-1.5408,0.1251,0.1136,-0.0371,-24.9,10.35,-32.7,,adl
3.039738,0.0973,1.5443,-1.6022,0.1251,0.1136,-0.0371,-24.9,10.35,-32.7,,adl
3.044301,0.0973,1.5443,-1.6022,0.1251,0.1136,-0.0371,-24.9,10.35,-32.7,,adl
3.045025,0.2285,1.4533,-1.6596,0.1251,0.1136,-0.0371,-24.9,10.35,-32.7,,adl
3.04984,0.2285,1.4533,-1.6596,0.1251,0.1136,-0.0371,-24.9,10.35,-32.7,,adl
3.050667,0.3501,1.3076,-1.6986,0.1251,0.1136,-0.0371,-24.9,10.35,-32.7,,adl
3.054668,0.3501,1.3076,-1.6986,0.1251,0.1136,-0.0371,-24.9,10.35,-32.7,,adl
3.055381,0.4922,1.1189,-1.6878,0.1251,0.1136,-0.0371,-24.9,10.35,-32.7,,adl
3.059205,0.4922,1.1189,-1.6878,0.1251,0.1136,-0.0371,-24.9,10.35,-32.7,,adl
3.061109,0.6336,0.9421,-1.6724,0.1251,0.1136,-0.0371,-24.9,10.35,-32.7,,adl
3.066271,0.6336,0.9421,-1.6724,0.1251,0.1136,-0.0371,-24.9,10.35,-32.7,,adl
3.067233,0.7805,0.7297,-1.6096,0.1251,0.1136,-0.0371,-24.9,10.35,-32.7,,adl
3.068107,0.7805,0.7297,-1.6096,0.1251,0.1136,-0.0371,-24.9,10.35,-32.7,,adl
3.068802,0.8877,0.5202,-1.4848,0.1251,0.1136,-0.0371,-24.9,10.35,-32.7,,adl
3.074624,0.8877,0.5202,-1.4848,0.1251,0.1136,-0.0371,-24.9,10.35,-32.7,,adl
3.075525,0.9661,0.2839,-1.408,0.1251,0.1136,-0.0371,-24.9,10.35,-32.7,,adl
3.077989,0.9661,0.2839,-1.408,0.1251,0.1136,-0.0371,-24.9,10.35,-32.7,,adl
3.078688,0.9989,0.0515,-1.3253,0.1251,0.1136,-0.0371,-24.9,10.35,-32.7,,adl
3.084666,0.9989,0.0515,-1.3253,0.1251,0.1136,-0.0371,-24.9,10.35,-32.7,,adl
3.08549,1.0058,-0.1891,-1.2718,0.1251,0.1136,-0.0371,-24.9,10.35,-32.7,,adl
3.087665,1.0058,-0.1891,-1.2718,0.1251,0.1136,-0.0371,-24.9,10.35,-32.7,,adl
3.08812,1.0057,-0.404,-1.2838,0.1251,0.1136,-0.0371,-24.9,10.35,-32.7,,adl
3.09313,1.0057,-0.404,-1.2838,0.1251,0.1136,-0.0371,-24.9,10.35,-32.7,,adl
3.093731,0.9435,-0.6039,-1.2395,0.1251,0.1136,-0.0371,-24.9,10.35,-32.7,,adl
3.099213,0.9435,-0.6039,-1.2395,0.1251,0.1136,-0.0371,-24.9,10.35,-32.7,,adl
3.100043,0.8679,-0.7711,-1.2192,0.1251,0.1136,-0.0371,-24.9,10.35,-32.7,,adl
3.10066,0.8679,-0.7711,-1.2192,0.1251,0.1136,-0.0371,-24.45,10.2,-33.75,,adl
3.101312,0.8679,-0.7711,-1.2192,-0.0762,0.1999,0.0014,-24.45,10.2,-33.75,,adl
3.104592,0.8679,-0.7711,-1.2192,-0.0762,0.1999,0.0014,-24.45,10.2,-33.75,,adl
3.105468,0.7927,-0.8617,-1.1602,-0.0762,0.1999,0.0014,-24.45,10.2,-33.75,,adl
3.107704,0.7927,-0.8617,-1.1602,-0.0762,0.1999,0.0014,-24.45,10.2,-33.75,,adl
3.108277,0.7436,-0.9277,-1.0587,-0.0762,0.1999,0.0014,-24.45,10.2,-33.75,,adl
3.113024,0.7436,-0.9277,-1.0587,-0.0762,0.1999,0.0014,-24.45,10.2,-33.75,,adl
3.113781,0.6988,-0.9344,-0.943,-0.0762,0.1999,0.0014,-24.45,10.2,-33.75,,adl
3.120515,0.6988,-0.9344,-0.943,-0.0762,0.1999,0.0014,-24.45,10.2,-33.75,,adl
3.121313,0.6431,-0.9218,-0.8254,-0.0762,0.1999,0.0014,-24.45,10.2,-33.75,,adl
3.122321,0.6431,-0.9218,-0.8254,-0.0762,0.1999,0.0014,-24.45,10.2,-33.75,,adl
3.122927,0.6381,-0.8926,-0.6963,-0.0762,0.1999,0.0014,-24.45,10.2,-33.75,,adl
3.131369,0.6381,-0.8926,-0.6963,-0.0762,0.1999,0.0014,-24.45,10.2,-33.75,,adl
3.132266,0.6214,-0.8395,-0.582,-0.0762,0.1999,0.0014,-24.45,10.2,-33.75,,adl
3.133033,0.6214,-0.8395,-0.582,-0.0762,0.1999,0.0014,-24.45,10.2,-33.75,,adl
3.133615,0.5683,-0.7533,-0.5026,-0.0762,0.1999,0.0014,-24.45,10.2,-33.75,,adl
3.137842,0.5683,-0.7533,-0.5026,-0.0762,0.1999,0.0014,-24.45,10.2,-33.75,,adl
3.138635,0.5294,-0.6565,-0.4222,-0.0762,0.1999,0.0014,-24.45,10.2,-33.75,,adl
3.141472,0.5294,-0.6565,-0.4222,-0.0762,0.1999,0.0014,-24.45,10.2,-33.75,,adl
3.142134,0.4643,-0.599,-0.3383,-0.0762,0.1999,0.0014,-24.45,10.2,-33.75,,adl
3.150015,0.4643,-0.599,-0.3383,-0.0762,0.1999,0.0014,-24.45,10.2,-33.75,,adl
3.150983,0.365,-0.5123,-0.3032,-0.0762,0.1999,0.0014,-24.45,10.2,-33.75,,adl
3.151739,0.365,-0.5123,-0.3032,-0.0762,0.1999,0.0014,-24.45,10.2,-33.75,,adl
3.152313,0.3026,-0.4067,-0.2328,-0.0762,0.1999,0.0014,-24.45,10.2,-33.75,,adl
3.156365,0.3026,-0.4067,-0.2328,-0.0762,0.1999,0.0014,-24.45,10.2,-33.75,,adl
3.157132,0.2049,-0.2965,-0.2091,-0.0762,0.1999,0.0014,-24.45,10.2,-33.75,,adl
3.161621,0.2049,-0.2965,-0.2091,-0.0762,0.1999,0.0014,-24.45,10.2,-33.75,,adl
3.162474,0.1316,-0.198,-0.1554,-0.0762,0.1999,0.0014,-24.45,10.2,-33.75,,adl
3.168489,0.1316,-0.198,-0.1554,-0.0762,0.1999,0.0014,-24.45,10.2,-33.75,,adl
3.169757,0.0595,-0.1017,-0.1291,-0.0762,0.1999,0.0014,-24.45,10.2,-33.75,,adl
3.170568,0.0595,-0.1017,-0.1291,-0.0762,0.1999,0.0014,-24.3,10.2,-33.975,,adl
3.174864,0.0595,-0.1017,-0.1291,-0.1458,0.315,0.0724,-24.3,10.2,-33.975,,adl
3.175681,0.0595,-0.1017,-0.1291,-0.1458,0.315,0.0724,-24.3,10.2,-33.975,,adl
3.176586,-0.0691,0.1377,-0.1649,-0.1458,0.315,0.0724,-24.3,10.2,-33.975,,adl
3.180206,-0.0691,0.1377,-0.1649,-0.1458,0.315,0.0724,-24.3,10.2,-33.975,,adl
3.181312,-0.0849,0.26,-0.1641,-0.1458,0.315,0.0724,-24.3,10.2,-33.975,,adl
3.18804,-0.0849,0.26,-0.1641,-0.1458,0.315,0.0724,-24.3,10.2,-33.975,,adl
3.189476,-0.0629,0.3797,-0.1558,-0.1458,0.315,0.0724,-24.3,10.2,-33.975,,adl
3.190851,-0.0629,0.3797,-0.1558,-0.1458,0.315,0.0724,-24.3,10.2,-33.975,,adl
3.191949,-0.0347,0.4711,-0.1888,-0.1458,0.315,0.0724,-24.3,10.2,-33.975,,adl
3.2023,-0.0347,0.4711,-0.1888,-0.1458,0.315,0.0724,-24.3,10.2,-33.975,,adl
3.20364,0.0577,0.5502,-0.1741,-0.1458,0.315,0.0724,-24.3,10.2,-33.975,,adl
3.205016,0.0577,0.5502,-0.1741,-0.1458,0.315,0.0724,-24.3,10.2,-33.975,,adl
3.205824,0.1281,0.6031,-0.1649,-0.1458,0.315,0.0724,-24.3,10.2,-33.975,,adl
3.206648,0.1281,0.6031,-0.1649,-0.1458,0.315,0.0724,-24.3,10.2,-33.975,,adl
3.207287,0.1843,0.6295,-0.1596,-0.1458,0.315,0.0724,-24.3,10.2,-33.975,,adl
3.210523,0.1843,0.6295,-0.1596,-0.1458,0.315,0.0724,-24.3,10.2,-33.975,,adl
3.211967,0.2242,0.6559,-0.1685,-0.1458,0.315,0.0724,-24.3,10.2,-33.975,,adl
3.220964,0.2242,0.6559,-0.1685,-0.1458,0.315,0.0724,-24.3,10.2,-33.975,,adl
3.221736,0.2959,0.6322,-0.1823,-0.1458,0.315,0.0724,-24.3,10.2,-33.975,,adl
3.222397,0.2959,0.6322,-0.1823,-0.1458,0.315,0.0724,-24.3,10.2,-33.975,,adl
3.222945,0.365,0.6203,-0.1789,-0.1458,0.315,0.0724,-24.3,10.2,-33.975,,adl
3.22352,0.365,0.6203,-0.1789,-0.1458,0.315,0.0724,-24.3,10.2,-33.975,,adl
3.224049,0.4073,0.6013,-0.1703,-0.1458,0.315,0.0724,-24.3,10.2,-33.975,,adl
3.229503,0.4073,0.6013,-0.1703,-0.1458,0.315,0.0724,-24.3,10.2,-33.975,,adl
3.230228,0.4444,0.6015,-0.1209,-0.1458,0.315,0.0724,-24.3,10.2,-33.975,,adl
3.235044,0.4444,0.6015,-0.1209,-0.1458,0.315,0.0724,-24.3,10.2,-33.975,,adl
3.235686,0.4728,0.5848,-0.037,-0.1458,0.315,0.0724,-24.3,10.2,-33.975,,adl
3.239043,0.4728,0.5848,-0.037,-0.1458,0.315,0.0724,-24.3,10.2,-33.975,,adl
3.239611,0.5141,0.5945,0.0384,-0.1458,0.315,0.0724,-24.3,10.2,-33.975,,adl
3.240152,0.5141,0.5945,0.0384,-0.1458,0.315,0.0724,-23.1,10.95,-33.9,,adl
3.243198,0.5141,0.5945,0.0384,-0.1022,0.3523,0.1264,-23.1,10.95,-33.9,,adl
3.243771,0.5141,0.5945,0.0384,-0.1022,0.3523,0.1264,-23.1,10.95,-33.9,,adl
3.244196,0.5367,0.5995,0.131,-0.1022,0.3523,0.1264,-23.1,10.95,-33.9,,adl
3.247913,0.5367,0.5995,0.131,-0.1022,0.3523,0.1264,-23.1,10.95,-33.9,,adl
3.248609,0.5362,0.6091,0.1873,-0.1022,0.3523,0.1264,-23.1,10.95,-33.9,,adl
3.254522,0.5362,0.6091,0.1873,-0.1022,0.3523,0.1264,-23.1,10.95,-33.9,,adl
3.255245,0.5015,0.5998,0.23,-0.1022,0.3523,0.1264,-23.1,10.95,-33.9,,adl
3.25943,0.5015,0.5998,0.23,-0.1022,0.3523,0.1264,-23.1,10.95,-33.9,,adl
3.260058,0.4726,0.5807,0.1858,-0.1022,0.3523,0.1264,-23.1,10.95,-33.9,,adl
3.264334,0.4726,0.5807,0.1858,-0.1022,0.3523,0.1264,-23.1,10.95,-33.9,,adl
3.265131,0.4974,0.5403,0.0434,-0.1022,0.3523,0.1264,-23.1,10.95,-33.9,,adl
3.269102,0.4974,0.5403,0.0434,-0.1022,0.3523,0.1264,-23.1,10.95,-33.9,,adl
3.269712,0.4926,0.5117,-0.035,-0.1022,0.3523,0.1264,-23.1,10.95,-33.9,,adl
3.273802,0.4926,0.5117,-0.035,-0.1022,0.3523,0.1264,-23.1,10.95,-33.9,,adl
3.274517,0.4025,0.5525,0.0361,-0.1022,0.3523,0.1264,-23.1,10.95,-33.9,,adl
3.281189,0.4025,0.5525,0.0361,-0.1022,0.3523,0.1264,-23.1,10.95,-33.9,,adl
3.282059,0.3702,0.6219,0.1251,-0.1022,0.3523,0.1264,-23.1,10.95,-33.9,,adl
3.282762,0.3702,0.6219,0.1251,-0.1022,0.3523,0.1264,-23.1,10.95,-33.9,,adl
3.283312,0.3136,0.6889,0.2745,-0.1022,0.3523,0.1264,-23.1,10.95,-33.9,,adl
3.288929,0.3136,0.6889,0.2745,-0.1022,0.3523,0.1264,-23.1,10.95,-33.9,,adl
3.289785,0.2993,0.6842,0.6221,-0.1022,0.3523,0.1264,-23.1,10.95,-33.9,,adl
3.292852,0.2993,0.6842,0.6221,-0.1022,0.3523,0.1264,-23.1,10.95,-33.9,,adl
3.293634,0.3484,0.6603,0.7731,-0.1022,0.3523,0.1264,-23.1,10.95,-33.9,,adl
3.298516,0.3484,0.6603,0.7731,-0.1022,0.3523,0.1264,-23.1,10.95,-33.9,,adl
3.299399,0.3783,0.7058,0.5158,-0.1022,0.3523,0.1264,-23.1,10.95,-33.9,,adl
3.304566,0.3783,0.7058,0.5158,-0.1022,0.3523,0.1264,-23.1,10.95,-33.9,,adl
3.305693,0.377,0.7561,0.3205,-0.1022,0.3523,0.1264,-23.1,10.95,-33.9,,adl
3.308266,0.377,0.7561,0.3205,-0.1022,0.3523,0.1264,-23.1,10.95,-33.9,,adl
3.309128,0.404,0.7848,0.3238,-0.1022,0.3523,0.1264,-23.1,10.95,-33.9,,adl
3.309921,0.404,0.7848,0.3238,-0.1022,0.3523,0.1264,-22.2,11.25,-34.8,,adl
3.315548,0.404,0.7848,0.3238,-0.1022,0.3523,0.1264,-22.2,11.25,-34.8,,adl
3.316508,0.5024,0.7968,0.1531,-0.1022,0.3523,0.1264,-22.2,11.25,-34.8,,adl
3.317507,0.5024,0.7968,0.1531,-0.1306,0.2894,0.1112,-22.2,11.25,-34.8,,adl
3.318343,0.5024,0.7968,0.1531,-0.1306,0.2894,0.1112,-22.2,11.25,-34.8,,adl
3.319043,0.5427,0.7849,0.0433,-0.1306,0.2894,0.1112,-22.2,11.25,-34.8,,adl
3.323272,0.5427,0.7849,0.0433,-0.1306,0.2894,0.1112,-22.2,11.25,-34.8,,adl
3.32416,0.5158,0.7753,-0.0792,-0.1306,0.2894,0.1112,-22.2,11.25,-34.8,,adl
3.333225,0.5158,0.7753,-0.0792,-0.1306,0.2894,0.1112,-22.2,11.25,-34.8,,adl
3.334351,0.4552,0.7443,-0.065,-0.1306,0.2894,0.1112,-22.2,11.25,-34.8,,adl
3.335312,0.4552,0.7443,-0.065,-0.1306,0.2894,0.1112,-22.2,11.25,-34.8,,adl
3.336099,0.416,0.7108,0.0832,-0.1306,0.2894,0.1112,-22.2,11.25,-34.8,,adl
3.336989,0.416,0.7108,0.0832,-0.1306,0.2894,0.1112,-22.2,11.25,-34.8,,adl
3.337717,0.4669,0.6726,0.238,-0.1306,0.2894,0.1112,-22.2,11.25,-34.8,,adl
3.343217,0.4669,0.6726,0.238,-0.1306,0.2894,0.1112,-22.2,11.25,-34.8,,adl
3.344144,0.4956,0.6487,0.3373,-0.1306,0.2894,0.1112,-22.2,11.25,-34.8,,adl
3.354097,0.4956,0.6487,0.3373,-0.1306,0.2894,0.1112,-22.2,11.25,-34.8,,adl
3.355029,0.5165,0.6201,0.4118,-0.1306,0.2894,0.1112,-22.2,11.25,-34.8,,adl
3.355756,0.5165,0.6201,0.4118,-0.1306,0.2894,0.1112,-22.2,11.25,-34.8,,adl
3.356352,0.5109,0.6058,0.4114,-0.1306,0.2894,0.1112,-22.2,11.25,-34.8,,adl
3.357152,0.5109,0.6058,0.4114,-0.1306,0.2894,0.1112,-22.2,11.25,-34.8,,adl
3.357895,0.5049,0.5675,0.4006,-0.1306,0.2894,0.1112,-22.2,11.25,-34.8,,adl
3.361831,0.5049,0.5675,0.4006,-0.1306,0.2894,0.1112,-22.2,11.25,-34.8,,adl
3.362524,0.4876,0.5603,0.3125,-0.1306,0.2894,0.1112,-22.2,11.25,-34.8,,adl
3.366254,0.4876,0.5603,0.3125,-0.1306,0.2894,0.1112,-22.2,11.25,-34.8,,adl
3.367017,0.5101,0.558,0.2229,-0.1306,0.2894,0.1112,-22.2,11.25,-34.8,,adl
3.371617,0.5101,0.558,0.2229,-0.1306,0.2894,0.1112,-22.2,11.25,-34.8,,adl
3.372165,0.5268,0.5365,0.1492,-0.1306,0.2894,0.1112,-22.2,11.25,-34.8,,adl
3.375577,0.5268,0.5365,0.1492,-0.1306,0.2894,0.1112,-22.2,11.25,-34.8,,adl
3.37604,0.5332,0.5724,0.1245,-0.1306,0.2894,0.1112,-22.2,11.25,-34.8,,adl
3.382549,0.5332,0.5724,0.1245,-0.0736,0.1225,0.057,-22.2,11.25,-34.8,,adl
3.383245,0.5332,0.5724,0.1245,-0.0736,0.1225,0.057,-20.25,10.725,-35.25,,adl
3.383656,0.5332,0.5724,0.1245,-0.0736,0.1225,0.057,-20.25,10.725,-35.25,,adl
3.384023,0.5855,0.5509,0.1489,-0.0736,0.1225,0.057,-20.25,10.725,-35.25,,adl
3.386992,0.5855,0.5509,0.1489,-0.0736,0.1225,0.057,-20.25,10.725,-35.25,,adl
3.387548,0.605,0.5773,0.1886,-0.0736,0.1225,0.057,-20.25,10.725,-35.25,,adl
3.390536,0.605,0.5773,0.1886,-0.0736,0.1225,0.057,-20.25,10.725,-35.25,,adl
3.391046,0.5984,0.5989,0.2404,-0.0736,0.1225,0.057,-20.25,10.725,-35.25,,adl
3.39572,0.5984,0.5989,0.2404,-0.0736,0.1225,0.057,-20.25,10.725,-35.25,,adl
3.396418,0.5799,0.6133,0.2683,-0.0736,0.1225,0.057,-20.25,10.725,-35.25,,adl
3.401773,0.5799,0.6133,0.2683,-0.0736,0.1225,0.057,-20.25,10.725,-35.25,,adl
3.402421,0.5591,0.599,0.2366,-0.0736,0.1225,0.057,-20.25,10.725,-35.25,,adl
3.405993,0.5591,0.599,0.2366,-0.0736,0.1225,0.057,-20.25,10.725,-35.25,,adl
3.407057,0.5241,0.5727,0.2337,-0.0736,0.1225,0.057,-20.25,10.725,-35.25,,adl
3.411616,0.5241,0.5727,0.2337,-0.0736,0.1225,0.057,-20.25,10.725,-35.25,,adl
3.412343,0.5128,0.5273,0.2094,-0.0736,0.1225,0.057,-20.25,10.725,-35.25,,adl
3.416976,0.5128,0.5273,0.2094,-0.0736,0.1225,0.057,-20.25,10.725,-35.25,,adl
3.417834,0.4801,0.5058,0.1687,-0.0736,0.1225,0.057,-20.25,10.725,-35.25,,adl
3.421851,0.4801,0.5058,0.1687,-0.0736,0.1225,0.057,-20.25,10.725,-35.25,,adl
3.422581,0.4353,0.4364,0.1708,-0.0736,0.1225,0.057,-20.25,10.725,-35.25,,adl
3.427469,0.4353,0.4364,0.1708,-0.0736,0.1225,0.057,-20.25,10.725,-35.25,,adl
3.428368,0.3738,0.3811,0.144,-0.0736,0.1225,0.057,-20.25,10.725,-35.25,,adl
3.432622,0.3738,0.3811,0.144,-0.0736,0.1225,0.057,-20.25,10.725,-35.25,,adl
3.433882,0.3231,0.3213,0.1332,-0.0736,0.1225,0.057,-20.25,10.725,-35.25,,adl
3.434822,0.3231,0.3213,0.1332,-0.0736,0.1225,0.057,-20.25,10.725,-35.25,,adl
3.435478,0.306,0.2496,0.1639,-0.0736,0.1225,0.057,-20.25,10.725,-35.25,,adl
3.447518,0.306,0.2496,0.1639,-0.0736,0.1225,0.057,-20.25,10.725,-35.25,,adl
3.448727,0.3346,0.1108,0.2959,-0.0736,0.1225,0.057,-20.25,10.725,-35.25,,adl
3.449844,0.3346,0.1108,0.2959,-0.0736,0.1225,0.057,-20.25,10.725,-35.25,,adl
3.450657,0.3702,0.0247,0.3836,-0.0736,0.1225,0.057,-20.25,10.725,-35.25,,adl
3.451577,0.3702,0.0247,0.3836,-0.0736,0.1225,0.057,-20.775,11.475,-35.175,,adl
3.45693,0.3702,0.0247,0.3836,-0.0631,-0.0299,0.0399,-20.775,11.475,-35.175,,adl
3.458271,0.3702,0.0247,0.3836,-0.0631,-0.0299,0.0399,-20.775,11.475,-35.175,,adl
3.459152,0.409,-0.0424,0.4735,-0.0631,-0.0299,0.0399,-20.775,11.475,-35.175,,adl
3.460229,0.409,-0.0424,0.4735,-0.0631,-0.0299,0.0399,-20.775,11.475,-35.175,,adl
3.46123,0.4707,-0.0831,0.5275,-0.0631,-0.0299,0.0399,-20.775,11.475,-35.175,,adl
3.466564,0.4707,-0.0831,0.5275,-0.0631,-0.0299,0.0399,-20.775,11.475,-35.175,,adl
3.467685,0.5263,-0.148,0.5342,-0.0631,-0.0299,0.0399,-20.775,11.475,-35.175,,adl
3.46866,0.5263,-0.148,0.5342,-0.0631,-0.0299,0.0399,-20.775,11.475,-35.175,,adl
3.469548,0.5796,-0.2007,0.5383,-0.0631,-0.0299,0.0399,-20.775,11.475,-35.175,,adl
3.477214,0.5796,-0.2007,0.5383,-0.0631,-0.0299,0.0399,-20.775,11.475,-35.175,,adl
3.478347,0.6094,-0.2558,0.4496,-0.0631,-0.0299,0.0399,-20.775,11.475,-35.175,,adl
3.479323,0.6094,-0.2558,0.4496,-0.0631,-0.0299,0.0399,-20.775,11.475,-35.175,,adl
3.480125,0.6368,-0.2965,0.3516,-0.0631,-0.0299,0.0399,-20.775,11.475,-35.175,,adl
3.486186,0.6368,-0.2965,0.3516,-0.0631,-0.0299,0.0399,-20.775,11.475,-35.175,,adl
3.487193,0.6882,-0.3516,0.2643,-0.0631,-0.0299,0.0399,-20.775,11.475,-35.175,,adl
3.489407,0.6882,-0.3516,0.2643,-0.0631,-0.0299,0.0399,-20.775,11.475,-35.175,,adl
3.490243,0.6899,-0.3826,0.203,-0.0631,-0.0299,0.0399,-20.775,11.475,-35.175,,adl
3.495006,0.6899,-0.3826,0.203,-0.0631,-0.0299,0.0399,-20.775,11.475,-35.175,,adl
3.496137,0.646,-0.409,0.1795,-0.0631,-0.0299,0.0399,-20.775,11.475,-35.175,,adl
3.502215,0.646,-0.409,0.1795,-0.0631,-0.0299,0.0399,-20.775,11.475,-35.175,,adl
3.50333,0.579,-0.4043,0.1698,-0.0631,-0.0299,0.0399,-20.775,11.475,-35.175,,adl
3.505135,0.579,-0.4043,0.1698,-0.0631,-0.0299,0.0399,-20.775,11.475,-35.175,,adl
3.50598,0.5149,-0.3852,0.1599,-0.0631,-0.0299,0.0399,-20.775,11.475,-35.175,,adl
3.511184,0.5149,-0.3852,0.1599,-0.0631,-0.0299,0.0399,-20.775,11.475,-35.175,,adl
3.511932,0.4657,-0.3732,0.3533,-0.0631,-0.0299,0.0399,-20.775,11.475,-35.175,,adl
3.515334,0.4657,-0.3732,0.3533,-0.0631,-0.0299,0.0399,-20.775,11.475,-35.175,,adl
3.51624,0.491,-0.3782,0.4628,-0.0631,-0.0299,0.0399,-20.775,11.475,-35.175,,adl
3.516923,0.491,-0.3782,0.4628,-0.0631,-0.0299,0.0399,-20.775,11.475,-35.175,,adl
3.51741,0.5284,-0.462,0.4692,-0.0631,-0.0299,0.0399,-20.775,11.475,-35.175,,adl
3.519266,0.5284,-0.462,0.4692,-0.0631,-0.0299,0.0399,-20.7,10.425,-34.5,,adl
3.522853,0.5284,-0.462,0.4692,0.0215,-0.1353,0.0564,-20.7,10.425,-34.5,,adl
3.523618,0.5284,-0.462,0.4692,0.0215,-0.1353,0.0564,-20.7,10.425,-34.5,,adl
3.524205,0.5312,-0.6608,0.4538,0.0215,-0.1353,0.0564,-20.7,10.425,-34.5,,adl
3.532286,0.5312,-0.6608,0.4538,0.0215,-0.1353,0.0564,-20.7,10.425,-34.5,,adl
3.533018,0.5531,-0.8502,0.4891,0.0215,-0.1353,0.0564,-20.7,10.425,-34.5,,adl
3.533578,0.5531,-0.8502,0.4891,0.0215,-0.1353,0.0564,-20.7,10.425,-34.5,,adl
3.534009,0.5843,-0.9842,0.6303,0.0215,-0.1353,0.0564,-20.7,10.425,-34.5,,adl
3.537317,0.5843,-0.9842,0.6303,0.0215,-0.1353,0.0564,-20.7,10.425,-34.5,,adl
3.537894,0.5731,-1.0849,0.8104,0.0215,-0.1353,0.0564,-20.7,10.425,-34.5,,adl
3.542814,0.5731,-1.0849,0.8104,0.0215,-0.1353,0.0564,-20.7,10.425,-34.5,,adl
3.543384,0.5261,-1.243,1.0522,0.0215,-0.1353,0.0564,-20.7,10.425,-34.5,,adl
3.547769,0.5261,-1.243,1.0522,0.0215,-0.1353,0.0564,-20.7,10.425,-34.5,,adl
3.548657,0.3983,-1.5306,1.1974,0.0215,-0.1353,0.0564,-20.7,10.425,-34.5,,adl
3.552265,0.3983,-1.5306,1.1974,0.0215,-0.1353,0.0564,-20.7,10.425,-34.5,,adl
3.552913,0.1464,-2.0049,1.1769,0.0215,-0.1353,0.0564,-20.7,10.425,-34.5,,adl
3.557379,0.1464,-2.0049,1.1769,0.0215,-0.1353,0.0564,-20.7,10.425,-34.5,,adl
3.558027,-0.2553,-2.7448,0.8518,0.0215,-0.1353,0.0564,-20.7,10.425,-34.5,,adl
3.568647,-0.2553,-2.7448,0.8518,0.0215,-0.1353,0.0564,-20.7,10.425,-34.5,,adl
3.570061,-0.6883,-3.6672,0.103,0.0215,-0.1353,0.0564,-20.7,10.425,-34.5,,adl
3.571145,-0.6883,-3.6672,0.103,0.0215,-0.1353,0.0564,-20.7,10.425,-34.5,,adl
3.572055,-1.0301,-4.302,-0.6248,0.0215,-0.1353,0.0564,-20.7,10.425,-34.5,,adl
3.5732,-1.0301,-4.302,-0.6248,0.0215,-0.1353,0.0564,-20.7,10.425,-34.5,,adl
3.574082,-1.0334,-4.2449,-0.7732,0.0215,-0.1353,0.0564,-20.7,10.425,-34.5,,adl
3.578794,-1.0334,-4.2449,-0.7732,0.0215,-0.1353,0.0564,-20.7,10.425,-34.5,,adl
3.579941,-0.7669,-3.5914,-0.2175,0.0215,-0.1353,0.0564,-20.7,10.425,-34.5,,adl
3.586914,-0.7669,-3.5914,-0.2175,0.0215,-0.1353,0.0564,-20.7,10.425,-34.5,,adl
3.588143,-0.3118,-2.785,0.633,0.0215,-0.1353,0.0564,-20.7,10.425,-34.5,,adl
3.588958,-0.3118,-2.785,0.633,0.0215,-0.1353,0.0564,-20.7,10.425,-34.5,,adl
3.589577,0.0752,-2.2227,1.4317,0.0215,-0.1353,0.0564,-20.7,10.425,-34.5,,adl
3.590299,0.0752,-2.2227,1.4317,0.0215,-0.1353,0.0564,-20.85,11.025,-34.275,,adl
3.590986,0.0752,-2.2227,1.4317,0.1448,-0.2043,0.0935,-20.85,11.025,-34.275,,adl
3.591639,0.0752,-2.2227,1.4317,0.1448,-0.2043,0.0935,-20.85,11.025,-34.275,,adl
3.592196,0.3744,-2.0028,1.9782,0.1448,-0.2043,0.0935,-20.85,11.025,-34.275,,adl
3.598922,0.3744,-2.0028,1.9782,0.1448,-0.2043,0.0935,-20.85,11.025,-34.275,,adl
3.599713,0.5886,-1.9912,2.1042,0.1448,-0.2043,0.0935,-20.85,11.025,-34.275,,adl
3.600364,0.5886,-1.9912,2.1042,0.1448,-0.2043,0.0935,-20.85,11.025,-34.275,,adl
3.600846,0.6796,-2.0444,1.7286,0.1448,-0.2043,0.0935,-20.85,11.025,-34.275,,adl
3.60677,0.6796,-2.0444,1.7286,0.1448,-0.2043,0.0935,-20.85,11.025,-34.275,,adl
3.607435,0.642,-2.0354,1.0526,0.1448,-0.2043,0.0935,-20.85,11.025,-34.275,,adl
3.617233,0.642,-2.0354,1.0526,0.1448,-0.2043,0.0935,-20.85,11.025,-34.275,,adl
3.618202,0.4164,-1.9332,0.3579,0.1448,-0.2043,0.0935,-20.85,11.025,-34.275,,adl
3.618811,0.4164,-1.9332,0.3579,0.1448,-0.2043,0.0935,-20.85,11.025,-34.275,,adl
3.619292,0.1573,-1.7941,-0.0847,0.1448,-0.2043,0.0935,-20.85,11.025,-34.275,,adl
3.6198,0.1573,-1.7941,-0.0847,0.1448,-0.2043,0.0935,-20.85,11.025,-34.275,,adl
3.620271,-0.0591,-1.6417,-0.2672,0.1448,-0.2043,0.0935,-20.85,11.025,-34.275,,adl
3.627181,-0.0591,-1.6417,-0.2672,0.1448,-0.2043,0.0935,-20.85,11.025,-34.275,,adl
3.628091,-0.1897,-1.439,-0.203,0.1448,-0.2043,0.0935,-20.85,11.025,-34.275,,adl
3.633794,-0.1897,-1.439,-0.203,0.1448,-0.2043,0.0935,-20.85,11.025,-34.275,,adl
3.634808,-0.1953,-1.1674,-0.0392,0.1448,-0.2043,0.0935,-20.85,11.025,-34.275,,adl
3.635512,-0.1953,-1.1674,-0.0392,0.1448,-0.2043,0.0935,-20.85,11.025,-34.275,,adl
3.636116,-0.1366,-0.8188,0.1128,0.1448,-0.2043,0.0935,-20.85,11.025,-34.275,,adl
3.641521,-0.1366,-0.8188,0.1128,0.1448,-0.2043,0.0935,-20.85,11.025,-34.275,,adl
