time,ax,ay,az,wx,wy,wz,Bx,By,Bz,Unnamed: 10,label
0.092674,0.0,0.0,0.0,0.0,0.0,0.0,0.0,0.0,0.0,,adl
0.092949,0.0,0.0,0.0,0.0,0.0,0.0,0.0,0.0,0.0,,adl
0.093172,0.0,0.0,0.0,0.0,0.0,0.0,0.0,0.0,0.0,,adl
0.093395,0.0,0.0,0.0,0.0,0.0,0.0,0.0,0.0,0.0,,adl
0.09356,0.0,0.0,0.0,0.0,0.0,0.0,0.0,0.0,0.0,,adl
0.09378,0.0,0.0,0.0,0.0,0.0,0.0,0.0,0.0,0.0,,adl
0.093965,0.0,0.0,0.0,0.0,0.0,0.0,0.0,0.0,0.0,,adl
0.094161,0.0,0.0,0.0,0.0,0.0,0.0,0.0,0.0,0.0,,adl
0.094353,0.0,0.0,0.0,0.0,0.0,0.0,0.0,0.0,0.0,,adl
0.094529,0.0,0.0,0.0,0.0,0.0,0.0,0.0,0.0,0.0,,adl
0.094714,0.0,0.0,0.0,0.0,0.0,0.0,0.0,0.0,0.0,,adl
0.09489,0.0,0.0,0.0,0.0,0.0,0.0,0.0,0.0,0.0,,adl
0.095067,0.0,0.0,0.0,0.0,0.0,0.0,0.0,0.0,0.0,,adl
0.095254,0.0,0.0,0.0,0.0,0.0,0.0,0.0,0.0,0.0,,adl
0.095445,0.0,0.0,0.0,0.0,0.0,0.0,0.0,0.0,0.0,,adl
0.095628,0.0565,-0.0253,0.3947,0.0,0.0,0.0,0.0,0.0,0.0,,adl
0.095831,0.0565,-0.0253,0.3947,0.0,0.0,0.0,0.0,0.0,0.0,,adl
0.096011,0.0565,-0.0468,0.366,0.0,0.0,0.0,0.0,0.0,0.0,,adl
0.096206,0.0565,-0.0468,0.366,0.0,0.0,0.0,0.0,0.0,0.0,,adl
0.096377,0.0628,-0.0393,0.2893,0.0,0.0,0.0,0.0,0.0,0.0,,adl
0.096569,0.0628,-0.0393,0.2893,0.0,0.0,0.0,0.0,0.0,0.0,,adl
0.09675,0.0429,-0.0324,0.2153,0.0,0.0,0.0,0.0,0.0,0.0,,adl
0.105169,0.0429,-0.0324,0.2153,0.0,0.0,0.0,0.0,0.0,0.0,,adl
0.106221,0.0468,-0.0184,0.1625,0.0,0.0,0.0,0.0,0.0,0.0,,adl
0.107033,0.0468,-0.0184,0.1625,0.0,0.0,0.0,0.0,0.0,0.0,,adl
0.107765,0.0396,0.0223,0.1433,0.0,0.0,0.0,0.0,0.0,0.0,,adl
0.108446,0.0396,0.0223,0.1433,0.0,0.0,0.0,-30.975,-32.925,3.075,,adl
0.111985,0.0396,0.0223,0.1433,-0.0121,-0.0003,-0.0035,-30.975,-32.925,3.075,,adl
0.112807,0.0396,0.0223,0.1433,-0.0121,-0.0003,-0.0035,-30.975,-32.925,3.075,,adl
0.113338,0.0388,0.0579,0.153,-0.0121,-0.0003,-0.0035,-30.975,-32.925,3.075,,adl
0.118339,0.0388,0.0579,0.153,-0.0121,-0.0003,-0.0035,-30.975,-32.925,3.075,,adl
0.119031,0.0308,0.0794,0.1748,-0.0121,-0.0003,-0.0035,-30.975,-32.925,3.075,,adl
0.121841,0.0308,0.0794,0.1748,-0.0121,-0.0003,-0.0035,-30.975,-32.925,3.075,,adl
0.122802,0.0179,0.0771,0.2011,-0.0121,-0.0003,-0.0035,-30.975,-32.925,3.075,,adl
0.127018,0.0179,0.0771,0.2011,-0.0121,-0.0003,-0.0035,-30.975,-32.925,3.075,,adl
0.127969,0.0437,0.0653,0.2011,-0.0121,-0.0003,-0.0035,-30.975,-32.925,3.075,,adl
0.132577,0.0437,0.0653,0.2011,-0.0121,-0.0003,-0.0035,-30.975,-32.925,3.075,,adl
0.133409,0.035,0.0655,0.2035,-0.0121,-0.0003,-0.0035,-30.975,-32.925,3.075,,adl
0.136807,0.035,0.0655,0.2035,-0.0121,-0.0003,-0.0035,-30.975,-32.925,3.075,,adl
0.137588,0.0752,0.0488,0.1771,-0.0121,-0.0003,-0.0035,-30.975,-32.925,3.075,,adl
0.141237,0.0752,0.0488,0.1771,-0.0121,-0.0003,-0.0035,-30.975,-32.925,3.075,,adl
0.142437,0.0584,0.0656,0.1577,-0.0121,-0.0003,-0.0035,-30.975,-32.925,3.075,,adl
0.147866,0.0584,0.0656,0.1577,-0.0121,-0.0003,-0.0035,-30.975,-32.925,3.075,,adl
0.148747,0.0943,0.037,0.1651,-0.0121,-0.0003,-0.0035,-30.975,-32.925,3.075,,adl
0.152501,0.0943,0.037,0.1651,-0.0121,-0.0003,-0.0035,-30.975,-32.925,3.075,,adl
0.153368,0.0728,0.0419,0.2201,-0.0121,-0.0003,-0.0035,-30.975,-32.925,3.075,,adl
0.157082,0.0728,0.0419,0.2201,-0.0121,-0.0003,-0.0035,-30.975,-32.925,3.075,,adl
0.15813,0.0752,0.0301,0.2009,-0.0121,-0.0003,-0.0035,-30.975,-32.925,3.075,,adl
0.163939,0.0752,0.0301,0.2009,-0.0121,-0.0003,-0.0035,-30.975,-32.925,3.075,,adl
0.165141,0.1014,0.0231,0.208,-0.0121,-0.0003,-0.0035,-30.975,-32.925,3.075,,adl
0.166226,0.1014,0.0231,0.208,-0.0121,-0.0003,-0.0035,-30.975,-32.925,3.075,,adl
0.167093,0.1347,0.016,0.2008,-0.0121,-0.0003,-0.0035,-30.975,-32.925,3.075,,adl
0.171294,0.1347,0.016,0.2008,-0.0121,-0.0003,-0.0035,-30.975,-32.925,3.075,,adl
0.172267,0.1322,0.0139,0.1745,-0.0121,-0.0003,-0.0035,-30.975,-32.925,3.075,,adl
0.176052,0.1322,0.0139,0.1745,-0.0121,-0.0003,-0.0035,-30.45,-31.95,2.85,,adl
0.177268,0.1322,0.0139,0.1745,-0.0121,-0.0003,-0.0035,-30.45,-31.95,2.85,,adl
0.178215,0.1151,0.0357,0.1573,-0.0121,-0.0003,-0.0035,-30.45,-31.95,2.85,,adl
0.179852,0.1151,0.0357,0.1573,-0.0026,-0.0021,0.0069,-30.45,-31.95,2.85,,adl
0.180867,0.1151,0.0357,0.1573,-0.0026,-0.0021,0.0069,-30.45,-31.95,2.85,,adl
0.181749,0.1125,0.0693,0.1525,-0.0026,-0.0021,0.0069,-30.45,-31.95,2.85,,adl
0.186871,0.1125,0.0693,0.1525,-0.0026,-0.0021,0.0069,-30.45,-31.95,2.85,,adl
0.187913,0.1002,0.0909,0.1597,-0.0026,-0.0021,0.0069,-30.45,-31.95,2.85,,adl
0.191407,0.1002,0.0909,0.1597,-0.0026,-0.0021,0.0069,-30.45,-31.95,2.85,,adl
0.192373,0.1141,0.1174,0.1381,-0.0026,-0.0021,0.0069,-30.45,-31.95,2.85,,adl
0.197224,0.1141,0.1174,0.1381,-0.0026,-0.0021,0.0069,-30.45,-31.95,2.85,,adl
0.198601,0.1162,0.1271,0.1596,-0.0026,-0.0021,0.0069,-30.45,-31.95,2.85,,adl
0.202009,0.1162,0.1271,0.1596,-0.0026,-0.0021,0.0069,-30.45,-31.95,2.85,,adl
0.203819,0.1017,0.1345,0.1499,-0.0026,-0.0021,0.0069,-30.45,-31.95,2.85,,adl
0.205453,0.1017,0.1345,0.1499,-0.0026,-0.0021,0.0069,-30.45,-31.95,2.85,,adl
0.206718,0.1134,0.1276,0.1765,-0.0026,-0.0021,0.0069,-30.45,-31.95,2.85,,adl
0.212551,0.1134,0.1276,0.1765,-0.0026,-0.0021,0.0069,-30.45,-31.95,2.85,,adl
0.213949,0.1036,0.1036,0.1741,-0.0026,-0.0021,0.0069,-30.45,-31.95,2.85,,adl
0.215245,0.1036,0.1036,0.1741,-0.0026,-0.0021,0.0069,-30.45,-31.95,2.85,,adl
0.216536,0.094,0.0967,0.1764,-0.0026,-0.0021,0.0069,-30.45,-31.95,2.85,,adl
0.220495,0.094,0.0967,0.1764,-0.0026,-0.0021,0.0069,-30.45,-31.95,2.85,,adl
0.221937,0.0988,0.0686,0.1858,-0.0026,-0.0021,0.0069,-30.45,-31.95,2.85,,adl
0.223976,0.0988,0.0686,0.1858,-0.0026,-0.0021,0.0069,-30.45,-31.95,2.85,,adl
0.22513,0.1058,0.0736,0.2049,-0.0026,-0.0021,0.0069,-30.45,-31.95,2.85,,adl
0.230132,0.1058,0.0736,0.2049,-0.0026,-0.0021,0.0069,-30.45,-31.95,2.85,,adl
0.231171,0.1128,0.0546,0.2049,-0.0026,-0.0021,0.0069,-30.45,-31.95,2.85,,adl
0.236935,0.1128,0.0546,0.2049,-0.0026,-0.0021,0.0069,-30.45,-31.95,2.85,,adl
0.237832,0.1223,0.0404,0.1881,-0.0026,-0.0021,0.0069,-30.45,-31.95,2.85,,adl
0.24085,0.1223,0.0404,0.1881,-0.0026,-0.0021,0.0069,-30.45,-31.95,2.85,,adl
0.241792,0.1078,0.0166,0.1784,-0.0026,-0.0021,0.0069,-30.45,-31.95,2.85,,adl
0.244681,0.1078,0.0166,0.1784,-0.0026,-0.0021,0.0069,-30.45,-31.95,2.85,,adl
0.245478,0.0908,0.012,0.1952,-0.0026,-0.0021,0.0069,-30.45,-31.95,2.85,,adl
0.246243,0.0908,0.012,0.1952,-0.0026,-0.0021,0.0069,-30.3,-31.725,2.325,,adl
0.247451,0.0908,0.012,0.1952,-0.0055,0.0011,-0.0035,-30.3,-31.725,2.325,,adl
0.248166,0.0908,0.012,0.1952,-0.0055,0.0011,-0.0035,-30.3,-31.725,2.325,,adl
0.248831,0.079,0.0148,0.2237,-0.0055,0.0011,-0.0035,-30.3,-31.725,2.325,,adl
0.253516,0.079,0.0148,0.2237,-0.0055,0.0011,-0.0035,-30.3,-31.725,2.325,,adl
0.254274,0.0765,0.0079,0.2524,-0.0055,0.0011,-0.0035,-30.3,-31.725,2.325,,adl
0.259655,0.0765,0.0079,0.2524,-0.0055,0.0011,-0.0035,-30.3,-31.725,2.325,,adl
0.260576,0.0668,0.0247,0.2835,-0.0055,0.0011,-0.0035,-30.3,-31.725,2.325,,adl
0.26479,0.0668,0.0247,0.2835,-0.0055,0.0011,-0.0035,-30.3,-31.725,2.325,,adl
0.26559,0.0734,0.0294,0.2644,-0.0055,0.0011,-0.0035,-30.3,-31.725,2.325,,adl
0.272494,0.0734,0.0294,0.2644,-0.0055,0.0011,-0.0035,-30.3,-31.725,2.325,,adl
0.273431,0.0704,0.0217,0.2358,-0.0055,0.0011,-0.0035,-30.3,-31.725,2.325,,adl
0.274403,0.0704,0.0217,0.2358,-0.0055,0.0011,-0.0035,-30.3,-31.725,2.325,,adl
0.27514,0.0701,0.0218,0.1111,-0.0055,0.0011,-0.0035,-30.3,-31.725,2.325,,adl
0.279456,0.0701,0.0218,0.1111,-0.0055,0.0011,-0.0035,-30.3,-31.725,2.325,,adl
0.280426,0.0548,0.0152,0.0446,-0.0055,0.0011,-0.0035,-30.3,-31.725,2.325,,adl
0.283279,0.0548,0.0152,0.0446,-0.0055,0.0011,-0.0035,-30.3,-31.725,2.325,,adl
0.284091,0.0618,0.0623,0.1262,-0.0055,0.0011,-0.0035,-30.3,-31.725,2.325,,adl
0.288454,0.0618,0.0623,0.1262,-0.0055,0.0011,-0.0035,-30.3,-31.725,2.325,,adl
0.289283,0.0404,0.1073,0.2702,-0.0055,0.0011,-0.0035,-30.3,-31.725,2.325,,adl
0.293376,0.0404,0.1073,0.2702,-0.0055,0.0011,-0.0035,-30.3,-31.725,2.325,,adl
0.294444,0.0429,0.0785,0.2966,-0.0055,0.0011,-0.0035,-30.3,-31.725,2.325,,adl
0.298119,0.0429,0.0785,0.2966,-0.0055,0.0011,-0.0035,-30.3,-31.725,2.325,,adl
0.299044,0.0733,0.0137,0.2129,-0.0055,0.0011,-0.0035,-30.3,-31.725,2.325,,adl
0.303622,0.0733,0.0137,0.2129,-0.0055,0.0011,-0.0035,-30.3,-31.725,2.325,,adl
0.304442,0.0529,-0.0035,0.1362,-0.0055,0.0011,-0.0035,-30.3,-31.725,2.325,,adl
0.309726,0.0529,-0.0035,0.1362,-0.0055,0.0011,-0.0035,-30.3,-31.725,2.325,,adl
0.310874,0.0706,-0.0136,0.11,-0.0055,0.0011,-0.0035,-30.3,-31.725,2.325,,adl
0.312879,0.0706,-0.0136,0.11,-0.0055,0.0011,-0.0035,-30.975,-32.025,2.55,,adl
0.313811,0.0706,-0.0136,0.11,-0.0055,0.0011,-0.0035,-30.975,-32.025,2.55,,adl
0.314651,0.0839,0.0004,0.1485,-0.0055,0.0011,-0.0035,-30.975,-32.025,2.55,,adl
0.316966,0.0839,0.0004,0.1485,0.0096,-0.0066,-0.0026,-30.975,-32.025,2.55,,adl
0.318082,0.0839,0.0004,0.1485,0.0096,-0.0066,-0.0026,-30.975,-32.025,2.55,,adl
0.318892,0.1098,-0.0235,0.1365,0.0096,-0.0066,-0.0026,-30.975,-32.025,2.55,,adl
0.323305,0.1098,-0.0235,0.1365,0.0096,-0.0066,-0.0026,-30.975,-32.025,2.55,,adl
0.324358,0.0784,-0.0255,0.1268,0.0096,-0.0066,-0.0026,-30.975,-32.025,2.55,,adl
0.329636,0.0784,-0.0255,0.1268,0.0096,-0.0066,-0.0026,-30.975,-32.025,2.55,,adl
0.331008,0.0802,-0.0344,0.141,0.0096,-0.0066,-0.0026,-30.975,-32.025,2.55,,adl
0.332152,0.0802,-0.0344,0.141,0.0096,-0.0066,-0.0026,-30.975,-32.025,2.55,,adl
0.333079,0.1127,-0.0312,0.165,0.0096,-0.0066,-0.0026,-30.975,-32.025,2.55,,adl
0.337196,0.1127,-0.0312,0.165,0.0096,-0.0066,-0.0026,-30.975,-32.025,2.55,,adl
0.338386,0.1522,-0.0352,0.1911,0.0096,-0.0066,-0.0026,-30.975,-32.025,2.55,,adl
0.34261,0.1522,-0.0352,0.1911,0.0096,-0.0066,-0.0026,-30.975,-32.025,2.55,,adl
0.343947,0.1822,-0.0511,0.186,0.0096,-0.0066,-0.0026,-30.975,-32.025,2.55,,adl
0.347553,0.1822,-0.0511,0.186,0.0096,-0.0066,-0.0026,-30.975,-32.025,2.55,,adl
0.348508,0.1551,-0.0455,0.2169,0.0096,-0.0066,-0.0026,-30.975,-32.025,2.55,,adl
0.353599,0.1551,-0.0455,0.2169,0.0096,-0.0066,-0.0026,-30.975,-32.025,2.55,,adl
0.354736,0.1379,-0.0162,0.2407,0.0096,-0.0066,-0.0026,-30.975,-32.025,2.55,,adl
0.361302,0.1379,-0.0162,0.2407,0.0096,-0.0066,-0.0026,-30.975,-32.025,2.55,,adl
0.362778,0.1044,0.001,0.2788,0.0096,-0.0066,-0.0026,-30.975,-32.025,2.55,,adl
0.363818,0.1044,0.001,0.2788,0.0096,-0.0066,-0.0026,-30.975,-32.025,2.55,,adl
0.364648,0.083,-0.0034,0.2955,0.0096,-0.0066,-0.0026,-30.975,-32.025,2.55,,adl
0.37358,0.083,-0.0034,0.2955,0.0096,-0.0066,-0.0026,-30.975,-32.025,2.55,,adl
0.37482,0.0548,0.0299,0.3003,0.0096,-0.0066,-0.0026,-30.975,-32.025,2.55,,adl
0.375858,0.0548,0.0299,0.3003,0.0096,-0.0066,-0.0026,-30.975,-32.025,2.55,,adl
0.376668,0.0546,0.0302,0.3337,0.0096,-0.0066,-0.0026,-30.975,-32.025,2.55,,adl
0.385545,0.0546,0.0302,0.3337,0.0096,-0.0066,-0.0026,-30.975,-32.025,2.55,,adl
0.386847,0.0554,0.0483,0.346,0.0096,-0.0066,-0.0026,-30.975,-32.025,2.55,,adl
0.387831,0.0554,0.0483,0.346,0.0096,-0.0066,-0.0026,-30.45,-31.95,2.85,,adl
0.388674,0.0554,0.0483,0.346,0.0096,-0.0066,-0.0026,-30.45,-31.95,2.85,,adl
0.3895,0.0531,0.0475,0.3343,0.0096,-0.0066,-0.0026,-30.45,-31.95,2.85,,adl
0.39066,0.0531,0.0475,0.3343,0.0023,0.0075,0.0154,-30.45,-31.95,2.85,,adl
0.39149,0.0531,0.0475,0.3343,0.0023,0.0075,0.0154,-30.45,-31.95,2.85,,adl
0.392217,0.0268,0.044,0.2652,0.0023,0.0075,0.0154,-30.45,-31.95,2.85,,adl
0.396578,0.0268,0.044,0.2652,0.0023,0.0075,0.0154,-30.45,-31.95,2.85,,adl
0.397537,0.0242,0.0452,0.189,0.0023,0.0075,0.0154,-30.45,-31.95,2.85,,adl
0.403595,0.0242,0.0452,0.189,0.0023,0.0075,0.0154,-30.45,-31.95,2.85,,adl
0.404757,0.0121,0.0557,0.1245,0.0023,0.0075,0.0154,-30.45,-31.95,2.85,,adl
0.407006,0.0121,0.0557,0.1245,0.0023,0.0075,0.0154,-30.45,-31.95,2.85,,adl
0.407848,0.0046,0.0782,0.0915,0.0023,0.0075,0.0154,-30.45,-31.95,2.85,,adl
0.411731,0.0046,0.0782,0.0915,0.0023,0.0075,0.0154,-30.45,-31.95,2.85,,adl
0.412758,-0.0031,0.103,0.0943,0.0023,0.0075,0.0154,-30.45,-31.95,2.85,,adl
0.415709,-0.0031,0.103,0.0943,0.0023,0.0075,0.0154,-30.45,-31.95,2.85,,adl
0.416545,0.002,0.109,0.1186,0.0023,0.0075,0.0154,-30.45,-31.95,2.85,,adl
0.420459,0.002,0.109,0.1186,0.0023,0.0075,0.0154,-30.45,-31.95,2.85,,adl
0.421142,0.0187,0.127,0.1429,0.0023,0.0075,0.0154,-30.45,-31.95,2.85,,adl
0.426867,0.0187,0.127,0.1429,0.0023,0.0075,0.0154,-30.45,-31.95,2.85,,adl
0.427902,0.0235,0.1119,0.1889,0.0023,0.0075,0.0154,-30.45,-31.95,2.85,,adl
0.432054,0.0235,0.1119,0.1889,0.0023,0.0075,0.0154,-30.45,-31.95,2.85,,adl
0.432781,0.0163,0.1188,0.2009,0.0023,0.0075,0.0154,-30.45,-31.95,2.85,,adl
0.435501,0.0163,0.1188,0.2009,0.0023,0.0075,0.0154,-30.45,-31.95,2.85,,adl
0.436225,0.0165,0.1344,0.1918,0.0023,0.0075,0.0154,-30.45,-31.95,2.85,,adl
0.440791,0.0165,0.1344,0.1918,0.0023,0.0075,0.0154,-30.45,-31.95,2.85,,adl
0.441785,0.071,0.0973,0.1631,0.0023,0.0075,0.0154,-30.45,-31.95,2.85,,adl
0.444823,0.071,0.0973,0.1631,0.0023,0.0075,0.0154,-30.45,-31.95,2.85,,adl
0.445562,0.0751,0.0963,0.1203,0.0023,0.0075,0.0154,-30.45,-31.95,2.85,,adl
0.450725,0.0751,0.0963,0.1203,0.0023,0.0075,0.0154,-30.45,-31.95,2.85,,adl
0.451651,0.0696,0.1047,0.0776,0.0023,0.0075,0.0154,-30.45,-31.95,2.85,,adl
0.456202,0.0696,0.1047,0.0776,0.0023,0.0075,0.0154,-30.45,-31.95,2.85,,adl
0.457134,0.0879,0.0896,0.0755,0.0023,0.0075,0.0154,-30.45,-31.95,2.85,,adl
0.459754,0.0879,0.0896,0.0755,0.0023,0.0075,0.0154,-30.75,-31.425,2.55,,adl
0.461032,0.0879,0.0896,0.0755,0.0157,0.0038,0.016,-30.75,-31.425,2.55,,adl
0.462126,0.0879,0.0896,0.0755,0.0157,0.0038,0.016,-30.75,-31.425,2.55,,adl
0.46306,0.0803,0.089,0.0804,0.0157,0.0038,0.016,-30.75,-31.425,2.55,,adl
0.464049,0.0803,0.089,0.0804,0.0157,0.0038,0.016,-30.75,-31.425,2.55,,adl
0.465005,0.0752,0.0744,0.0901,0.0157,0.0038,0.016,-30.75,-31.425,2.55,,adl
0.47708,0.0752,0.0744,0.0901,0.0157,0.0038,0.016,-30.75,-31.425,2.55,,adl
0.478453,0.0513,0.0649,0.102,0.0157,0.0038,0.016,-30.75,-31.425,2.55,,adl
0.479398,0.0513,0.0649,0.102,0.0157,0.0038,0.016,-30.75,-31.425,2.55,,adl
0.480435,0.0608,0.0675,0.157,0.0157,0.0038,0.016,-30.75,-31.425,2.55,,adl
0.48176,0.0608,0.0675,0.157,0.0157,0.0038,0.016,-30.75,-31.425,2.55,,adl
0.482676,0.0415,0.0674,0.1594,0.0157,0.0038,0.016,-30.75,-31.425,2.55,,adl
0.483828,0.0415,0.0674,0.1594,0.0157,0.0038,0.016,-30.75,-31.425,2.55,,adl
0.484503,0.0463,0.0461,0.1641,0.0157,0.0038,0.016,-30.75,-31.425,2.55,,adl
0.489494,0.0463,0.0461,0.1641,0.0157,0.0038,0.016,-30.75,-31.425,2.55,,adl
0.491661,0.032,0.0537,0.1664,0.0157,0.0038,0.016,-30.75,-31.425,2.55,,adl
0.498929,0.032,0.0537,0.1664,0.0157,0.0038,0.016,-30.75,-31.425,2.55,,adl
0.499733,0.0268,0.0538,0.1715,0.0157,0.0038,0.016,-30.75,-31.425,2.55,,adl
0.500327,0.0268,0.0538,0.1715,0.0157,0.0038,0.016,-30.75,-31.425,2.55,,adl
0.500835,0.0192,0.0658,0.1715,0.0157,0.0038,0.016,-30.75,-31.425,2.55,,adl
0.505025,0.0192,0.0658,0.1715,0.0157,0.0038,0.016,-30.75,-31.425,2.55,,adl
0.50566,0.0307,0.0681,0.1568,0.0157,0.0038,0.016,-30.75,-31.425,2.55,,adl
0.51081,0.0307,0.0681,0.1568,0.0157,0.0038,0.016,-30.75,-31.425,2.55,,adl
0.511491,0.0207,0.099,0.1569,0.0157,0.0038,0.016,-30.75,-31.425,2.55,,adl
0.513971,0.0207,0.099,0.1569,0.0157,0.0038,0.016,-30.75,-31.425,2.55,,adl
0.514484,0.0109,0.1131,0.1836,0.0157,0.0038,0.016,-30.75,-31.425,2.55,,adl
0.517243,0.0109,0.1131,0.1836,0.0157,0.0038,0.016,-30.75,-31.425,2.55,,adl
0.517798,0.044,0.0939,0.186,0.0157,0.0038,0.016,-30.75,-31.425,2.55,,adl
0.523303,0.044,0.0939,0.186,0.0157,0.0038,0.016,-30.75,-31.425,2.55,,adl
0.523864,0.027,0.0868,0.1908,0.0157,0.0038,0.016,-30.75,-31.425,2.55,,adl
0.524423,0.027,0.0868,0.1908,0.0157,0.0038,0.016,-30.675,-31.875,2.85,,adl
0.527792,0.027,0.0868,0.1908,-0.0035,-0.0002,-0.0009,-30.675,-31.875,2.85,,adl
0.528649,0.027,0.0868,0.1908,-0.0035,-0.0002,-0.0009,-30.675,-31.875,2.85,,adl
0.529255,0.0388,0.0795,0.2148,-0.0035,-0.0002,-0.0009,-30.675,-31.875,2.85,,adl
0.532972,0.0388,0.0795,0.2148,-0.0035,-0.0002,-0.0009,-30.675,-31.875,2.85,,adl
0.533752,0.029,0.0509,0.2004,-0.0035,-0.0002,-0.0009,-30.675,-31.875,2.85,,adl
0.537119,0.029,0.0509,0.2004,-0.0035,-0.0002,-0.0009,-30.675,-31.875,2.85,,adl
0.537913,0.0478,0.0509,0.1884,-0.0035,-0.0002,-0.0009,-30.675,-31.875,2.85,,adl
0.542902,0.0478,0.0509,0.1884,-0.0035,-0.0002,-0.0009,-30.675,-31.875,2.85,,adl
0.5439,0.0497,0.0485,0.1908,-0.0035,-0.0002,-0.0009,-30.675,-31.875,2.85,,adl
0.54712,0.0497,0.0485,0.1908,-0.0035,-0.0002,-0.0009,-30.675,-31.875,2.85,,adl
0.547898,0.0588,0.0224,0.1618,-0.0035,-0.0002,-0.0009,-30.675,-31.875,2.85,,adl
0.553355,0.0588,0.0224,0.1618,-0.0035,-0.0002,-0.0009,-30.675,-31.875,2.85,,adl
0.554353,0.0678,0.0345,0.1716,-0.0035,-0.0002,-0.0009,-30.675,-31.875,2.85,,adl
0.558935,0.0678,0.0345,0.1716,-0.0035,-0.0002,-0.0009,-30.675,-31.875,2.85,,adl
0.560119,0.0745,0.018,0.1545,-0.0035,-0.0002,-0.0009,-30.675,-31.875,2.85,,adl
0.564634,0.0745,0.018,0.1545,-0.0035,-0.0002,-0.0009,-30.675,-31.875,2.85,,adl
0.565588,0.0763,0.004,0.1714,-0.0035,-0.0002,-0.0009,-30.675,-31.875,2.85,,adl
0.566568,0.0763,0.004,0.1714,-0.0035,-0.0002,-0.0009,-30.675,-31.875,2.85,,adl
0.567381,0.0854,-0.0004,0.1976,-0.0035,-0.0002,-0.0009,-30.675,-31.875,2.85,,adl
0.572352,0.0854,-0.0004,0.1976,-0.0035,-0.0002,-0.0009,-30.675,-31.875,2.85,,adl
0.573395,0.0848,-0.019,0.2119,-0.0035,-0.0002,-0.0009,-30.675,-31.875,2.85,,adl
0.578948,0.0848,-0.019,0.2119,-0.0035,-0.0002,-0.0009,-30.675,-31.875,2.85,,adl
0.580275,0.0866,-0.0138,0.1998,-0.0035,-0.0002,-0.0009,-30.675,-31.875,2.85,,adl
0.581393,0.0866,-0.0138,0.1998,-0.0035,-0.0002,-0.0009,-30.675,-31.875,2.85,,adl
0.582426,0.0883,-0.0181,0.1996,-0.0035,-0.0002,-0.0009,-30.675,-31.875,2.85,,adl
0.58668,0.0883,-0.0181,0.1996,-0.0035,-0.0002,-0.0009,-30.675,-31.875,2.85,,adl
0.58761,0.0806,-0.0152,0.1995,-0.0035,-0.0002,-0.0009,-30.675,-31.875,2.85,,adl
0.592752,0.0806,-0.0152,0.1995,-0.0035,-0.0002,-0.0009,-30.675,-31.875,2.85,,adl
0.594092,0.0806,-0.0152,0.1995,-0.0035,-0.0002,-0.0009,-30.675,-31.875,2.85,,adl
0.59528,0.0753,-0.0148,0.209,-0.0035,-0.0002,-0.0009,-30.675,-31.875,2.85,,adl
0.596285,0.0753,-0.0148,0.209,0.0005,-0.0012,-0.0023,-30.675,-31.875,2.85,,adl
0.597126,0.0753,-0.0148,0.209,0.0005,-0.0012,-0.0023,-30.675,-31.875,2.85,,adl
0.597989,0.0701,-0.005,0.2185,0.0005,-0.0012,-0.0023,-30.675,-31.875,2.85,,adl
0.601884,0.0701,-0.005,0.2185,0.0005,-0.0012,-0.0023,-30.675,-31.875,2.85,,adl
0.602863,0.0505,0.0,0.2088,0.0005,-0.0012,-0.0023,-30.675,-31.875,2.85,,adl
0.606887,0.0505,0.0,0.2088,0.0005,-0.0012,-0.0023,-30.675,-31.875,2.85,,adl
0.607791,0.0477,0.0049,0.2088,0.0005,-0.0012,-0.0023,-30.675,-31.875,2.85,,adl
0.614624,0.0477,0.0049,0.2088,0.0005,-0.0012,-0.0023,-30.675,-31.875,2.85,,adl
0.616324,0.0448,0.0098,0.1968,0.0005,-0.0012,-0.0023,-30.675,-31.875,2.85,,adl
0.617513,0.0448,0.0098,0.1968,0.0005,-0.0012,-0.0023,-30.675,-31.875,2.85,,adl
0.618365,0.0327,0.0054,0.2063,0.0005,-0.0012,-0.0023,-30.675,-31.875,2.85,,adl
0.62116,0.0327,0.0054,0.2063,0.0005,-0.0012,-0.0023,-30.675,-31.875,2.85,,adl
0.622052,0.0466,0.0149,0.1895,0.0005,-0.0012,-0.0023,-30.675,-31.875,2.85,,adl
0.626408,0.0466,0.0149,0.1895,0.0005,-0.0012,-0.0023,-30.675,-31.875,2.85,,adl
0.627438,0.0318,0.0194,0.1968,0.0005,-0.0012,-0.0023,-30.675,-31.875,2.85,,adl
0.631216,0.0318,0.0194,0.1968,0.0005,-0.0012,-0.0023,-30.675,-31.875,2.85,,adl
0.632021,0.0291,0.036,0.1945,0.0005,-0.0012,-0.0023,-30.675,-31.875,2.85,,adl
0.635298,0.0291,0.036,0.1945,0.0005,-0.0012,-0.0023,-30.675,-31.875,2.85,,adl
0.636075,0.0406,0.0263,0.1778,0.0005,-0.0012,-0.0023,-30.675,-31.875,2.85,,adl
0.641622,0.0406,0.0263,0.1778,0.0005,-0.0012,-0.0023,-30.675,-31.875,2.85,,adl
0.642856,0.0283,0.0498,0.1707,0.0005,-0.0012,-0.0023,-30.675,-31.875,2.85,,adl
0.646839,0.0283,0.0498,0.1707,0.0005,-0.0012,-0.0023,-30.675,-31.875,2.85,,adl
0.647737,0.0305,0.0569,0.1633,0.0005,-0.0012,-0.0023,-30.675,-31.875,2.85,,adl
0.651685,0.0305,0.0569,0.1633,0.0005,-0.0012,-0.0023,-30.675,-31.875,2.85,,adl
0.652673,0.0301,0.0631,0.154,0.0005,-0.0012,-0.0023,-30.675,-31.875,2.85,,adl
0.655337,0.0301,0.0631,0.154,0.0005,-0.0012,-0.0023,-30.675,-31.875,2.85,,adl
0.656183,0.037,0.0772,0.1374,0.0005,-0.0012,-0.0023,-30.675,-31.875,2.85,,adl
0.661065,0.037,0.0772,0.1374,0.0005,-0.0012,-0.0023,-30.675,-31.875,2.85,,adl
0.66235,0.0509,0.067,0.116,0.0005,-0.0012,-0.0023,-30.675,-31.875,2.85,,adl
0.663315,0.0509,0.067,0.116,0.0005,-0.0012,-0.0023,-30.375,-32.25,2.85,,adl
0.664273,0.0509,0.067,0.116,0.0067,-0.0057,-0.0127,-30.375,-32.25,2.85,,adl
0.665124,0.0509,0.067,0.116,0.0067,-0.0057,-0.0127,-30.375,-32.25,2.85,,adl
0.666072,0.06,0.0779,0.1187,0.0067,-0.0057,-0.0127,-30.375,-32.25,2.85,,adl
0.670819,0.06,0.0779,0.1187,0.0067,-0.0057,-0.0127,-30.375,-32.25,2.85,,adl
0.671855,0.0501,0.0751,0.1285,0.0067,-0.0057,-0.0127,-30.375,-32.25,2.85,,adl
0.675886,0.0501,0.0751,0.1285,0.0067,-0.0057,-0.0127,-30.375,-32.25,2.85,,adl
0.677225,0.0522,0.0604,0.1214,0.0067,-0.0057,-0.0127,-30.375,-32.25,2.85,,adl
0.679723,0.0522,0.0604,0.1214,0.0067,-0.0057,-0.0127,-30.375,-32.25,2.85,,adl
0.680629,0.0329,0.0746,0.1597,0.0067,-0.0057,-0.0127,-30.375,-32.25,2.85,,adl
0.68421,0.0329,0.0746,0.1597,0.0067,-0.0057,-0.0127,-30.375,-32.25,2.85,,adl
0.685087,0.019,0.065,0.1791,0.0067,-0.0057,-0.0127,-30.375,-32.25,2.85,,adl
0.6892,0.019,0.065,0.1791,0.0067,-0.0057,-0.0127,-30.375,-32.25,2.85,,adl
0.690229,0.0121,0.0722,0.2031,0.0067,-0.0057,-0.0127,-30.375,-32.25,2.85,,adl
0.694318,0.0121,0.0722,0.2031,0.0067,-0.0057,-0.0127,-30.375,-32.25,2.85,,adl
0.695637,0.0002,0.0627,0.2174,0.0067,-0.0057,-0.0127,-30.375,-32.25,2.85,,adl
0.699551,0.0002,0.0627,0.2174,0.0067,-0.0057,-0.0127,-30.375,-32.25,2.85,,adl
0.700526,0.0004,0.0628,0.215,0.0067,-0.0057,-0.0127,-30.375,-32.25,2.85,,adl
0.705013,0.0004,0.0628,0.215,0.0067,-0.0057,-0.0127,-30.375,-32.25,2.85,,adl
0.707497,-0.0234,0.0651,0.1935,0.0067,-0.0057,-0.0127,-30.375,-32.25,2.85,,adl
0.717033,-0.0234,0.0651,0.1935,0.0067,-0.0057,-0.0127,-30.375,-32.25,2.85,,adl
0.71886,-0.0328,0.0674,0.2031,0.0067,-0.0057,-0.0127,-30.375,-32.25,2.85,,adl
0.720182,-0.0328,0.0674,0.2031,0.0067,-0.0057,-0.0127,-30.375,-32.25,2.85,,adl
0.721464,-0.0111,0.0981,0.2056,0.0067,-0.0057,-0.0127,-30.375,-32.25,2.85,,adl
0.726643,-0.0111,0.0981,0.2056,0.0067,-0.0057,-0.0127,-30.375,-32.25,2.85,,adl
0.728226,-0.0089,0.0881,0.1913,0.0067,-0.0057,-0.0127,-30.375,-32.25,2.85,,adl
0.729659,-0.0089,0.0881,0.1913,0.0067,-0.0057,-0.0127,-30.375,-32.25,2.85,,adl
0.73095,0.0055,0.0974,0.1914,0.0067,-0.0057,-0.0127,-30.375,-32.25,2.85,,adl
0.732051,0.0055,0.0974,0.1914,0.0067,-0.0057,-0.0127,-30.375,-32.25,2.85,,adl
0.733303,0.0217,0.0945,0.1772,0.0067,-0.0057,-0.0127,-30.375,-32.25,2.85,,adl
0.734314,0.0217,0.0945,0.1772,0.0067,-0.0057,-0.0127,-30.15,-31.575,2.625,,adl
0.739058,0.0217,0.0945,0.1772,0.0017,-0.0011,-0.0052,-30.15,-31.575,2.625,,adl
0.739987,0.0217,0.0945,0.1772,0.0017,-0.0011,-0.0052,-30.15,-31.575,2.625,,adl
0.740695,0.0329,0.0745,0.1557,0.0017,-0.0011,-0.0052,-30.15,-31.575,2.625,,adl
0.744282,0.0329,0.0745,0.1557,0.0017,-0.0011,-0.0052,-30.15,-31.575,2.625,,adl
0.745125,0.0348,0.0716,0.1463,0.0017,-0.0011,-0.0052,-30.15,-31.575,2.625,,adl
0.747722,0.0348,0.0716,0.1463,0.0017,-0.0011,-0.0052,-30.15,-31.575,2.625,,adl
0.748439,0.0271,0.0759,0.1369,0.0017,-0.0011,-0.0052,-30.15,-31.575,2.625,,adl
0.753505,0.0271,0.0759,0.1369,0.0017,-0.0011,-0.0052,-30.15,-31.575,2.625,,adl
0.754153,0.0245,0.0732,0.1202,0.0017,-0.0011,-0.0052,-30.15,-31.575,2.625,,adl
0.758252,0.0245,0.0732,0.1202,0.0017,-0.0011,-0.0052,-30.15,-31.575,2.625,,adl
0.75914,0.0168,0.0847,0.1252,0.0017,-0.0011,-0.0052,-30.15,-31.575,2.625,,adl
0.763016,0.0168,0.0847,0.1252,0.0017,-0.0011,-0.0052,-30.15,-31.575,2.625,,adl
0.763704,0.0261,0.0797,0.13,0.0017,-0.0011,-0.0052,-30.15,-31.575,2.625,,adl
0.768405,0.0261,0.0797,0.13,0.0017,-0.0011,-0.0052,-30.15,-31.575,2.625,,adl
0.769011,0.0353,0.0748,0.1324,0.0017,-0.0011,-0.0052,-30.15,-31.575,2.625,,adl
0.77277,0.0353,0.0748,0.1324,0.0017,-0.0011,-0.0052,-30.15,-31.575,2.625,,adl
0.773533,0.0398,0.0794,0.1711,0.0017,-0.0011,-0.0052,-30.15,-31.575,2.625,,adl
0.779295,0.0398,0.0794,0.1711,0.0017,-0.0011,-0.0052,-30.15,-31.575,2.625,,adl
0.780326,0.0276,0.0799,0.1683,0.0017,-0.0011,-0.0052,-30.15,-31.575,2.625,,adl
0.783035,0.0276,0.0799,0.1683,0.0017,-0.0011,-0.0052,-30.15,-31.575,2.625,,adl
0.783956,0.037,0.0538,0.1757,0.0017,-0.0011,-0.0052,-30.15,-31.575,2.625,,adl
0.788086,0.037,0.0538,0.1757,0.0017,-0.0011,-0.0052,-30.15,-31.575,2.625,,adl
0.78897,0.0485,0.0446,0.1756,0.0017,-0.0011,-0.0052,-30.15,-31.575,2.625,,adl
0.792782,0.0485,0.0446,0.1756,0.0017,-0.0011,-0.0052,-30.15,-31.575,2.625,,adl
0.794029,0.0362,0.0353,0.1489,0.0017,-0.0011,-0.0052,-30.15,-31.575,2.625,,adl
0.797982,0.0362,0.0353,0.1489,0.0017,-0.0011,-0.0052,-30.15,-31.575,2.625,,adl
0.798875,0.0312,0.0235,0.1321,0.0017,-0.0011,-0.0052,-30.15,-31.575,2.625,,adl
0.802205,0.0312,0.0235,0.1321,0.0017,-0.0011,-0.0052,-31.125,-31.35,2.175,,adl
0.803005,0.0312,0.0235,0.1321,0.0017,-0.0011,-0.0052,-31.125,-31.35,2.175,,adl
0.803738,0.0403,0.0149,0.1509,0.0017,-0.0011,-0.0052,-31.125,-31.35,2.175,,adl
0.805606,0.0403,0.0149,0.1509,-0.0038,-0.0024,-0.0026,-31.125,-31.35,2.175,,adl
0.806638,0.0403,0.0149,0.1509,-0.0038,-0.0024,-0.0026,-31.125,-31.35,2.175,,adl
0.807445,0.0211,0.0081,0.1918,-0.0038,-0.0024,-0.0026,-31.125,-31.35,2.175,,adl
0.812575,0.0211,0.0081,0.1918,-0.0038,-0.0024,-0.0026,-31.125,-31.35,2.175,,adl
0.813779,0.0257,-0.01,0.2322,-0.0038,-0.0024,-0.0026,-31.125,-31.35,2.175,,adl
0.818168,0.0257,-0.01,0.2322,-0.0038,-0.0024,-0.0026,-31.125,-31.35,2.175,,adl
0.819264,0.016,0.003,0.2414,-0.0038,-0.0024,-0.0026,-31.125,-31.35,2.175,,adl
0.822225,0.016,0.003,0.2414,-0.0038,-0.0024,-0.0026,-31.125,-31.35,2.175,,adl
0.823128,0.0063,0.0039,0.2459,-0.0038,-0.0024,-0.0026,-31.125,-31.35,2.175,,adl
0.830641,0.0063,0.0039,0.2459,-0.0038,-0.0024,-0.0026,-31.125,-31.35,2.175,,adl
0.831846,0.001,0.0026,0.26,-0.0038,-0.0024,-0.0026,-31.125,-31.35,2.175,,adl
0.832837,0.001,0.0026,0.26,-0.0038,-0.0024,-0.0026,-31.125,-31.35,2.175,,adl
0.833653,0.0434,0.0102,0.2575,-0.0038,-0.0024,-0.0026,-31.125,-31.35,2.175,,adl
0.836895,0.0434,0.0102,0.2575,-0.0038,-0.0024,-0.0026,-31.125,-31.35,2.175,,adl
0.837891,0.0455,0.0273,0.2669,-0.0038,-0.0024,-0.0026,-31.125,-31.35,2.175,,adl
0.843142,0.0455,0.0273,0.2669,-0.0038,-0.0024,-0.0026,-31.125,-31.35,2.175,,adl
0.844336,0.0758,0.0319,0.2766,-0.0038,-0.0024,-0.0026,-31.125,-31.35,2.175,,adl
0.845299,0.0758,0.0319,0.2766,-0.0038,-0.0024,-0.0026,-31.125,-31.35,2.175,,adl
0.846167,0.0752,0.0322,0.2406,-0.0038,-0.0024,-0.0026,-31.125,-31.35,2.175,,adl
0.851381,0.0752,0.0322,0.2406,-0.0038,-0.0024,-0.0026,-31.125,-31.35,2.175,,adl
0.852324,0.0772,0.0341,0.1615,-0.0038,-0.0024,-0.0026,-31.125,-31.35,2.175,,adl
0.856303,0.0772,0.0341,0.1615,-0.0038,-0.0024,-0.0026,-31.125,-31.35,2.175,,adl
0.857238,0.06,0.0165,0.0565,-0.0038,-0.0024,-0.0026,-31.125,-31.35,2.175,,adl
0.86269,0.06,0.0165,0.0565,-0.0038,-0.0024,-0.0026,-31.125,-31.35,2.175,,adl
0.863746,0.0562,0.0336,-0.0314,-0.0038,-0.0024,-0.0026,-31.125,-31.35,2.175,,adl
0.864659,0.0562,0.0336,-0.0314,-0.0038,-0.0024,-0.0026,-31.125,-31.35,2.175,,adl
0.865556,0.0425,0.0635,-0.0956,-0.0038,-0.0024,-0.0026,-31.125,-31.35,2.175,,adl
0.873082,0.0425,0.0635,-0.0956,-0.0038,-0.0024,-0.0026,-30.75,-31.65,2.85,,adl
0.874285,0.0425,0.0635,-0.0956,-0.0038,-0.0024,-0.0026,-30.75,-31.65,2.85,,adl
0.875187,0.0263,0.0699,-0.1121,-0.0038,-0.0024,-0.0026,-30.75,-31.65,2.85,,adl
0.876006,0.0263,0.0699,-0.1121,0.0017,-0.0102,-0.0053,-30.75,-31.65,2.85,,adl
0.876835,0.0263,0.0699,-0.1121,0.0017,-0.0102,-0.0053,-30.75,-31.65,2.85,,adl
0.877573,0.0339,0.0459,-0.0761,0.0017,-0.0102,-0.0053,-30.75,-31.65,2.85,,adl
0.883867,0.0339,0.0459,-0.0761,0.0017,-0.0102,-0.0053,-30.75,-31.65,2.85,,adl
0.88496,0.0335,0.0664,-0.0471,0.0017,-0.0102,-0.0053,-30.75,-31.65,2.85,,adl
0.885891,0.0335,0.0664,-0.0471,0.0017,-0.0102,-0.0053,-30.75,-31.65,2.85,,adl
0.886742,0.0128,0.0954,0.0175,0.0017,-0.0102,-0.0053,-30.75,-31.65,2.85,,adl
0.890986,0.0128,0.0954,0.0175,0.0017,-0.0102,-0.0053,-30.75,-31.65,2.85,,adl
0.89192,0.0081,0.1439,0.1346,0.0017,-0.0102,-0.0053,-30.75,-31.65,2.85,,adl
0.897015,0.0081,0.1439,0.1346,0.0017,-0.0102,-0.0053,-30.75,-31.65,2.85,,adl
0.898113,0.0394,0.1361,0.4406,0.0017,-0.0102,-0.0053,-30.75,-31.65,2.85,,adl
0.898995,0.0394,0.1361,0.4406,0.0017,-0.0102,-0.0053,-30.75,-31.65,2.85,,adl
0.899753,0.0488,0.0621,0.5912,0.0017,-0.0102,-0.0053,-30.75,-31.65,2.85,,adl
0.904895,0.0488,0.0621,0.5912,0.0017,-0.0102,-0.0053,-30.75,-31.65,2.85,,adl
0.905823,0.039,0.0342,0.6046,0.0017,-0.0102,-0.0053,-30.75,-31.65,2.85,,adl
0.910535,0.039,0.0342,0.6046,0.0017,-0.0102,-0.0053,-30.75,-31.65,2.85,,adl
0.911564,0.0495,0.0179,0.5781,0.0017,-0.0102,-0.0053,-30.75,-31.65,2.85,,adl
0.914697,0.0495,0.0179,0.5781,0.0017,-0.0102,-0.0053,-30.75,-31.65,2.85,,adl
0.91559,0.0906,0.0173,0.3988,0.0017,-0.0102,-0.0053,-30.75,-31.65,2.85,,adl
0.919277,0.0906,0.0173,0.3988,0.0017,-0.0102,-0.0053,-30.75,-31.65,2.85,,adl
0.920045,0.1234,-0.0008,0.0592,0.0017,-0.0102,-0.0053,-30.75,-31.65,2.85,,adl
0.926739,0.1234,-0.0008,0.0592,0.0017,-0.0102,-0.0053,-30.75,-31.65,2.85,,adl
0.928033,0.1395,0.0117,-0.1987,0.0017,-0.0102,-0.0053,-30.75,-31.65,2.85,,adl
0.929049,0.1395,0.0117,-0.1987,0.0017,-0.0102,-0.0053,-30.75,-31.65,2.85,,adl
0.930081,0.1248,0.0438,-0.2365,0.0017,-0.0102,-0.0053,-30.75,-31.65,2.85,,adl
0.934429,0.1248,0.0438,-0.2365,0.0017,-0.0102,-0.0053,-30.75,-31.65,2.85,,adl
0.935418,0.0819,0.06,-0.1789,0.0017,-0.0102,-0.0053,-30.75,-31.65,2.85,,adl
0.938634,0.0819,0.06,-0.1789,0.0017,-0.0102,-0.0053,-30.75,-31.65,2.85,,adl
0.939532,0.0609,0.0815,-0.076,0.0017,-0.0102,-0.0053,-30.75,-31.65,2.85,,adl
0.940355,0.0609,0.0815,-0.076,0.0017,-0.0102,-0.0053,-30.9,-31.875,2.85,,adl
0.944469,0.0609,0.0815,-0.076,-0.0082,0.0145,0.0015,-30.9,-31.875,2.85,,adl
0.945534,0.0609,0.0815,-0.076,-0.0082,0.0145,0.0015,-30.9,-31.875,2.85,,adl
0.946472,0.0131,0.0833,0.0821,-0.0082,0.0145,0.0015,-30.9,-31.875,2.85,,adl
0.94933,0.0131,0.0833,0.0821,-0.0082,0.0145,0.0015,-30.9,-31.875,2.85,,adl
0.950172,-0.0157,0.0749,0.2559,-0.0082,0.0145,0.0015,-30.9,-31.875,2.85,,adl
0.954367,-0.0157,0.0749,0.2559,-0.0082,0.0145,0.0015,-30.9,-31.875,2.85,,adl
0.955066,-0.0269,0.0412,0.3844,-0.0082,0.0145,0.0015,-30.9,-31.875,2.85,,adl
0.963999,-0.0269,0.0412,0.3844,-0.0082,0.0145,0.0015,-30.9,-31.875,2.85,,adl
0.966311,0.0066,-0.0178,0.4009,-0.0082,0.0145,0.0015,-30.9,-31.875,2.85,,adl
0.968843,0.0066,-0.0178,0.4009,-0.0082,0.0145,0.0015,-30.9,-31.875,2.85,,adl
0.969964,0.0255,-0.0326,0.3358,-0.0082,0.0145,0.0015,-30.9,-31.875,2.85,,adl
0.978978,0.0255,-0.0326,0.3358,-0.0082,0.0145,0.0015,-30.9,-31.875,2.85,,adl
0.980209,0.0226,-0.0509,0.2685,-0.0082,0.0145,0.0015,-30.9,-31.875,2.85,,adl
0.981387,0.0226,-0.0509,0.2685,-0.0082,0.0145,0.0015,-30.9,-31.875,2.85,,adl
0.982353,0.034,-0.0336,0.187,-0.0082,0.0145,0.0015,-30.9,-31.875,2.85,,adl
0.983449,0.034,-0.0336,0.187,-0.0082,0.0145,0.0015,-30.9,-31.875,2.85,,adl
0.984413,0.0215,-0.0379,0.1171,-0.0082,0.0145,0.0015,-30.9,-31.875,2.85,,adl
0.98781,0.0215,-0.0379,0.1171,-0.0082,0.0145,0.0015,-30.9,-31.875,2.85,,adl
0.988585,-0.0121,-0.0159,0.117,-0.0082,0.0145,0.0015,-30.9,-31.875,2.85,,adl
0.992673,-0.0121,-0.0159,0.117,-0.0082,0.0145,0.0015,-30.9,-31.875,2.85,,adl
0.993445,-0.0193,0.0013,0.1408,-0.0082,0.0145,0.0015,-30.9,-31.875,2.85,,adl
0.997033,-0.0193,0.0013,0.1408,-0.0082,0.0145,0.0015,-30.9,-31.875,2.85,,adl
0.99765,-0.041,0.0139,0.1645,-0.0082,0.0145,0.0015,-30.9,-31.875,2.85,,adl
1.002562,-0.041,0.0139,0.1645,-0.0082,0.0145,0.0015,-30.9,-31.875,2.85,,adl
1.003194,-0.0504,0.0242,0.1981,-0.0082,0.0145,0.0015,-30.9,-31.875,2.85,,adl
1.009499,-0.0504,0.0242,0.1981,-0.0082,0.0145,0.0015,-30.9,-31.875,2.85,,adl
1.010781,-0.0383,0.0347,0.2194,-0.0082,0.0145,0.0015,-30.9,-31.875,2.85,,adl
1.014563,-0.0383,0.0347,0.2194,-0.0082,0.0145,0.0015,-30.75,-31.725,2.25,,adl
1.01541,-0.0383,0.0347,0.2194,-0.0082,0.0145,0.0015,-30.75,-31.725,2.25,,adl
1.016098,-0.0358,0.0378,0.2287,-0.0082,0.0145,0.0015,-30.75,-31.725,2.25,,adl
1.016929,-0.0358,0.0378,0.2287,-0.0104,-0.004,-0.0057,-30.75,-31.725,2.25,,adl
1.01791,-0.0358,0.0378,0.2287,-0.0104,-0.004,-0.0057,-30.75,-31.725,2.25,,adl
1.018821,-0.0237,0.0433,0.2285,-0.0104,-0.004,-0.0057,-30.75,-31.725,2.25,,adl
1.021889,-0.0237,0.0433,0.2285,-0.0104,-0.004,-0.0057,-30.75,-31.725,2.25,,adl
1.022887,-0.0286,0.0557,0.226,-0.0104,-0.004,-0.0057,-30.75,-31.725,2.25,,adl
1.029138,-0.0286,0.0557,0.226,-0.0104,-0.004,-0.0057,-30.75,-31.725,2.25,,adl
1.030339,-0.012,0.0584,0.2092,-0.0104,-0.004,-0.0057,-30.75,-31.725,2.25,,adl
1.031249,-0.012,0.0584,0.2092,-0.0104,-0.004,-0.0057,-30.75,-31.725,2.25,,adl
1.032057,-0.0025,0.0586,0.1828,-0.0104,-0.004,-0.0057,-30.75,-31.725,2.25,,adl
1.037117,-0.0025,0.0586,0.1828,-0.0104,-0.004,-0.0057,-30.75,-31.725,2.25,,adl
1.038068,0.0188,0.0422,0.1875,-0.0104,-0.004,-0.0057,-30.75,-31.725,2.25,,adl
1.042254,0.0188,0.0422,0.1875,-0.0104,-0.004,-0.0057,-30.75,-31.725,2.25,,adl
1.043229,0.0258,0.052,0.1754,-0.0104,-0.004,-0.0057,-30.75,-31.725,2.25,,adl
1.047243,0.0258,0.052,0.1754,-0.0104,-0.004,-0.0057,-30.75,-31.725,2.25,,adl
1.048063,0.0776,0.0403,0.1658,-0.0104,-0.004,-0.0057,-30.75,-31.725,2.25,,adl
1.051909,0.0776,0.0403,0.1658,-0.0104,-0.004,-0.0057,-30.75,-31.725,2.25,,adl
1.0527,0.0287,0.0405,0.1657,-0.0104,-0.004,-0.0057,-30.75,-31.725,2.25,,adl
1.055704,0.0287,0.0405,0.1657,-0.0104,-0.004,-0.0057,-30.75,-31.725,2.25,,adl
1.056473,0.0555,0.0738,0.1898,-0.0104,-0.004,-0.0057,-30.75,-31.725,2.25,,adl
1.061145,0.0555,0.0738,0.1898,-0.0104,-0.004,-0.0057,-30.75,-31.725,2.25,,adl
1.062206,0.1397,0.0497,0.1731,-0.0104,-0.004,-0.0057,-30.75,-31.725,2.25,,adl
1.066416,0.1397,0.0497,0.1731,-0.0104,-0.004,-0.0057,-30.75,-31.725,2.25,,adl
1.067224,0.1219,0.0852,0.1395,-0.0104,-0.004,-0.0057,-30.75,-31.725,2.25,,adl
1.074263,0.1219,0.0852,0.1395,-0.0104,-0.004,-0.0057,-30.75,-31.725,2.25,,adl
1.075294,0.1096,0.0827,0.1515,-0.0104,-0.004,-0.0057,-30.75,-31.725,2.25,,adl
1.076216,0.1096,0.0827,0.1515,-0.0104,-0.004,-0.0057,-30.75,-31.725,2.25,,adl
1.076999,0.0755,0.0919,0.1782,-0.0104,-0.004,-0.0057,-30.75,-31.725,2.25,,adl
1.081468,0.0755,0.0919,0.1782,-0.0104,-0.004,-0.0057,-30.825,-31.875,2.55,,adl
1.082677,0.0755,0.0919,0.1782,-0.0104,-0.004,-0.0057,-30.825,-31.875,2.55,,adl
1.083473,0.0468,0.0918,0.2357,-0.0104,-0.004,-0.0057,-30.825,-31.875,2.55,,adl
1.084374,0.0468,0.0918,0.2357,-0.002,-0.0005,0.0124,-30.825,-31.875,2.55,,adl
1.085161,0.0468,0.0918,0.2357,-0.002,-0.0005,0.0124,-30.825,-31.875,2.55,,adl
1.085935,0.0393,0.0868,0.2022,-0.002,-0.0005,0.0124,-30.825,-31.875,2.55,,adl
1.093512,0.0393,0.0868,0.2022,-0.002,-0.0005,0.0124,-30.825,-31.875,2.55,,adl
1.09461,0.0487,0.103,0.1952,-0.002,-0.0005,0.0124,-30.825,-31.875,2.55,,adl
1.095499,0.0487,0.103,0.1952,-0.002,-0.0005,0.0124,-30.825,-31.875,2.55,,adl
1.096261,0.0604,0.0944,0.1427,-0.002,-0.0005,0.0124,-30.825,-31.875,2.55,,adl
1.101077,0.0604,0.0944,0.1427,-0.002,-0.0005,0.0124,-30.825,-31.875,2.55,,adl
1.102009,0.0693,0.0911,0.1263,-0.002,-0.0005,0.0124,-30.825,-31.875,2.55,,adl
1.10473,0.0693,0.0911,0.1263,-0.002,-0.0005,0.0124,-30.825,-31.875,2.55,,adl
1.105528,0.0592,0.0902,0.1338,-0.002,-0.0005,0.0124,-30.825,-31.875,2.55,,adl
1.110015,0.0592,0.0902,0.1338,-0.002,-0.0005,0.0124,-30.825,-31.875,2.55,,adl
1.111027,0.0611,0.0941,0.1244,-0.002,-0.0005,0.0124,-30.825,-31.875,2.55,,adl
1.115694,0.0611,0.0941,0.1244,-0.002,-0.0005,0.0124,-30.825,-31.875,2.55,,adl
1.116585,0.0656,0.0936,0.1509,-0.002,-0.0005,0.0124,-30.825,-31.875,2.55,,adl
1.120425,0.0656,0.0936,0.1509,-0.002,-0.0005,0.0124,-30.825,-31.875,2.55,,adl
1.121238,0.0534,0.0693,0.1534,-0.002,-0.0005,0.0124,-30.825,-31.875,2.55,,adl
1.125421,0.0534,0.0693,0.1534,-0.002,-0.0005,0.0124,-30.825,-31.875,2.55,,adl
1.126524,0.0413,0.0548,0.1655,-0.002,-0.0005,0.0124,-30.825,-31.875,2.55,,adl
1.129994,0.0413,0.0548,0.1655,-0.002,-0.0005,0.0124,-30.825,-31.875,2.55,,adl
1.130819,0.0315,0.0428,0.1535,-0.002,-0.0005,0.0124,-30.825,-31.875,2.55,,adl
1.13429,0.0315,0.0428,0.1535,-0.002,-0.0005,0.0124,-30.825,-31.875,2.55,,adl
1.13509,0.0455,0.0334,0.1654,-0.002,-0.0005,0.0124,-30.825,-31.875,2.55,,adl
1.140012,0.0455,0.0334,0.1654,-0.002,-0.0005,0.0124,-30.825,-31.875,2.55,,adl
1.140843,0.057,0.0028,0.2206,-0.002,-0.0005,0.0124,-30.825,-31.875,2.55,,adl
1.145365,0.057,0.0028,0.2206,-0.002,-0.0005,0.0124,-30.825,-31.875,2.55,,adl
1.146473,0.0373,0.008,0.2205,-0.002,-0.0005,0.0124,-30.825,-31.875,2.55,,adl
1.149321,0.0373,0.008,0.2205,-0.002,-0.0005,0.0124,-31.425,-31.35,2.775,,adl
1.150216,0.0373,0.008,0.2205,-0.002,-0.0005,0.0124,-31.425,-31.35,2.775,,adl
1.150945,0.0271,-0.0011,0.2467,-0.002,-0.0005,0.0124,-31.425,-31.35,2.775,,adl
1.153802,0.0271,-0.0011,0.2467,0.0046,0.0032,0.0105,-31.425,-31.35,2.775,,adl
1.154685,0.0271,-0.0011,0.2467,0.0046,0.0032,0.0105,-31.425,-31.35,2.775,,adl
1.155498,0.0217,-0.0268,0.2082,0.0046,0.0032,0.0105,-31.425,-31.35,2.775,,adl
1.161576,0.0217,-0.0268,0.2082,0.0046,0.0032,0.0105,-31.425,-31.35,2.775,,adl
1.163543,0.033,-0.0502,0.1288,0.0046,0.0032,0.0105,-31.425,-31.35,2.775,,adl
1.165241,0.033,-0.0502,0.1288,0.0046,0.0032,0.0105,-31.425,-31.35,2.775,,adl
1.166561,0.0255,-0.0186,0.0808,0.0046,0.0032,0.0105,-31.425,-31.35,2.775,,adl
1.168019,0.0255,-0.0186,0.0808,0.0046,0.0032,0.0105,-31.425,-31.35,2.775,,adl
1.169142,0.0587,0.0001,0.2033,0.0046,0.0032,0.0105,-31.425,-31.35,2.775,,adl
1.173556,0.0587,0.0001,0.2033,0.0046,0.0032,0.0105,-31.425,-31.35,2.775,,adl
1.174331,0.1038,0.0219,0.2918,0.0046,0.0032,0.0105,-31.425,-31.35,2.775,,adl
1.17942,0.1038,0.0219,0.2918,0.0046,0.0032,0.0105,-31.425,-31.35,2.775,,adl
1.180205,-0.2369,0.0889,0.2798,0.0046,0.0032,0.0105,-31.425,-31.35,2.775,,adl
1.183641,-0.2369,0.0889,0.2798,0.0046,0.0032,0.0105,-31.425,-31.35,2.775,,adl
1.184411,0.0517,-0.0325,0.2581,0.0046,0.0032,0.0105,-31.425,-31.35,2.775,,adl
1.188569,0.0517,-0.0325,0.2581,0.0046,0.0032,0.0105,-31.425,-31.35,2.775,,adl
1.18936,0.0937,-0.0166,0.148,0.0046,0.0032,0.0105,-31.425,-31.35,2.775,,adl
1.194753,0.0937,-0.0166,0.148,0.0046,0.0032,0.0105,-31.425,-31.35,2.775,,adl
1.195798,0.0091,0.0136,0.0622,0.0046,0.0032,0.0105,-31.425,-31.35,2.775,,adl
1.197629,0.0091,0.0136,0.0622,0.0046,0.0032,0.0105,-31.425,-31.35,2.775,,adl
1.198478,-0.0452,0.0088,0.0167,0.0046,0.0032,0.0105,-31.425,-31.35,2.775,,adl
1.202545,-0.0452,0.0088,0.0167,0.0046,0.0032,0.0105,-31.425,-31.35,2.775,,adl
1.203475,-0.0665,0.0579,0.0721,0.0046,0.0032,0.0105,-31.425,-31.35,2.775,,adl
1.210405,-0.0665,0.0579,0.0721,0.0046,0.0032,0.0105,-31.425,-31.35,2.775,,adl
1.212476,-0.0558,0.0553,0.1271,0.0046,0.0032,0.0105,-31.425,-31.35,2.775,,adl
1.213971,-0.0558,0.0553,0.1271,0.0046,0.0032,0.0105,-31.425,-31.35,2.775,,adl
1.21515,-0.0218,0.0837,0.1512,0.0046,0.0032,0.0105,-31.425,-31.35,2.775,,adl
1.219253,-0.0218,0.0837,0.1512,0.0046,0.0032,0.0105,-31.425,-31.35,2.775,,adl
1.220694,-0.0071,0.0913,0.204,0.0046,0.0032,0.0105,-31.425,-31.35,2.775,,adl
1.222112,-0.0071,0.0913,0.204,0.0046,0.0032,0.0105,-30.75,-32.175,2.85,,adl
1.223272,-0.0071,0.0913,0.204,0.006,-0.0043,0.0034,-30.75,-32.175,2.85,,adl
1.22475,-0.0071,0.0913,0.204,0.006,-0.0043,0.0034,-30.75,-32.175,2.85,,adl
1.226073,-0.0021,0.0838,0.1825,0.006,-0.0043,0.0034,-30.75,-32.175,2.85,,adl
1.227568,-0.0021,0.0838,0.1825,0.006,-0.0043,0.0034,-30.75,-32.175,2.85,,adl
1.2299,-0.0145,0.0909,0.185,0.006,-0.0043,0.0034,-30.75,-32.175,2.85,,adl
1.234353,-0.0145,0.0909,0.185,0.006,-0.0043,0.0034,-30.75,-32.175,2.85,,adl
1.235429,0.0142,0.0715,0.1584,0.006,-0.0043,0.0034,-30.75,-32.175,2.85,,adl
1.242044,0.0142,0.0715,0.1584,0.006,-0.0043,0.0034,-30.75,-32.175,2.85,,adl
1.242837,-0.0051,0.0785,0.1585,0.006,-0.0043,0.0034,-30.75,-32.175,2.85,,adl
1.24357,-0.0051,0.0785,0.1585,0.006,-0.0043,0.0034,-30.75,-32.175,2.85,,adl
1.244177,-0.0003,0.0971,0.1757,0.006,-0.0043,0.0034,-30.75,-32.175,2.85,,adl
1.248343,-0.0003,0.0971,0.1757,0.006,-0.0043,0.0034,-30.75,-32.175,2.85,,adl
1.249191,-0.0214,0.0802,0.1996,0.006,-0.0043,0.0034,-30.75,-32.175,2.85,,adl
1.252236,-0.0214,0.0802,0.1996,0.006,-0.0043,0.0034,-30.75,-32.175,2.85,,adl
1.253067,-0.028,0.0706,0.2188,0.006,-0.0043,0.0034,-30.75,-32.175,2.85,,adl
1.257013,-0.028,0.0706,0.2188,0.006,-0.0043,0.0034,-30.75,-32.175,2.85,,adl
1.257889,-0.0385,0.0706,0.2642,0.006,-0.0043,0.0034,-30.75,-32.175,2.85,,adl
1.261277,-0.0385,0.0706,0.2642,0.006,-0.0043,0.0034,-30.75,-32.175,2.85,,adl
1.262369,-0.0381,0.066,0.2857,0.006,-0.0043,0.0034,-30.75,-32.175,2.85,,adl
1.265906,-0.0381,0.066,0.2857,0.006,-0.0043,0.0034,-30.75,-32.175,2.85,,adl
1.266767,-0.049,0.0776,0.2714,0.006,-0.0043,0.0034,-30.75,-32.175,2.85,,adl
1.272992,-0.049,0.0776,0.2714,0.006,-0.0043,0.0034,-30.75,-32.175,2.85,,adl
1.274087,-0.0529,0.0534,0.2428,0.006,-0.0043,0.0034,-30.75,-32.175,2.85,,adl
1.277643,-0.0529,0.0534,0.2428,0.006,-0.0043,0.0034,-30.75,-32.175,2.85,,adl
1.278837,-0.0497,0.0624,0.2022,0.006,-0.0043,0.0034,-30.75,-32.175,2.85,,adl
1.281462,-0.0497,0.0624,0.2022,0.006,-0.0043,0.0034,-30.75,-32.175,2.85,,adl
1.282556,-0.0513,0.0593,0.1591,0.006,-0.0043,0.0034,-30.75,-32.175,2.85,,adl
1.286325,-0.0513,0.0593,0.1591,0.006,-0.0043,0.0034,-30.75,-32.175,2.85,,adl
1.287324,-0.0578,0.0633,0.133,0.006,-0.0043,0.0034,-30.75,-32.175,2.85,,adl
1.288297,-0.0578,0.0633,0.133,0.006,-0.0043,0.0034,-30.6,-31.275,2.325,,adl
1.289352,-0.0578,0.0633,0.133,0.0047,0.0041,-0.0049,-30.6,-31.275,2.325,,adl
1.290301,-0.0578,0.0633,0.133,0.0047,0.0041,-0.0049,-30.6,-31.275,2.325,,adl
1.291129,-0.0641,0.07,0.102,0.0047,0.0041,-0.0049,-30.6,-31.275,2.325,,adl
1.301652,-0.0641,0.07,0.102,0.0047,0.0041,-0.0049,-30.6,-31.275,2.325,,adl
1.302783,-0.0321,0.057,0.1382,0.0047,0.0041,-0.0049,-30.6,-31.275,2.325,,adl
1.305244,-0.0321,0.057,0.1382,0.0047,0.0041,-0.0049,-30.6,-31.275,2.325,,adl
1.306211,-0.0245,0.0662,0.167,0.0047,0.0041,-0.0049,-30.6,-31.275,2.325,,adl
1.311464,-0.0245,0.0662,0.167,0.0047,0.0041,-0.0049,-30.6,-31.275,2.325,,adl
1.312581,-0.0123,0.0684,0.1889,0.0047,0.0041,-0.0049,-30.6,-31.275,2.325,,adl
1.31641,-0.0123,0.0684,0.1889,0.0047,0.0041,-0.0049,-30.6,-31.275,2.325,,adl
1.317377,-0.0145,0.0703,0.1866,0.0047,0.0041,-0.0049,-30.6,-31.275,2.325,,adl
1.320619,-0.0145,0.0703,0.1866,0.0047,0.0041,-0.0049,-30.6,-31.275,2.325,,adl
1.321563,0.0046,0.0607,0.1747,0.0047,0.0041,-0.0049,-30.6,-31.275,2.325,,adl
1.327375,0.0046,0.0607,0.1747,0.0047,0.0041,-0.0049,-30.6,-31.275,2.325,,adl
1.32838,0.0116,0.0598,0.1603,0.0047,0.0041,-0.0049,-30.6,-31.275,2.325,,adl
1.329279,0.0116,0.0598,0.1603,0.0047,0.0041,-0.0049,-30.6,-31.275,2.325,,adl
1.330092,0.021,0.0759,0.127,0.0047,0.0041,-0.0049,-30.6,-31.275,2.325,,adl
1.335175,0.021,0.0759,0.127,0.0047,0.0041,-0.0049,-30.6,-31.275,2.325,,adl
1.336098,0.0444,0.0634,0.1104,0.0047,0.0041,-0.0049,-30.6,-31.275,2.325,,adl
1.341037,0.0444,0.0634,0.1104,0.0047,0.0041,-0.0049,-30.6,-31.275,2.325,,adl
1.342008,0.0345,0.0558,0.0818,0.0047,0.0041,-0.0049,-30.6,-31.275,2.325,,adl
1.346627,0.0345,0.0558,0.0818,0.0047,0.0041,-0.0049,-30.6,-31.275,2.325,,adl
1.347578,0.0342,0.0486,0.0986,0.0047,0.0041,-0.0049,-30.6,-31.275,2.325,,adl
1.349553,0.0342,0.0486,0.0986,0.0047,0.0041,-0.0049,-30.6,-31.275,2.325,,adl
1.350462,0.0458,0.0275,0.108,0.0047,0.0041,-0.0049,-30.6,-31.275,2.325,,adl
1.355259,0.0458,0.0275,0.108,0.0047,0.0041,-0.0049,-30.6,-31.275,2.325,,adl
1.356092,0.0408,0.0164,0.1341,0.0047,0.0041,-0.0049,-30.6,-31.275,2.325,,adl
1.362964,0.0408,0.0164,0.1341,0.0047,0.0041,-0.0049,-31.05,-31.35,1.725,,adl
1.364137,0.0408,0.0164,0.1341,0.0047,0.0041,-0.0049,-31.05,-31.35,1.725,,adl
1.364876,0.0526,0.0243,0.1435,0.0047,0.0041,-0.0049,-31.05,-31.35,1.725,,adl
1.365792,0.0526,0.0243,0.1435,-0.0003,-0.0008,-0.0084,-31.05,-31.35,1.725,,adl
1.366671,0.0526,0.0243,0.1435,-0.0003,-0.0008,-0.0084,-31.05,-31.35,1.725,,adl
1.367474,0.0499,0.0134,0.1647,-0.0003,-0.0008,-0.0084,-31.05,-31.35,1.725,,adl
1.368299,0.0499,0.0134,0.1647,-0.0003,-0.0008,-0.0084,-31.05,-31.35,1.725,,adl
1.3691,0.0474,0.0168,0.1719,-0.0003,-0.0008,-0.0084,-31.05,-31.35,1.725,,adl
1.380277,0.0474,0.0168,0.1719,-0.0003,-0.0008,-0.0084,-31.05,-31.35,1.725,,adl
1.381527,0.0661,-0.0036,0.1787,-0.0003,-0.0008,-0.0084,-31.05,-31.35,1.725,,adl
1.382794,0.0661,-0.0036,0.1787,-0.0003,-0.0008,-0.0084,-31.05,-31.35,1.725,,adl
1.383826,0.0489,-0.0007,0.1834,-0.0003,-0.0008,-0.0084,-31.05,-31.35,1.725,,adl
1.385037,0.0489,-0.0007,0.1834,-0.0003,-0.0008,-0.0084,-31.05,-31.35,1.725,,adl
1.386174,0.0461,-0.0093,0.1807,-0.0003,-0.0008,-0.0084,-31.05,-31.35,1.725,,adl
1.389573,0.0461,-0.0093,0.1807,-0.0003,-0.0008,-0.0084,-31.05,-31.35,1.725,,adl
1.390698,0.069,-0.0152,0.1657,-0.0003,-0.0008,-0.0084,-31.05,-31.35,1.725,,adl
1.394972,0.069,-0.0152,0.1657,-0.0003,-0.0008,-0.0084,-31.05,-31.35,1.725,,adl
1.396002,0.0681,-0.0286,0.1729,-0.0003,-0.0008,-0.0084,-31.05,-31.35,1.725,,adl
1.396916,0.0681,-0.0286,0.1729,-0.0003,-0.0008,-0.0084,-31.05,-31.35,1.725,,adl
1.39775,0.096,-0.0184,0.1918,-0.0003,-0.0008,-0.0084,-31.05,-31.35,1.725,,adl
1.403387,0.096,-0.0184,0.1918,-0.0003,-0.0008,-0.0084,-31.05,-31.35,1.725,,adl
1.404355,0.0904,-0.0177,0.2132,-0.0003,-0.0008,-0.0084,-31.05,-31.35,1.725,,adl
1.409987,0.0904,-0.0177,0.2132,-0.0003,-0.0008,-0.0084,-31.05,-31.35,1.725,,adl
1.411137,0.082,0.0187,0.2202,-0.0003,-0.0008,-0.0084,-31.05,-31.35,1.725,,adl
1.41429,0.082,0.0187,0.2202,-0.0003,-0.0008,-0.0084,-31.05,-31.35,1.725,,adl
1.415241,0.0837,0.0212,0.213,-0.0003,-0.0008,-0.0084,-31.05,-31.35,1.725,,adl
1.41854,0.0837,0.0212,0.213,-0.0003,-0.0008,-0.0084,-31.05,-31.35,1.725,,adl
1.419441,0.0641,0.0429,0.213,-0.0003,-0.0008,-0.0084,-31.05,-31.35,1.725,,adl
1.422896,0.0641,0.0429,0.213,-0.0003,-0.0008,-0.0084,-31.05,-31.35,1.725,,adl
1.423795,0.0706,0.0496,0.1916,-0.0003,-0.0008,-0.0084,-31.05,-31.35,1.725,,adl
1.428822,0.0706,0.0496,0.1916,-0.0003,-0.0008,-0.0084,-31.2,-31.95,1.95,,adl
1.43008,0.0706,0.0496,0.1916,-0.0003,-0.0008,-0.0084,-31.2,-31.95,1.95,,adl
1.430944,0.0535,0.0542,0.1603,-0.0003,-0.0008,-0.0084,-31.2,-31.95,1.95,,adl
1.431911,0.0535,0.0542,0.1603,-0.002,-0.0017,-0.002,-31.2,-31.95,1.95,,adl
1.43274,0.0535,0.0542,0.1603,-0.002,-0.0017,-0.002,-31.2,-31.95,1.95,,adl
1.433525,0.0484,0.0653,0.1438,-0.002,-0.0017,-0.002,-31.2,-31.95,1.95,,adl
1.437234,0.0484,0.0653,0.1438,-0.002,-0.0017,-0.002,-31.2,-31.95,1.95,,adl
1.438177,0.0386,0.0625,0.1487,-0.002,-0.0017,-0.002,-31.2,-31.95,1.95,,adl
1.442232,0.0386,0.0625,0.1487,-0.002,-0.0017,-0.002,-31.2,-31.95,1.95,,adl
1.443292,0.043,0.0812,0.1273,-0.002,-0.0017,-0.002,-31.2,-31.95,1.95,,adl
1.446906,0.043,0.0812,0.1273,-0.002,-0.0017,-0.002,-31.2,-31.95,1.95,,adl
1.447786,0.0546,0.0757,0.1419,-0.002,-0.0017,-0.002,-31.2,-31.95,1.95,,adl
1.452898,0.0546,0.0757,0.1419,-0.002,-0.0017,-0.002,-31.2,-31.95,1.95,,adl
1.453845,0.0423,0.0729,0.1492,-0.002,-0.0017,-0.002,-31.2,-31.95,1.95,,adl
1.46,0.0423,0.0729,0.1492,-0.002,-0.0017,-0.002,-31.2,-31.95,1.95,,adl
1.461463,0.049,0.0725,0.1446,-0.002,-0.0017,-0.002,-31.2,-31.95,1.95,,adl
1.462827,0.049,0.0725,0.1446,-0.002,-0.0017,-0.002,-31.2,-31.95,1.95,,adl
1.463958,0.0368,0.0698,0.1614,-0.002,-0.0017,-0.002,-31.2,-31.95,1.95,,adl
1.46796,0.0368,0.0698,0.1614,-0.002,-0.0017,-0.002,-31.2,-31.95,1.95,,adl
1.469187,0.0389,0.0696,0.1591,-0.002,-0.0017,-0.002,-31.2,-31.95,1.95,,adl
1.470376,0.0389,0.0696,0.1591,-0.002,-0.0017,-0.002,-31.2,-31.95,1.95,,adl
1.471396,0.0457,0.0572,0.152,-0.002,-0.0017,-0.002,-31.2,-31.95,1.95,,adl
1.478175,0.0457,0.0572,0.152,-0.002,-0.0017,-0.002,-31.2,-31.95,1.95,,adl
1.479401,0.0382,0.0617,0.1641,-0.002,-0.0017,-0.002,-31.2,-31.95,1.95,,adl
1.48032,0.0382,0.0617,0.1641,-0.002,-0.0017,-0.002,-31.2,-31.95,1.95,,adl
1.481242,0.052,0.0613,0.1643,-0.002,-0.0017,-0.002,-31.2,-31.95,1.95,,adl
1.490092,0.052,0.0613,0.1643,-0.002,-0.0017,-0.002,-31.2,-31.95,1.95,,adl
1.491157,0.035,0.0633,0.1524,-0.002,-0.0017,-0.002,-31.2,-31.95,1.95,,adl
1.492962,0.035,0.0633,0.1524,-0.002,-0.0017,-0.002,-31.2,-31.95,1.95,,adl
1.493982,0.0157,0.0653,0.1597,-0.002,-0.0017,-0.002,-31.2,-31.95,1.95,,adl
1.49567,0.0157,0.0653,0.1597,-0.002,-0.0017,-0.002,-31.2,-31.95,1.95,,adl
1.496437,-0.0033,0.0839,0.1455,-0.002,-0.0017,-0.002,-31.2,-31.95,1.95,,adl
1.505899,-0.0033,0.0839,0.1455,-0.002,-0.0017,-0.002,-30.9,-32.25,2.775,,adl
1.506984,-0.0033,0.0839,0.1455,0.0041,-0.0008,-0.0047,-30.9,-32.25,2.775,,adl
1.507738,-0.0033,0.0839,0.1455,0.0041,-0.0008,-0.0047,-30.9,-32.25,2.775,,adl
1.508439,-0.0126,0.0809,0.1409,0.0041,-0.0008,-0.0047,-30.9,-32.25,2.775,,adl
1.509151,-0.0126,0.0809,0.1409,0.0041,-0.0008,-0.0047,-30.9,-32.25,2.775,,adl
1.510006,-0.0338,0.0921,0.1339,0.0041,-0.0008,-0.0047,-30.9,-32.25,2.775,,adl
1.510779,-0.0338,0.0921,0.1339,0.0041,-0.0008,-0.0047,-30.9,-32.25,2.775,,adl
1.511513,-0.0429,0.0893,0.1293,0.0041,-0.0008,-0.0047,-30.9,-32.25,2.775,,adl
1.517461,-0.0429,0.0893,0.1293,0.0041,-0.0008,-0.0047,-30.9,-32.25,2.775,,adl
1.518592,-0.0664,0.0886,0.1319,0.0041,-0.0008,-0.0047,-30.9,-32.25,2.775,,adl
1.521097,-0.0664,0.0886,0.1319,0.0041,-0.0008,-0.0047,-30.9,-32.25,2.775,,adl
1.521946,-0.0798,0.0928,0.132,0.0041,-0.0008,-0.0047,-30.9,-32.25,2.775,,adl
1.525047,-0.0798,0.0928,0.132,0.0041,-0.0008,-0.0047,-30.9,-32.25,2.775,,adl
1.52601,-0.0718,0.0876,0.1513,0.0041,-0.0008,-0.0047,-30.9,-32.25,2.775,,adl
1.530815,-0.0718,0.0876,0.1513,0.0041,-0.0008,-0.0047,-30.9,-32.25,2.775,,adl
1.531758,-0.0734,0.0991,0.1586,0.0041,-0.0008,-0.0047,-30.9,-32.25,2.775,,adl
1.537334,-0.0734,0.0991,0.1586,0.0041,-0.0008,-0.0047,-30.9,-32.25,2.775,,adl
1.538405,-0.0632,0.0748,0.1682,0.0041,-0.0008,-0.0047,-30.9,-32.25,2.775,,adl
1.543362,-0.0632,0.0748,0.1682,0.0041,-0.0008,-0.0047,-30.9,-32.25,2.775,,adl
1.544511,-0.072,0.0579,0.1659,0.0041,-0.0008,-0.0047,-30.9,-32.25,2.775,,adl
1.54541,-0.072,0.0579,0.1659,0.0041,-0.0008,-0.0047,-30.9,-32.25,2.775,,adl
1.546396,-0.0499,0.0245,0.1682,0.0041,-0.0008,-0.0047,-30.9,-32.25,2.775,,adl
1.551877,-0.0499,0.0245,0.1682,0.0041,-0.0008,-0.0047,-30.9,-32.25,2.775,,adl
1.552989,-0.042,0.0245,0.1515,0.0041,-0.0008,-0.0047,-30.9,-32.25,2.775,,adl
1.554282,-0.042,0.0245,0.1515,0.0041,-0.0008,-0.0047,-30.9,-32.25,2.775,,adl
1.555166,-0.0537,0.0223,0.1756,0.0041,-0.0008,-0.0047,-30.9,-32.25,2.775,,adl
1.566312,-0.0537,0.0223,0.1756,0.0041,-0.0008,-0.0047,-30.9,-32.25,2.775,,adl
1.567646,-0.0386,0.0103,0.1634,0.0041,-0.0008,-0.0047,-30.9,-32.25,2.775,,adl
1.568569,-0.0386,0.0103,0.1634,0.0041,-0.0008,-0.0047,-30.9,-32.25,2.775,,adl
1.569429,-0.0216,-0.0155,0.156,0.0041,-0.0008,-0.0047,-30.9,-32.25,2.775,,adl
1.570449,-0.0216,-0.0155,0.156,0.0041,-0.0008,-0.0047,-30.6,-32.475,2.25,,adl
1.578325,-0.0216,-0.0155,0.156,0.0024,-0.002,-0.0096,-30.6,-32.475,2.25,,adl
1.579765,-0.0216,-0.0155,0.156,0.0024,-0.002,-0.0096,-30.6,-32.475,2.25,,adl
1.580871,-0.0166,0.0039,0.173,0.0024,-0.002,-0.0096,-30.6,-32.475,2.25,,adl
1.582085,-0.0166,0.0039,0.173,0.0024,-0.002,-0.0096,-30.6,-32.475,2.25,,adl
1.583063,-0.0069,0.0067,0.1872,0.0024,-0.002,-0.0096,-30.6,-32.475,2.25,,adl
1.584124,-0.0069,0.0067,0.1872,0.0024,-0.002,-0.0096,-30.6,-32.475,2.25,,adl
1.585079,-0.0069,0.0071,0.1991,0.0024,-0.002,-0.0096,-30.6,-32.475,2.25,,adl
1.590526,-0.0069,0.0071,0.1991,0.0024,-0.002,-0.0096,-30.6,-32.475,2.25,,adl
1.591708,-0.0092,0.0407,0.199,0.0024,-0.002,-0.0096,-30.6,-32.475,2.25,,adl
1.598305,-0.0092,0.0407,0.199,0.0024,-0.002,-0.0096,-30.6,-32.475,2.25,,adl
1.599676,0.0024,0.043,0.2015,0.0024,-0.002,-0.0096,-30.6,-32.475,2.25,,adl
1.600676,0.0024,0.043,0.2015,0.0024,-0.002,-0.0096,-30.6,-32.475,2.25,,adl
1.601523,0.0046,0.0476,0.1871,0.0024,-0.002,-0.0096,-30.6,-32.475,2.25,,adl
1.604767,0.0046,0.0476,0.1871,0.0024,-0.002,-0.0096,-30.6,-32.475,2.25,,adl
1.605875,0.0235,0.0523,0.1824,0.0024,-0.002,-0.0096,-30.6,-32.475,2.25,,adl
1.612109,0.0235,0.0523,0.1824,0.0024,-0.002,-0.0096,-30.6,-32.475,2.25,,adl
1.613159,0.0303,0.0354,0.1415,0.0024,-0.002,-0.0096,-30.6,-32.475,2.25,,adl
1.614108,0.0303,0.0354,0.1415,0.0024,-0.002,-0.0096,-30.6,-32.475,2.25,,adl
1.614882,0.0394,0.0307,0.151,0.0024,-0.002,-0.0096,-30.6,-32.475,2.25,,adl
1.619311,0.0394,0.0307,0.151,0.0024,-0.002,-0.0096,-30.6,-32.475,2.25,,adl
1.6202,0.039,0.0119,0.1318,0.0024,-0.002,-0.0096,-30.6,-32.475,2.25,,adl
1.624108,0.039,0.0119,0.1318,0.0024,-0.002,-0.0096,-30.6,-32.475,2.25,,adl
1.624904,0.0386,0.01,0.1364,0.0024,-0.002,-0.0096,-30.6,-32.475,2.25,,adl
1.628698,0.0386,0.01,0.1364,0.0024,-0.002,-0.0096,-30.6,-32.475,2.25,,adl
1.629816,0.0406,0.0175,0.1603,0.0024,-0.002,-0.0096,-30.6,-32.475,2.25,,adl
1.63393,0.0406,0.0175,0.1603,0.0024,-0.002,-0.0096,-30.6,-32.475,2.25,,adl
1.634765,0.0261,0.023,0.1819,0.0024,-0.002,-0.0096,-30.6,-32.475,2.25,,adl
1.639506,0.0261,0.023,0.1819,0.0024,-0.002,-0.0096,-30.6,-32.475,2.25,,adl
1.640347,0.0236,0.0094,0.1984,0.0024,-0.002,-0.0096,-30.6,-32.475,2.25,,adl
1.641058,0.0236,0.0094,0.1984,0.0024,-0.002,-0.0096,-30.9,-32.25,2.55,,adl
1.641833,0.0236,0.0094,0.1984,-0.0005,-0.0006,0.0023,-30.9,-32.25,2.55,,adl
1.642587,0.0236,0.0094,0.1984,-0.0005,-0.0006,0.0023,-30.9,-32.25,2.55,,adl
1.643265,0.0258,0.0338,0.1815,-0.0005,-0.0006,0.0023,-30.9,-32.25,2.55,,adl
1.647723,0.0258,0.0338,0.1815,-0.0005,-0.0006,0.0023,-30.9,-32.25,2.55,,adl
1.648754,0.0208,0.046,0.1934,-0.0005,-0.0006,0.0023,-30.9,-32.25,2.55,,adl
1.65363,0.0208,0.046,0.1934,-0.0005,-0.0006,0.0023,-30.9,-32.25,2.55,,adl
1.654455,0.0373,0.0509,0.1767,-0.0005,-0.0006,0.0023,-30.9,-32.25,2.55,,adl
1.659147,0.0373,0.0509,0.1767,-0.0005,-0.0006,0.0023,-30.9,-32.25,2.55,,adl
1.660059,0.0296,0.0443,0.1717,-0.0005,-0.0006,0.0023,-30.9,-32.25,2.55,,adl
1.664551,0.0296,0.0443,0.1717,-0.0005,-0.0006,0.0023,-30.9,-32.25,2.55,,adl
1.665534,0.046,0.0681,0.1741,-0.0005,-0.0006,0.0023,-30.9,-32.25,2.55,,adl
1.669038,0.046,0.0681,0.1741,-0.0005,-0.0006,0.0023,-30.9,-32.25,2.55,,adl
1.67029,0.0762,0.0589,0.2243,-0.0005,-0.0006,0.0023,-30.9,-32.25,2.55,,adl
1.671564,0.0762,0.0589,0.2243,-0.0005,-0.0006,0.0023,-30.9,-32.25,2.55,,adl
1.672395,0.0614,0.0496,0.2529,-0.0005,-0.0006,0.0023,-30.9,-32.25,2.55,,adl
1.679322,0.0614,0.0496,0.2529,-0.0005,-0.0006,0.0023,-30.9,-32.25,2.55,,adl
1.680546,-0.0028,0.068,0.179,-0.0005,-0.0006,0.0023,-30.9,-32.25,2.55,,adl
1.681791,-0.0028,0.068,0.179,-0.0005,-0.0006,0.0023,-30.9,-32.25,2.55,,adl
1.68278,-0.0102,0.0435,0.1597,-0.0005,-0.0006,0.0023,-30.9,-32.25,2.55,,adl
1.687824,-0.0102,0.0435,0.1597,-0.0005,-0.0006,0.0023,-30.9,-32.25,2.55,,adl
1.688927,0.0089,0.0554,0.1502,-0.0005,-0.0006,0.0023,-30.9,-32.25,2.55,,adl
1.694684,0.0089,0.0554,0.1502,-0.0005,-0.0006,0.0023,-30.9,-32.25,2.55,,adl
1.695838,0.0346,0.0613,0.1242,-0.0005,-0.0006,0.0023,-30.9,-32.25,2.55,,adl
1.696762,0.0346,0.0613,0.1242,-0.0005,-0.0006,0.0023,-30.9,-32.25,2.55,,adl
1.697653,0.0509,0.0943,0.1292,-0.0005,-0.0006,0.0023,-30.9,-32.25,2.55,,adl
1.702999,0.0509,0.0943,0.1292,-0.0005,-0.0006,0.0023,-30.9,-32.25,2.55,,adl
1.704182,0.0085,0.1452,0.1418,-0.0005,-0.0006,0.0023,-30.9,-32.25,2.55,,adl
1.708354,0.0085,0.1452,0.1418,-0.0005,-0.0006,0.0023,-30.9,-32.25,2.55,,adl
1.709475,-0.0653,0.1821,0.1015,-0.0005,-0.0006,0.0023,-30.9,-32.25,2.55,,adl
1.712033,-0.0653,0.1821,0.1015,-0.0005,-0.0006,0.0023,-30.975,-32.025,2.625,,adl
1.713082,-0.0653,0.1821,0.1015,0.0053,-0.0005,-0.0057,-30.975,-32.025,2.625,,adl
1.714122,-0.0653,0.1821,0.1015,0.0053,-0.0005,-0.0057,-30.975,-32.025,2.625,,adl
1.715138,-0.1015,0.1699,0.119,0.0053,-0.0005,-0.0057,-30.975,-32.025,2.625,,adl
1.716163,-0.1015,0.1699,0.119,0.0053,-0.0005,-0.0057,-30.975,-32.025,2.625,,adl
1.717004,-0.072,0.1234,0.0882,0.0053,-0.0005,-0.0057,-30.975,-32.025,2.625,,adl
1.722866,-0.072,0.1234,0.0882,0.0053,-0.0005,-0.0057,-30.975,-32.025,2.625,,adl
1.724097,-0.0666,0.0691,0.0742,0.0053,-0.0005,-0.0057,-30.975,-32.025,2.625,,adl
1.725205,-0.0666,0.0691,0.0742,0.0053,-0.0005,-0.0057,-30.975,-32.025,2.625,,adl
1.726273,-0.0087,0.0331,0.0766,0.0053,-0.0005,-0.0057,-30.975,-32.025,2.625,,adl
1.736035,-0.0087,0.0331,0.0766,0.0053,-0.0005,-0.0057,-30.975,-32.025,2.625,,adl
1.737021,0.0408,0.007,0.0981,0.0053,-0.0005,-0.0057,-30.975,-32.025,2.625,,adl
1.737751,0.0408,0.007,0.0981,0.0053,-0.0005,-0.0057,-30.975,-32.025,2.625,,adl
1.738409,0.0851,0.0148,0.1626,0.0053,-0.0005,-0.0057,-30.975,-32.025,2.625,,adl
1.74263,0.0851,0.0148,0.1626,0.0053,-0.0005,-0.0057,-30.975,-32.025,2.625,,adl
1.743514,0.094,0.0112,0.2247,0.0053,-0.0005,-0.0057,-30.975,-32.025,2.625,,adl
1.748581,0.094,0.0112,0.2247,0.0053,-0.0005,-0.0057,-30.975,-32.025,2.625,,adl
1.749458,0.051,0.0049,0.2843,0.0053,-0.0005,-0.0057,-30.975,-32.025,2.625,,adl
1.75031,0.051,0.0049,0.2843,0.0053,-0.0005,-0.0057,-30.975,-32.025,2.625,,adl
1.750871,0.037,-0.004,0.3367,0.0053,-0.0005,-0.0057,-30.975,-32.025,2.625,,adl
1.755577,0.037,-0.004,0.3367,0.0053,-0.0005,-0.0057,-30.975,-32.025,2.625,,adl
1.756688,0.0225,0.0085,0.3031,0.0053,-0.0005,-0.0057,-30.975,-32.025,2.625,,adl
1.765144,0.0225,0.0085,0.3031,0.0053,-0.0005,-0.0057,-30.975,-32.025,2.625,,adl
1.76616,0.0254,0.0086,0.2001,0.0053,-0.0005,-0.0057,-30.975,-32.025,2.625,,adl
1.766969,0.0254,0.0086,0.2001,0.0053,-0.0005,-0.0057,-30.975,-32.025,2.625,,adl
1.767677,-0.0002,0.0473,0.0736,0.0053,-0.0005,-0.0057,-30.975,-32.025,2.625,,adl
1.769791,-0.0002,0.0473,0.0736,0.0053,-0.0005,-0.0057,-30.975,-32.025,2.625,,adl
1.770611,-0.012,0.0747,-0.0385,0.0053,-0.0005,-0.0057,-30.975,-32.025,2.625,,adl
1.778537,-0.012,0.0747,-0.0385,0.0053,-0.0005,-0.0057,-30.975,-32.025,2.625,,adl
1.779555,-0.0399,0.0841,-0.1047,0.0053,-0.0005,-0.0057,-30.975,-32.025,2.625,,adl
1.780366,-0.0399,0.0841,-0.1047,0.0053,-0.0005,-0.0057,-29.85,-31.65,2.775,,adl
1.781101,-0.0399,0.0841,-0.1047,0.0037,-0.0064,-0.0099,-29.85,-31.65,2.775,,adl
1.781871,-0.0399,0.0841,-0.1047,0.0037,-0.0064,-0.0099,-29.85,-31.65,2.775,,adl
1.782539,-0.0323,0.064,-0.1498,0.0037,-0.0064,-0.0099,-29.85,-31.65,2.775,,adl
1.783495,-0.0323,0.064,-0.1498,0.0037,-0.0064,-0.0099,-29.85,-31.65,2.775,,adl
1.78416,-0.0031,0.0395,-0.1329,0.0037,-0.0064,-0.0099,-29.85,-31.65,2.775,,adl
1.789349,-0.0031,0.0395,-0.1329,0.0037,-0.0064,-0.0099,-29.85,-31.65,2.775,,adl
1.790191,0.0141,0.0321,-0.0634,0.0037,-0.0064,-0.0099,-29.85,-31.65,2.775,,adl
1.796409,0.0141,0.0321,-0.0634,0.0037,-0.0064,-0.0099,-29.85,-31.65,2.775,,adl
1.797047,-0.0034,0.0799,0.0133,0.0037,-0.0064,-0.0099,-29.85,-31.65,2.775,,adl
1.79986,-0.0034,0.0799,0.0133,0.0037,-0.0064,-0.0099,-29.85,-31.65,2.775,,adl
1.800339,-0.029,0.1186,0.0994,0.0037,-0.0064,-0.0099,-29.85,-31.65,2.775,,adl
1.803491,-0.029,0.1186,0.0994,0.0037,-0.0064,-0.0099,-29.85,-31.65,2.775,,adl
1.803918,-0.014,0.1006,0.3576,0.0037,-0.0064,-0.0099,-29.85,-31.65,2.775,,adl
1.811109,-0.014,0.1006,0.3576,0.0037,-0.0064,-0.0099,-29.85,-31.65,2.775,,adl
1.81203,-0.0201,0.0642,0.491,0.0037,-0.0064,-0.0099,-29.85,-31.65,2.775,,adl
1.813661,-0.0201,0.0642,0.491,0.0037,-0.0064,-0.0099,-29.85,-31.65,2.775,,adl
1.814538,-0.0438,0.0527,0.5411,0.0037,-0.0064,-0.0099,-29.85,-31.65,2.775,,adl
1.825982,-0.0438,0.0527,0.5411,0.0037,-0.0064,-0.0099,-29.85,-31.65,2.775,,adl
1.826919,0.0196,0.0468,0.4115,0.0037,-0.0064,-0.0099,-29.85,-31.65,2.775,,adl
1.828397,0.0196,0.0468,0.4115,0.0037,-0.0064,-0.0099,-29.85,-31.65,2.775,,adl
1.829083,0.0468,0.0123,0.0884,0.0037,-0.0064,-0.0099,-29.85,-31.65,2.775,,adl
1.834666,0.0468,0.0123,0.0884,0.0037,-0.0064,-0.0099,-29.85,-31.65,2.775,,adl
1.835706,0.0533,0.0066,-0.1929,0.0037,-0.0064,-0.0099,-29.85,-31.65,2.775,,adl
1.839264,0.0533,0.0066,-0.1929,0.0037,-0.0064,-0.0099,-29.85,-31.65,2.775,,adl
1.840298,0.0415,0.0268,-0.2787,0.0037,-0.0064,-0.0099,-29.85,-31.65,2.775,,adl
1.846791,0.0415,0.0268,-0.2787,0.0037,-0.0064,-0.0099,-29.85,-31.65,2.775,,adl
1.848108,0.0392,0.043,-0.2307,0.0037,-0.0064,-0.0099,-29.85,-31.65,2.775,,adl
1.849084,0.0392,0.043,-0.2307,0.0037,-0.0064,-0.0099,-29.85,-31.65,2.775,,adl
1.850229,0.0222,0.0469,-0.149,0.0037,-0.0064,-0.0099,-29.85,-31.65,2.775,,adl
1.851307,0.0222,0.0469,-0.149,0.0037,-0.0064,-0.0099,-29.55,-31.05,3.15,,adl
1.852294,0.0222,0.0469,-0.149,-0.0079,0.009,-0.0064,-29.55,-31.05,3.15,,adl
1.853213,0.0222,0.0469,-0.149,-0.0079,0.009,-0.0064,-29.55,-31.05,3.15,,adl
1.854277,-0.0147,0.0332,-0.0081,-0.0079,0.009,-0.0064,-29.55,-31.05,3.15,,adl
1.862519,-0.0147,0.0332,-0.0081,-0.0079,0.009,-0.0064,-29.55,-31.05,3.15,,adl
1.863877,-0.0316,0.0494,0.1847,-0.0079,0.009,-0.0064,-29.55,-31.05,3.15,,adl
1.864889,-0.0316,0.0494,0.1847,-0.0079,0.009,-0.0064,-29.55,-31.05,3.15,,adl
1.865884,-0.0408,0.0188,0.3496,-0.0079,0.009,-0.0064,-29.55,-31.05,3.15,,adl
1.866953,-0.0408,0.0188,0.3496,-0.0079,0.009,-0.0064,-29.55,-31.05,3.15,,adl
1.867867,-0.0304,0.0003,0.4827,-0.0079,0.009,-0.0064,-29.55,-31.05,3.15,,adl
1.873847,-0.0304,0.0003,0.4827,-0.0079,0.009,-0.0064,-29.55,-31.05,3.15,,adl
1.874849,-0.0227,-0.0375,0.5081,-0.0079,0.009,-0.0064,-29.55,-31.05,3.15,,adl
1.879357,-0.0227,-0.0375,0.5081,-0.0079,0.009,-0.0064,-29.55,-31.05,3.15,,adl
1.880501,-0.0061,-0.0661,0.4571,-0.0079,0.009,-0.0064,-29.55,-31.05,3.15,,adl
1.881739,-0.0061,-0.0661,0.4571,-0.0079,0.009,-0.0064,-29.55,-31.05,3.15,,adl
1.882656,0.0011,-0.0769,0.3395,-0.0079,0.009,-0.0064,-29.55,-31.05,3.15,,adl
1.888616,0.0011,-0.0769,0.3395,-0.0079,0.009,-0.0064,-29.55,-31.05,3.15,,adl
1.889567,0.0185,-0.0793,0.2295,-0.0079,0.009,-0.0064,-29.55,-31.05,3.15,,adl
1.894181,0.0185,-0.0793,0.2295,-0.0079,0.009,-0.0064,-29.55,-31.05,3.15,,adl
1.895337,0.0365,-0.0531,0.124,-0.0079,0.009,-0.0064,-29.55,-31.05,3.15,,adl
1.898215,0.0365,-0.0531,0.124,-0.0079,0.009,-0.0064,-29.55,-31.05,3.15,,adl
1.899225,0.0384,-0.0475,0.0758,-0.0079,0.009,-0.0064,-29.55,-31.05,3.15,,adl
1.902237,0.0384,-0.0475,0.0758,-0.0079,0.009,-0.0064,-29.55,-31.05,3.15,,adl
1.903157,0.0278,-0.012,0.0927,-0.0079,0.009,-0.0064,-29.55,-31.05,3.15,,adl
1.907419,0.0278,-0.012,0.0927,-0.0079,0.009,-0.0064,-29.55,-31.05,3.15,,adl
1.908361,0.0175,0.0187,0.112,-0.0079,0.009,-0.0064,-29.55,-31.05,3.15,,adl
1.913404,0.0175,0.0187,0.112,-0.0079,0.009,-0.0064,-29.55,-31.05,3.15,,adl
1.914558,0.0168,0.0353,0.1671,-0.0079,0.009,-0.0064,-29.55,-31.05,3.15,,adl
1.918381,0.0168,0.0353,0.1671,-0.0079,0.009,-0.0064,-30.15,-32.25,3.15,,adl
1.919267,0.0168,0.0353,0.1671,-0.0079,0.009,-0.0064,-30.15,-32.25,3.15,,adl
1.92002,0.0001,0.0521,0.2033,-0.0079,0.009,-0.0064,-30.15,-32.25,3.15,,adl
1.92082,0.0001,0.0521,0.2033,-0.0055,-0.0047,-0.0023,-30.15,-32.25,3.15,,adl
1.921574,0.0001,0.0521,0.2033,-0.0055,-0.0047,-0.0023,-30.15,-32.25,3.15,,adl
1.922359,0.0142,0.0665,0.2296,-0.0055,-0.0047,-0.0023,-30.15,-32.25,3.15,,adl
1.926678,0.0142,0.0665,0.2296,-0.0055,-0.0047,-0.0023,-30.15,-32.25,3.15,,adl
1.927561,0.0258,0.071,0.2154,-0.0055,-0.0047,-0.0023,-30.15,-32.25,3.15,,adl
1.933046,0.0258,0.071,0.2154,-0.0055,-0.0047,-0.0023,-30.15,-32.25,3.15,,adl
1.933931,0.0397,0.08,0.1796,-0.0055,-0.0047,-0.0023,-30.15,-32.25,3.15,,adl
1.935705,0.0397,0.08,0.1796,-0.0055,-0.0047,-0.0023,-30.15,-32.25,3.15,,adl
1.936252,0.0346,0.0963,0.1508,-0.0055,-0.0047,-0.0023,-30.15,-32.25,3.15,,adl
1.941158,0.0346,0.0963,0.1508,-0.0055,-0.0047,-0.0023,-30.15,-32.25,3.15,,adl
1.941863,0.0533,0.1047,0.132,-0.0055,-0.0047,-0.0023,-30.15,-32.25,3.15,,adl
1.947331,0.0533,0.1047,0.132,-0.0055,-0.0047,-0.0023,-30.15,-32.25,3.15,,adl
1.948203,0.034,0.0895,0.0916,-0.0055,-0.0047,-0.0023,-30.15,-32.25,3.15,,adl
1.952205,0.034,0.0895,0.0916,-0.0055,-0.0047,-0.0023,-30.15,-32.25,3.15,,adl
1.95286,0.0384,0.1031,0.0823,-0.0055,-0.0047,-0.0023,-30.15,-32.25,3.15,,adl
1.95566,0.0384,0.1031,0.0823,-0.0055,-0.0047,-0.0023,-30.15,-32.25,3.15,,adl
1.956214,0.0265,0.0976,0.104,-0.0055,-0.0047,-0.0023,-30.15,-32.25,3.15,,adl
1.961507,0.0265,0.0976,0.104,-0.0055,-0.0047,-0.0023,-30.15,-32.25,3.15,,adl
1.962461,0.0316,0.0856,0.1184,-0.0055,-0.0047,-0.0023,-30.15,-32.25,3.15,,adl
1.966752,0.0316,0.0856,0.1184,-0.0055,-0.0047,-0.0023,-30.15,-32.25,3.15,,adl
1.967635,0.0315,0.0783,0.128,-0.0055,-0.0047,-0.0023,-30.15,-32.25,3.15,,adl
1.971145,0.0315,0.0783,0.128,-0.0055,-0.0047,-0.0023,-30.15,-32.25,3.15,,adl
1.972049,0.0194,0.0684,0.1257,-0.0055,-0.0047,-0.0023,-30.15,-32.25,3.15,,adl
1.977736,0.0194,0.0684,0.1257,-0.0055,-0.0047,-0.0023,-30.15,-32.25,3.15,,adl
1.978849,0.0146,0.0665,0.1399,-0.0055,-0.0047,-0.0023,-30.15,-32.25,3.15,,adl
1.97988,0.0146,0.0665,0.1399,-0.0055,-0.0047,-0.0023,-30.15,-32.25,3.15,,adl
1.980775,0.0192,0.0831,0.1256,-0.0055,-0.0047,-0.0023,-30.15,-32.25,3.15,,adl
1.986591,0.0192,0.0831,0.1256,-0.0055,-0.0047,-0.0023,-30.15,-32.25,3.15,,adl
1.987649,0.0191,0.0946,0.1353,-0.0055,-0.0047,-0.0023,-30.15,-32.25,3.15,,adl
1.988583,0.0191,0.0946,0.1353,-0.0055,-0.0047,-0.0023,-30.6,-32.475,2.85,,adl
1.989412,0.0191,0.0946,0.1353,-0.0055,-0.0047,-0.0023,-30.6,-32.475,2.85,,adl
1.990435,0.0358,0.0848,0.1306,-0.0055,-0.0047,-0.0023,-30.6,-32.475,2.85,,adl
1.991374,0.0358,0.0848,0.1306,-0.0012,0.0015,-0.0021,-30.6,-32.475,2.85,,adl
1.997989,0.0358,0.0848,0.1306,-0.0012,0.0015,-0.0021,-30.6,-32.475,2.85,,adl
1.999178,0.0167,0.0966,0.145,-0.0012,0.0015,-0.0021,-30.6,-32.475,2.85,,adl
2.00012,0.0167,0.0966,0.145,-0.0012,0.0015,-0.0021,-30.6,-32.475,2.85,,adl
2.000873,0.0096,0.0939,0.1547,-0.0012,0.0015,-0.0021,-30.6,-32.475,2.85,,adl
2.006283,0.0096,0.0939,0.1547,-0.0012,0.0015,-0.0021,-30.6,-32.475,2.85,,adl
2.007208,0.0239,0.0722,0.1451,-0.0012,0.0015,-0.0021,-30.6,-32.475,2.85,,adl
2.010631,0.0239,0.0722,0.1451,-0.0012,0.0015,-0.0021,-30.6,-32.475,2.85,,adl
2.011637,0.0261,0.0743,0.15,-0.0012,0.0015,-0.0021,-30.6,-32.475,2.85,,adl
2.015638,0.0261,0.0743,0.15,-0.0012,0.0015,-0.0021,-30.6,-32.475,2.85,,adl
2.016686,0.0261,0.0575,0.1524,-0.0012,0.0015,-0.0021,-30.6,-32.475,2.85,,adl
2.020186,0.0261,0.0575,0.1524,-0.0012,0.0015,-0.0021,-30.6,-32.475,2.85,,adl
2.020991,0.0265,0.0644,0.1573,-0.0012,0.0015,-0.0021,-30.6,-32.475,2.85,,adl
2.025896,0.0265,0.0644,0.1573,-0.0012,0.0015,-0.0021,-30.6,-32.475,2.85,,adl
2.02692,0.0171,0.0548,0.1525,-0.0012,0.0015,-0.0021,-30.6,-32.475,2.85,,adl
2.030237,0.0171,0.0548,0.1525,-0.0012,0.0015,-0.0021,-30.6,-32.475,2.85,,adl
2.031187,0.0169,0.0381,0.1405,-0.0012,0.0015,-0.0021,-30.6,-32.475,2.85,,adl
2.034464,0.0169,0.0381,0.1405,-0.0012,0.0015,-0.0021,-30.6,-32.475,2.85,,adl
2.037119,-0.0018,0.031,0.1309,-0.0012,0.0015,-0.0021,-30.6,-32.475,2.85,,adl
2.038726,-0.0018,0.031,0.1309,-0.0012,0.0015,-0.0021,-30.6,-32.475,2.85,,adl
2.039922,-0.0038,0.0359,0.1093,-0.0012,0.0015,-0.0021,-30.6,-32.475,2.85,,adl
2.054217,-0.0038,0.0359,0.1093,-0.0012,0.0015,-0.0021,-30.6,-32.475,2.85,,adl
2.055333,-0.0013,0.0241,0.1452,-0.0012,0.0015,-0.0021,-30.6,-32.475,2.85,,adl
2.056224,-0.0013,0.0241,0.1452,-0.0012,0.0015,-0.0021,-30.6,-32.475,2.85,,adl
2.057002,-0.0059,0.0269,0.1594,-0.0012,0.0015,-0.0021,-30.6,-32.475,2.85,,adl
2.057739,-0.0059,0.0269,0.1594,-0.0012,0.0015,-0.0021,-30.6,-32.475,2.85,,adl
2.05841,-0.0035,0.0274,0.1811,-0.0012,0.0015,-0.0021,-30.6,-32.475,2.85,,adl
2.059229,-0.0035,0.0274,0.1811,-0.0012,0.0015,-0.0021,-30.975,-31.95,2.925,,adl
2.059828,-0.0035,0.0274,0.1811,-0.0024,0.0012,-0.0066,-30.975,-31.95,2.925,,adl
2.060416,-0.0035,0.0274,0.1811,-0.0024,0.0012,-0.0066,-30.975,-31.95,2.925,,adl
2.060915,-0.0081,0.0161,0.1976,-0.0024,0.0012,-0.0066,-30.975,-31.95,2.925,,adl
2.066522,-0.0081,0.0161,0.1976,-0.0024,0.0012,-0.0066,-30.975,-31.95,2.925,,adl
2.067311,-0.0153,-0.0165,0.1782,-0.0024,0.0012,-0.0066,-30.975,-31.95,2.925,,adl
2.068029,-0.0153,-0.0165,0.1782,-0.0024,0.0012,-0.0066,-30.975,-31.95,2.925,,adl
2.068589,-0.0247,-0.0583,0.0794,-0.0024,0.0012,-0.0066,-30.975,-31.95,2.925,,adl
2.074463,-0.0247,-0.0583,0.0794,-0.0024,0.0012,-0.0066,-30.975,-31.95,2.925,,adl
2.075089,-0.0149,-0.0337,0.0912,-0.0024,0.0012,-0.0066,-30.975,-31.95,2.925,,adl
2.084344,-0.0149,-0.0337,0.0912,-0.0024,0.0012,-0.0066,-30.975,-31.95,2.925,,adl
2.085173,-0.0069,0.0384,0.3306,-0.0024,0.0012,-0.0066,-30.975,-31.95,2.925,,adl
2.088218,-0.0069,0.0384,0.3306,-0.0024,0.0012,-0.0066,-30.975,-31.95,2.925,,adl
2.088762,-0.0115,0.0316,0.254,-0.0024,0.0012,-0.0066,-30.975,-31.95,2.925,,adl
2.094635,-0.0115,0.0316,0.254,-0.0024,0.0012,-0.0066,-30.975,-31.95,2.925,,adl
2.095362,-0.0066,-0.0061,0.153,-0.0024,0.0012,-0.0066,-30.975,-31.95,2.925,,adl
2.096698,-0.0066,-0.0061,0.153,-0.0024,0.0012,-0.0066,-30.975,-31.95,2.925,,adl
2.097354,-0.0127,-0.0087,0.0693,-0.0024,0.0012,-0.0066,-30.975,-31.95,2.925,,adl
2.103075,-0.0127,-0.0087,0.0693,-0.0024,0.0012,-0.0066,-30.975,-31.95,2.925,,adl
2.103909,-0.0062,-0.0066,0.0264,-0.0024,0.0012,-0.0066,-30.975,-31.95,2.925,,adl
2.109515,-0.0062,-0.0066,0.0264,-0.0024,0.0012,-0.0066,-30.975,-31.95,2.925,,adl
2.110759,0.0053,0.0213,-0.0332,-0.0024,0.0012,-0.0066,-30.975,-31.95,2.925,,adl
2.111523,0.0053,0.0213,-0.0332,-0.0024,0.0012,-0.0066,-30.975,-31.95,2.925,,adl
2.11219,0.0076,0.0468,-0.0234,-0.0024,0.0012,-0.0066,-30.975,-31.95,2.925,,adl
2.117296,0.0076,0.0468,-0.0234,-0.0024,0.0012,-0.0066,-30.975,-31.95,2.925,,adl
2.118332,-0.0162,0.0674,0.02,-0.0024,0.0012,-0.0066,-30.975,-31.95,2.925,,adl
2.122304,-0.0162,0.0674,0.02,-0.0024,0.0012,-0.0066,-30.975,-31.95,2.925,,adl
2.123066,-0.0037,0.078,0.1058,-0.0024,0.0012,-0.0066,-30.975,-31.95,2.925,,adl
2.127075,-0.0037,0.078,0.1058,-0.0024,0.0012,-0.0066,-30.525,-31.65,3.075,,adl
2.128097,-0.0037,0.078,0.1058,-0.0024,0.0012,-0.0066,-30.525,-31.65,3.075,,adl
2.128828,-0.0008,0.0837,0.1728,-0.0024,0.0012,-0.0066,-30.525,-31.65,3.075,,adl
2.131421,-0.0008,0.0837,0.1728,-0.004,-0.0021,-0.0035,-30.525,-31.65,3.075,,adl
2.132357,-0.0008,0.0837,0.1728,-0.004,-0.0021,-0.0035,-30.525,-31.65,3.075,,adl
2.133103,-0.0051,0.0609,0.237,-0.004,-0.0021,-0.0035,-30.525,-31.65,3.075,,adl
2.137599,-0.0051,0.0609,0.237,-0.004,-0.0021,-0.0035,-30.525,-31.65,3.075,,adl
2.138448,-0.0117,0.0571,0.2678,-0.004,-0.0021,-0.0035,-30.525,-31.65,3.075,,adl
2.142781,-0.0117,0.0571,0.2678,-0.004,-0.0021,-0.0035,-30.525,-31.65,3.075,,adl
2.143668,-0.016,0.0434,0.2557,-0.004,-0.0021,-0.0035,-30.525,-31.65,3.075,,adl
2.146808,-0.016,0.0434,0.2557,-0.004,-0.0021,-0.0035,-30.525,-31.65,3.075,,adl
2.147732,-0.0036,0.0318,0.2125,-0.004,-0.0021,-0.0035,-30.525,-31.65,3.075,,adl
2.153095,-0.0036,0.0318,0.2125,-0.004,-0.0021,-0.0035,-30.525,-31.65,3.075,,adl
2.154067,-0.0033,0.0201,0.1932,-0.004,-0.0021,-0.0035,-30.525,-31.65,3.075,,adl
2.15625,-0.0033,0.0201,0.1932,-0.004,-0.0021,-0.0035,-30.525,-31.65,3.075,,adl
2.157107,-0.0005,0.0347,0.2003,-0.004,-0.0021,-0.0035,-30.525,-31.65,3.075,,adl
2.162147,-0.0005,0.0347,0.2003,-0.004,-0.0021,-0.0035,-30.525,-31.65,3.075,,adl
2.163936,-0.0094,0.0254,0.2074,-0.004,-0.0021,-0.0035,-30.525,-31.65,3.075,,adl
2.1679,-0.0094,0.0254,0.2074,-0.004,-0.0021,-0.0035,-30.525,-31.65,3.075,,adl
2.168835,-0.0156,0.0139,0.2479,-0.004,-0.0021,-0.0035,-30.525,-31.65,3.075,,adl
2.171705,-0.0156,0.0139,0.2479,-0.004,-0.0021,-0.0035,-30.525,-31.65,3.075,,adl
2.172583,-0.0168,0.0239,0.2645,-0.004,-0.0021,-0.0035,-30.525,-31.65,3.075,,adl
2.178653,-0.0168,0.0239,0.2645,-0.004,-0.0021,-0.0035,-30.525,-31.65,3.075,,adl
2.179737,-0.0275,0.0314,0.2835,-0.004,-0.0021,-0.0035,-30.525,-31.65,3.075,,adl
2.180534,-0.0275,0.0314,0.2835,-0.004,-0.0021,-0.0035,-30.525,-31.65,3.075,,adl
2.181256,-0.0408,0.0363,0.2883,-0.004,-0.0021,-0.0035,-30.525,-31.65,3.075,,adl
2.188791,-0.0408,0.0363,0.2883,-0.004,-0.0021,-0.0035,-30.525,-31.65,3.075,,adl
2.190039,-0.0185,0.0386,0.2644,-0.004,-0.0021,-0.0035,-30.525,-31.65,3.075,,adl
2.191076,-0.0185,0.0386,0.2644,-0.004,-0.0021,-0.0035,-30.525,-31.65,3.075,,adl
2.191962,-0.0109,0.024,0.1927,-0.004,-0.0021,-0.0035,-30.525,-31.65,3.075,,adl
2.195645,-0.0109,0.024,0.1927,-0.004,-0.0021,-0.0035,-31.2,-31.95,2.55,,adl
2.196849,-0.0109,0.024,0.1927,-0.004,-0.0021,-0.0035,-31.2,-31.95,2.55,,adl
2.197861,0.0013,0.0401,0.1399,-0.004,-0.0021,-0.0035,-31.2,-31.95,2.55,,adl
2.200027,0.0013,0.0401,0.1399,0.0017,0.0101,-0.0017,-31.2,-31.95,2.55,,adl
2.200888,0.0013,0.0401,0.1399,0.0017,0.0101,-0.0017,-31.2,-31.95,2.55,,adl
2.201538,0.006,0.0488,0.0708,0.0017,0.0101,-0.0017,-31.2,-31.95,2.55,,adl
2.206629,0.006,0.0488,0.0708,0.0017,0.0101,-0.0017,-31.2,-31.95,2.55,,adl
2.207425,0.006,0.0671,0.0232,0.0017,0.0101,-0.0017,-31.2,-31.95,2.55,,adl
2.213275,0.006,0.0671,0.0232,0.0017,0.0101,-0.0017,-31.2,-31.95,2.55,,adl
2.214209,0.0342,0.0705,0.0188,0.0017,0.0101,-0.0017,-31.2,-31.95,2.55,,adl
2.215043,0.0342,0.0705,0.0188,0.0017,0.0101,-0.0017,-31.2,-31.95,2.55,,adl
2.215625,0.0078,0.0766,0.0431,0.0017,0.0101,-0.0017,-31.2,-31.95,2.55,,adl
2.221195,0.0078,0.0766,0.0431,0.0017,0.0101,-0.0017,-31.2,-31.95,2.55,,adl
2.222172,-0.0038,0.0856,0.0839,0.0017,0.0101,-0.0017,-31.2,-31.95,2.55,,adl
2.227097,-0.0038,0.0856,0.0839,0.0017,0.0101,-0.0017,-31.2,-31.95,2.55,,adl
2.228032,-0.0014,0.0782,0.1606,0.0017,0.0101,-0.0017,-31.2,-31.95,2.55,,adl
2.228778,-0.0014,0.0782,0.1606,0.0017,0.0101,-0.0017,-31.2,-31.95,2.55,,adl
2.229412,0.0084,0.0784,0.2015,0.0017,0.0101,-0.0017,-31.2,-31.95,2.55,,adl
2.234994,0.0084,0.0784,0.2015,0.0017,0.0101,-0.0017,-31.2,-31.95,2.55,,adl
2.2357,-0.0007,0.0857,0.2062,0.0017,0.0101,-0.0017,-31.2,-31.95,2.55,,adl
2.241008,-0.0007,0.0857,0.2062,0.0017,0.0101,-0.0017,-31.2,-31.95,2.55,,adl
2.2419,-0.0045,0.0642,0.1774,0.0017,0.0101,-0.0017,-31.2,-31.95,2.55,,adl
2.246931,-0.0045,0.0642,0.1774,0.0017,0.0101,-0.0017,-31.2,-31.95,2.55,,adl
2.248056,0.0122,0.0522,0.1413,0.0017,0.0101,-0.0017,-31.2,-31.95,2.55,,adl
2.248744,0.0122,0.0522,0.1413,0.0017,0.0101,-0.0017,-31.2,-31.95,2.55,,adl
2.249369,0.02,0.0495,0.1174,0.0017,0.0101,-0.0017,-31.2,-31.95,2.55,,adl
2.254905,0.02,0.0495,0.1174,0.0017,0.0101,-0.0017,-31.2,-31.95,2.55,,adl
2.255729,0.0269,0.054,0.1031,0.0017,0.0101,-0.0017,-31.2,-31.95,2.55,,adl
2.261161,0.0269,0.054,0.1031,0.0017,0.0101,-0.0017,-31.2,-31.95,2.55,,adl
2.26227,0.0323,0.0348,0.0936,0.0017,0.0101,-0.0017,-31.2,-31.95,2.55,,adl
2.264237,0.0323,0.0348,0.0936,0.0017,0.0101,-0.0017,-30.45,-32.025,2.925,,adl
2.265124,0.0323,0.0348,0.0936,0.0017,0.0101,-0.0017,-30.45,-32.025,2.925,,adl
2.265883,0.0162,0.0373,0.1127,0.0017,0.0101,-0.0017,-30.45,-32.025,2.925,,adl
2.271292,0.0162,0.0373,0.1127,-0.0003,0.0069,-0.0031,-30.45,-32.025,2.925,,adl
2.272332,0.0162,0.0373,0.1127,-0.0003,0.0069,-0.0031,-30.45,-32.025,2.925,,adl
2.273169,0.0191,0.0423,0.1246,-0.0003,0.0069,-0.0031,-30.45,-32.025,2.925,,adl
2.27419,0.0191,0.0423,0.1246,-0.0003,0.0069,-0.0031,-30.45,-32.025,2.925,,adl
2.274986,0.0189,0.0257,0.1389,-0.0003,0.0069,-0.0031,-30.45,-32.025,2.925,,adl
2.282462,0.0189,0.0257,0.1389,-0.0003,0.0069,-0.0031,-30.45,-32.025,2.925,,adl
2.283754,0.0103,0.0382,0.1339,-0.0003,0.0069,-0.0031,-30.45,-32.025,2.925,,adl
2.28462,0.0103,0.0382,0.1339,-0.0003,0.0069,-0.0031,-30.45,-32.025,2.925,,adl
2.285422,0.0105,0.0217,0.1314,-0.0003,0.0069,-0.0031,-30.45,-32.025,2.925,,adl
2.289083,0.0105,0.0217,0.1314,-0.0003,0.0069,-0.0031,-30.45,-32.025,2.925,,adl
2.290164,-0.0036,0.0339,0.1338,-0.0003,0.0069,-0.0031,-30.45,-32.025,2.925,,adl
2.293809,-0.0036,0.0339,0.1338,-0.0003,0.0069,-0.0031,-30.45,-32.025,2.925,,adl
2.294832,0.013,0.0244,0.1026,-0.0003,0.0069,-0.0031,-30.45,-32.025,2.925,,adl
2.298314,0.013,0.0244,0.1026,-0.0003,0.0069,-0.0031,-30.45,-32.025,2.925,,adl
2.299226,0.0058,0.0434,0.0979,-0.0003,0.0069,-0.0031,-30.45,-32.025,2.925,,adl
2.303941,0.0058,0.0434,0.0979,-0.0003,0.0069,-0.0031,-30.45,-32.025,2.925,,adl
2.304772,0.008,0.0411,0.0835,-0.0003,0.0069,-0.0031,-30.45,-32.025,2.925,,adl
2.311968,0.008,0.0411,0.0835,-0.0003,0.0069,-0.0031,-30.45,-32.025,2.925,,adl
2.313051,0.0363,0.0339,0.0931,-0.0003,0.0069,-0.0031,-30.45,-32.025,2.925,,adl
2.314075,0.0363,0.0339,0.0931,-0.0003,0.0069,-0.0031,-30.45,-32.025,2.925,,adl
2.314849,0.0144,0.0512,0.1264,-0.0003,0.0069,-0.0031,-30.45,-32.025,2.925,,adl
2.318624,0.0144,0.0512,0.1264,-0.0003,0.0069,-0.0031,-30.45,-32.025,2.925,,adl
2.319896,0.0119,0.0517,0.1431,-0.0003,0.0069,-0.0031,-30.45,-32.025,2.925,,adl
2.325097,0.0119,0.0517,0.1431,-0.0003,0.0069,-0.0031,-30.45,-32.025,2.925,,adl
2.32646,0.007,0.0569,0.1743,-0.0003,0.0069,-0.0031,-30.45,-32.025,2.925,,adl
2.33381,0.007,0.0569,0.1743,-0.0003,0.0069,-0.0031,-30.45,-32.025,2.925,,adl
2.33489,-0.0026,0.0454,0.1862,-0.0003,0.0069,-0.0031,-30.45,-32.025,2.925,,adl
2.335817,-0.0026,0.0454,0.1862,-0.0003,0.0069,-0.0031,-30.825,-32.25,2.775,,adl
2.336676,-0.0026,0.0454,0.1862,-0.0003,0.0069,-0.0031,-30.825,-32.25,2.775,,adl
2.337648,0.0142,0.0103,0.1955,-0.0003,0.0069,-0.0031,-30.825,-32.25,2.775,,adl
2.338562,0.0142,0.0103,0.1955,-0.0058,-0.0002,-0.005,-30.825,-32.25,2.775,,adl
2.340379,0.0142,0.0103,0.1955,-0.0058,-0.0002,-0.005,-30.825,-32.25,2.775,,adl
2.340989,0.0165,0.0296,0.193,-0.0058,-0.0002,-0.005,-30.825,-32.25,2.775,,adl
2.341567,0.0165,0.0296,0.193,-0.0058,-0.0002,-0.005,-30.825,-32.25,2.775,,adl
2.342203,0.016,0.0136,0.188,-0.0058,-0.0002,-0.005,-30.825,-32.25,2.775,,adl
2.347213,0.016,0.0136,0.188,-0.0058,-0.0002,-0.005,-30.825,-32.25,2.775,,adl
2.347975,0.023,0.0163,0.1784,-0.0058,-0.0002,-0.005,-30.825,-32.25,2.775,,adl
2.353702,0.023,0.0163,0.1784,-0.0058,-0.0002,-0.005,-30.825,-32.25,2.775,,adl
2.354351,0.0346,0.0262,0.1687,-0.0058,-0.0002,-0.005,-30.825,-32.25,2.775,,adl
2.358486,0.0346,0.0262,0.1687,-0.0058,-0.0002,-0.005,-30.825,-32.25,2.775,,adl
2.359244,0.0245,0.0289,0.1659,-0.0058,-0.0002,-0.005,-30.825,-32.25,2.775,,adl
2.36336,0.0245,0.0289,0.1659,-0.0058,-0.0002,-0.005,-30.825,-32.25,2.775,,adl
2.364115,0.0172,0.0363,0.1635,-0.0058,-0.0002,-0.005,-30.825,-32.25,2.775,,adl
2.369045,0.0172,0.0363,0.1635,-0.0058,-0.0002,-0.005,-30.825,-32.25,2.775,,adl
2.371002,0.0076,0.0294,0.161,-0.0058,-0.0002,-0.005,-30.825,-32.25,2.775,,adl
2.37203,0.0076,0.0294,0.161,-0.0058,-0.0002,-0.005,-30.825,-32.25,2.775,,adl
2.372891,0.0242,0.0225,0.1633,-0.0058,-0.0002,-0.005,-30.825,-32.25,2.775,,adl
2.380552,0.0242,0.0225,0.1633,-0.0058,-0.0002,-0.005,-30.825,-32.25,2.775,,adl
2.381777,0.0193,0.0323,0.1537,-0.0058,-0.0002,-0.005,-30.825,-32.25,2.775,,adl
2.382676,0.0193,0.0323,0.1537,-0.0058,-0.0002,-0.005,-30.825,-32.25,2.775,,adl
2.383526,0.0191,0.0253,0.1488,-0.0058,-0.0002,-0.005,-30.825,-32.25,2.775,,adl
2.388439,0.0191,0.0253,0.1488,-0.0058,-0.0002,-0.005,-30.825,-32.25,2.775,,adl
2.389502,0.0025,0.0281,0.1535,-0.0058,-0.0002,-0.005,-30.825,-32.25,2.775,,adl
2.393641,0.0025,0.0281,0.1535,-0.0058,-0.0002,-0.005,-30.825,-32.25,2.775,,adl
2.394853,0.0001,0.033,0.1367,-0.0058,-0.0002,-0.005,-30.825,-32.25,2.775,,adl
2.397837,0.0001,0.033,0.1367,-0.0058,-0.0002,-0.005,-30.825,-32.25,2.775,,adl
2.398844,0.0072,0.0427,0.1486,-0.0058,-0.0002,-0.005,-30.825,-32.25,2.775,,adl
2.4013,0.0072,0.0427,0.1486,-0.0058,-0.0002,-0.005,-30.825,-32.25,2.775,,adl
2.402318,0.0142,0.0546,0.1271,-0.0058,-0.0002,-0.005,-30.825,-32.25,2.775,,adl
2.40316,0.0142,0.0546,0.1271,-0.0058,-0.0002,-0.005,-30.675,-31.95,2.325,,adl
2.404611,0.0142,0.0546,0.1271,-0.0023,-0.0011,-0.0023,-30.675,-31.95,2.325,,adl
2.405452,0.0142,0.0546,0.1271,-0.0023,-0.0011,-0.0023,-30.675,-31.95,2.325,,adl
2.40639,-0.0071,0.0498,0.1367,-0.0023,-0.0011,-0.0023,-30.675,-31.95,2.325,,adl
2.414526,-0.0071,0.0498,0.1367,-0.0023,-0.0011,-0.0023,-30.675,-31.95,2.325,,adl
2.416271,-0.0022,0.0452,0.1414,-0.0023,-0.0011,-0.0023,-30.675,-31.95,2.325,,adl
2.421595,-0.0022,0.0452,0.1414,-0.0023,-0.0011,-0.0023,-30.675,-31.95,2.325,,adl
2.422622,-0.0021,0.0621,0.1605,-0.0023,-0.0011,-0.0023,-30.675,-31.95,2.325,,adl
2.426524,-0.0021,0.0621,0.1605,-0.0023,-0.0011,-0.0023,-30.675,-31.95,2.325,,adl
2.427579,-0.0091,0.043,0.1486,-0.0023,-0.0011,-0.0023,-30.675,-31.95,2.325,,adl
2.430779,-0.0091,0.043,0.1486,-0.0023,-0.0011,-0.0023,-30.675,-31.95,2.325,,adl
2.431898,-0.0018,0.055,0.1605,-0.0023,-0.0011,-0.0023,-30.675,-31.95,2.325,,adl
2.436629,-0.0018,0.055,0.1605,-0.0023,-0.0011,-0.0023,-30.675,-31.95,2.325,,adl
2.437525,-0.0063,0.0481,0.1437,-0.0023,-0.0011,-0.0023,-30.675,-31.95,2.325,,adl
2.441311,-0.0063,0.0481,0.1437,-0.0023,-0.0011,-0.0023,-30.675,-31.95,2.325,,adl
2.442415,-0.0204,0.0575,0.1437,-0.0023,-0.0011,-0.0023,-30.675,-31.95,2.325,,adl
2.445915,-0.0204,0.0575,0.1437,-0.0023,-0.0011,-0.0023,-30.675,-31.95,2.325,,adl
2.446812,-0.0177,0.0527,0.1126,-0.0023,-0.0011,-0.0023,-30.675,-31.95,2.325,,adl
2.450463,-0.0177,0.0527,0.1126,-0.0023,-0.0011,-0.0023,-30.675,-31.95,2.325,,adl
2.451552,-0.0223,0.0503,0.1293,-0.0023,-0.0011,-0.0023,-30.675,-31.95,2.325,,adl
2.455874,-0.0223,0.0503,0.1293,-0.0023,-0.0011,-0.0023,-30.675,-31.95,2.325,,adl
2.456882,-0.0078,0.067,0.1317,-0.0023,-0.0011,-0.0023,-30.675,-31.95,2.325,,adl
2.462223,-0.0078,0.067,0.1317,-0.0023,-0.0011,-0.0023,-30.675,-31.95,2.325,,adl
2.463411,-0.0052,0.0598,0.1413,-0.0023,-0.0011,-0.0023,-30.675,-31.95,2.325,,adl
2.464392,-0.0052,0.0598,0.1413,-0.0023,-0.0011,-0.0023,-30.675,-31.95,2.325,,adl
2.465308,0.002,0.0574,0.1533,-0.0023,-0.0011,-0.0023,-30.675,-31.95,2.325,,adl
2.470217,0.002,0.0574,0.1533,-0.0023,-0.0011,-0.0023,-30.675,-31.95,2.325,,adl
2.471182,-0.0097,0.0529,0.1484,-0.0023,-0.0011,-0.0023,-30.675,-31.95,2.325,,adl
2.476752,-0.0097,0.0529,0.1484,-0.0023,-0.0011,-0.0023,-30.675,-31.95,2.325,,adl
2.477971,-0.0049,0.0363,0.1603,-0.0023,-0.0011,-0.0023,-30.675,-31.95,2.325,,adl
2.479008,-0.0049,0.0363,0.1603,-0.0023,-0.0011,-0.0023,-30.45,-32.025,2.55,,adl
2.479959,-0.0049,0.0363,0.1603,-0.0037,0.0002,-0.005,-30.45,-32.025,2.55,,adl
2.480897,-0.0049,0.0363,0.1603,-0.0037,0.0002,-0.005,-30.45,-32.025,2.55,,adl
2.481973,-0.0045,0.0201,0.17,-0.0037,0.0002,-0.005,-30.45,-32.025,2.55,,adl
2.485404,-0.0045,0.0201,0.17,-0.0037,0.0002,-0.005,-30.45,-32.025,2.55,,adl
2.486505,-0.0043,0.0373,0.1699,-0.0037,0.0002,-0.005,-30.45,-32.025,2.55,,adl
2.491027,-0.0043,0.0373,0.1699,-0.0037,0.0002,-0.005,-30.45,-32.025,2.55,,adl
2.491887,-0.0113,0.0376,0.1527,-0.0037,0.0002,-0.005,-30.45,-32.025,2.55,,adl
2.496584,-0.0113,0.0376,0.1527,-0.0037,0.0002,-0.005,-30.45,-32.025,2.55,,adl
2.497572,-0.0159,0.0283,0.1551,-0.0037,0.0002,-0.005,-30.45,-32.025,2.55,,adl
2.498425,-0.0159,0.0283,0.1551,-0.0037,0.0002,-0.005,-30.45,-32.025,2.55,,adl
2.499101,-0.011,0.0426,0.1455,-0.0037,0.0002,-0.005,-30.45,-32.025,2.55,,adl
2.504265,-0.011,0.0426,0.1455,-0.0037,0.0002,-0.005,-30.45,-32.025,2.55,,adl
2.505114,-0.0086,0.0286,0.1358,-0.0037,0.0002,-0.005,-30.45,-32.025,2.55,,adl
2.510202,-0.0086,0.0286,0.1358,-0.0037,0.0002,-0.005,-30.45,-32.025,2.55,,adl
2.511155,-0.0037,0.05,0.1263,-0.0037,0.0002,-0.005,-30.45,-32.025,2.55,,adl
2.513118,-0.0037,0.05,0.1263,-0.0037,0.0002,-0.005,-30.45,-32.025,2.55,,adl
2.513989,-0.0061,0.0288,0.131,-0.0037,0.0002,-0.005,-30.45,-32.025,2.55,,adl
2.518007,-0.0061,0.0288,0.131,-0.0037,0.0002,-0.005,-30.45,-32.025,2.55,,adl
2.51876,0.0034,0.0388,0.1476,-0.0037,0.0002,-0.005,-30.45,-32.025,2.55,,adl
2.526854,0.0034,0.0388,0.1476,-0.0037,0.0002,-0.005,-30.45,-32.025,2.55,,adl
2.527743,0.0176,0.051,0.1523,-0.0037,0.0002,-0.005,-30.45,-32.025,2.55,,adl
2.528409,0.0176,0.051,0.1523,-0.0037,0.0002,-0.005,-30.45,-32.025,2.55,,adl
2.529046,0.0294,0.0441,0.1693,-0.0037,0.0002,-0.005,-30.45,-32.025,2.55,,adl
2.533224,0.0294,0.0441,0.1693,-0.0037,0.0002,-0.005,-30.45,-32.025,2.55,,adl
2.53398,0.0102,0.042,0.1692,-0.0037,0.0002,-0.005,-30.45,-32.025,2.55,,adl
2.53717,0.0102,0.042,0.1692,-0.0037,0.0002,-0.005,-30.45,-32.025,2.55,,adl
2.537755,0.0221,0.0328,0.1834,-0.0037,0.0002,-0.005,-30.45,-32.025,2.55,,adl
2.544062,0.0221,0.0328,0.1834,-0.0037,0.0002,-0.005,-30.45,-32.025,2.55,,adl
2.54495,-0.0041,0.0402,0.181,-0.0037,0.0002,-0.005,-30.45,-32.025,2.55,,adl
2.545831,-0.0041,0.0402,0.181,-0.0037,0.0002,-0.005,-30.9,-31.65,2.475,,adl
2.54869,-0.0041,0.0402,0.181,-0.0035,-0.0005,-0.0032,-30.9,-31.65,2.475,,adl
2.549638,-0.0041,0.0402,0.181,-0.0035,-0.0005,-0.0032,-30.9,-31.65,2.475,,adl
2.550679,0.0152,0.0427,0.1639,-0.0035,-0.0005,-0.0032,-30.9,-31.65,2.475,,adl
2.553951,0.0152,0.0427,0.1639,-0.0035,-0.0005,-0.0032,-30.9,-31.65,2.475,,adl
2.554781,-0.0086,0.0473,0.1591,-0.0035,-0.0005,-0.0032,-30.9,-31.65,2.475,,adl
2.560111,-0.0086,0.0473,0.1591,-0.0035,-0.0005,-0.0032,-30.9,-31.65,2.475,,adl
2.561233,0.0152,0.0284,0.1666,-0.0035,-0.0005,-0.0032,-30.9,-31.65,2.475,,adl
2.56206,0.0152,0.0284,0.1666,-0.0035,-0.0005,-0.0032,-30.9,-31.65,2.475,,adl
2.56273,0.0056,0.0355,0.1543,-0.0035,-0.0005,-0.0032,-30.9,-31.65,2.475,,adl
2.567672,0.0056,0.0355,0.1543,-0.0035,-0.0005,-0.0032,-30.9,-31.65,2.475,,adl
2.568554,0.0055,0.0379,0.1423,-0.0035,-0.0005,-0.0032,-30.9,-31.65,2.475,,adl
2.572449,0.0055,0.0379,0.1423,-0.0035,-0.0005,-0.0032,-30.9,-31.65,2.475,,adl
2.573233,0.003,0.0213,0.1327,-0.0035,-0.0005,-0.0032,-30.9,-31.65,2.475,,adl
2.578036,0.003,0.0213,0.1327,-0.0035,-0.0005,-0.0032,-30.9,-31.65,2.475,,adl
2.579057,0.0242,0.0357,0.1423,-0.0035,-0.0005,-0.0032,-30.9,-31.65,2.475,,adl
2.583141,0.0242,0.0357,0.1423,-0.0035,-0.0005,-0.0032,-30.9,-31.65,2.475,,adl
2.584183,0.0241,0.0381,0.1471,-0.0035,-0.0005,-0.0032,-30.9,-31.65,2.475,,adl
2.589352,0.0241,0.0381,0.1471,-0.0035,-0.0005,-0.0032,-30.9,-31.65,2.475,,adl
2.591023,0.0286,0.0406,0.188,-0.0035,-0.0005,-0.0032,-30.9,-31.65,2.475,,adl
2.59223,0.0286,0.0406,0.188,-0.0035,-0.0005,-0.0032,-30.9,-31.65,2.475,,adl
2.593407,0.041,0.0478,0.2407,-0.0035,-0.0005,-0.0032,-30.9,-31.65,2.475,,adl
2.599496,0.041,0.0478,0.2407,-0.0035,-0.0005,-0.0032,-30.9,-31.65,2.475,,adl
2.600981,0.0365,0.043,0.2407,-0.0035,-0.0005,-0.0032,-30.9,-31.65,2.475,,adl
2.60242,0.0365,0.043,0.2407,-0.0035,-0.0005,-0.0032,-30.9,-31.65,2.475,,adl
2.603602,0.0199,0.0403,0.2192,-0.0035,-0.0005,-0.0032,-30.9,-31.65,2.475,,adl
2.607751,0.0199,0.0403,0.2192,-0.0035,-0.0005,-0.0032,-30.9,-31.65,2.475,,adl
2.609126,-0.0063,0.019,0.1351,-0.0035,-0.0005,-0.0032,-30.9,-31.65,2.475,,adl
2.613718,-0.0063,0.019,0.1351,-0.0035,-0.0005,-0.0032,-30.9,-31.65,2.475,,adl
2.614809,0.0337,0.0301,0.0492,-0.0035,-0.0005,-0.0032,-30.9,-31.65,2.475,,adl
2.615684,0.0337,0.0301,0.0492,-0.0035,-0.0005,-0.0032,-30.825,-32.25,2.55,,adl
2.616571,0.0337,0.0301,0.0492,0.0052,-0.0021,-0.0032,-30.825,-32.25,2.55,,adl
2.617253,0.0337,0.0301,0.0492,0.0052,-0.0021,-0.0032,-30.825,-32.25,2.55,,adl
2.618036,0.0219,0.0565,0.0069,0.0052,-0.0021,-0.0032,-30.825,-32.25,2.55,,adl
2.621282,0.0219,0.0565,0.0069,0.0052,-0.0021,-0.0032,-30.825,-32.25,2.55,,adl
2.622214,0.0247,0.0693,-0.0117,0.0052,-0.0021,-0.0032,-30.825,-32.25,2.55,,adl
2.631478,0.0247,0.0693,-0.0117,0.0052,-0.0021,-0.0032,-30.825,-32.25,2.55,,adl
2.63261,0.006,0.0589,-0.0928,0.0052,-0.0021,-0.0032,-30.825,-32.25,2.55,,adl
2.633479,0.006,0.0589,-0.0928,0.0052,-0.0021,-0.0032,-30.825,-32.25,2.55,,adl
2.634395,-0.0225,0.0461,-0.1476,0.0052,-0.0021,-0.0032,-30.825,-32.25,2.55,,adl
2.635384,-0.0225,0.0461,-0.1476,0.0052,-0.0021,-0.0032,-30.825,-32.25,2.55,,adl
2.636229,-0.0076,0.0532,-0.2025,0.0052,-0.0021,-0.0032,-30.825,-32.25,2.55,,adl
2.643266,-0.0076,0.0532,-0.2025,0.0052,-0.0021,-0.0032,-30.825,-32.25,2.55,,adl
2.644404,-0.0013,0.0719,-0.2143,0.0052,-0.0021,-0.0032,-30.825,-32.25,2.55,,adl
2.645412,-0.0013,0.0719,-0.2143,0.0052,-0.0021,-0.0032,-30.825,-32.25,2.55,,adl
2.646351,-0.0038,0.1507,0.0251,0.0052,-0.0021,-0.0032,-30.825,-32.25,2.55,,adl
2.650406,-0.0038,0.1507,0.0251,0.0052,-0.0021,-0.0032,-30.825,-32.25,2.55,,adl
2.651288,0.0177,0.1602,0.4825,0.0052,-0.0021,-0.0032,-30.825,-32.25,2.55,,adl
2.656265,0.0177,0.1602,0.4825,0.0052,-0.0021,-0.0032,-30.825,-32.25,2.55,,adl
2.656928,-0.0081,0.1187,0.6295,0.0052,-0.0021,-0.0032,-30.825,-32.25,2.55,,adl
2.661538,-0.0081,0.1187,0.6295,0.0052,-0.0021,-0.0032,-30.825,-32.25,2.55,,adl
2.662659,-0.0655,0.0666,0.5862,0.0052,-0.0021,-0.0032,-30.825,-32.25,2.55,,adl
2.665663,-0.0655,0.0666,0.5862,0.0052,-0.0021,-0.0032,-30.825,-32.25,2.55,,adl
2.666621,-0.0492,0.0495,0.5784,0.0052,-0.0021,-0.0032,-30.825,-32.25,2.55,,adl
2.669494,-0.0492,0.0495,0.5784,0.0052,-0.0021,-0.0032,-30.825,-32.25,2.55,,adl
2.67053,0.0157,0.0309,0.4514,0.0052,-0.0021,-0.0032,-30.825,-32.25,2.55,,adl
2.675956,0.0157,0.0309,0.4514,0.0052,-0.0021,-0.0032,-30.825,-32.25,2.55,,adl
2.676845,0.0588,0.0025,0.1094,0.0052,-0.0021,-0.0032,-30.825,-32.25,2.55,,adl
2.680638,0.0588,0.0025,0.1094,0.0052,-0.0021,-0.0032,-30.375,-32.025,3.075,,adl
2.68157,0.0588,0.0025,0.1094,0.0052,-0.0021,-0.0032,-30.375,-32.025,3.075,,adl
2.682398,0.0242,-0.0064,-0.2035,0.0052,-0.0021,-0.0032,-30.375,-32.025,3.075,,adl
2.683298,0.0242,-0.0064,-0.2035,-0.0055,0.0046,-0.0032,-30.375,-32.025,3.075,,adl
2.685145,0.0242,-0.0064,-0.2035,-0.0055,0.0046,-0.0032,-30.375,-32.025,3.075,,adl
2.6861,0.02,0.0115,-0.263,-0.0055,0.0046,-0.0032,-30.375,-32.025,3.075,,adl
2.689611,0.02,0.0115,-0.263,-0.0055,0.0046,-0.0032,-30.375,-32.025,3.075,,adl
2.690751,0.0435,0.0441,-0.2531,-0.0055,0.0046,-0.0032,-30.375,-32.025,3.075,,adl
2.696172,0.0435,0.0441,-0.2531,-0.0055,0.0046,-0.0032,-30.375,-32.025,3.075,,adl
2.697317,-0.0056,0.0472,-0.1887,-0.0055,0.0046,-0.0032,-30.375,-32.025,3.075,,adl
2.699461,-0.0056,0.0472,-0.1887,-0.0055,0.0046,-0.0032,-30.375,-32.025,3.075,,adl
2.700301,-0.053,0.0345,-0.0426,-0.0055,0.0046,-0.0032,-30.375,-32.025,3.075,,adl
2.705831,-0.053,0.0345,-0.0426,-0.0055,0.0046,-0.0032,-30.375,-32.025,3.075,,adl
2.706808,-0.0727,0.0289,0.162,-0.0055,0.0046,-0.0032,-30.375,-32.025,3.075,,adl
2.712148,-0.0727,0.0289,0.162,-0.0055,0.0046,-0.0032,-30.375,-32.025,3.075,,adl
2.713344,-0.0603,0.0175,0.3535,-0.0055,0.0046,-0.0032,-30.375,-32.025,3.075,,adl
2.714763,-0.0603,0.0175,0.3535,-0.0055,0.0046,-0.0032,-30.375,-32.025,3.075,,adl
2.715494,-0.0435,-0.026,0.4694,-0.0055,0.0046,-0.0032,-30.375,-32.025,3.075,,adl
2.718848,-0.0435,-0.026,0.4694,-0.0055,0.0046,-0.0032,-30.375,-32.025,3.075,,adl
2.719806,-0.0244,-0.048,0.4928,-0.0055,0.0046,-0.0032,-30.375,-32.025,3.075,,adl
2.72795,-0.0244,-0.048,0.4928,-0.0055,0.0046,-0.0032,-30.375,-32.025,3.075,,adl
2.729158,-0.0083,-0.0754,0.4039,-0.0055,0.0046,-0.0032,-30.375,-32.025,3.075,,adl
2.73465,-0.0083,-0.0754,0.4039,-0.0055,0.0046,-0.0032,-30.375,-32.025,3.075,,adl
2.735719,-0.0177,-0.0552,0.1882,-0.0055,0.0046,-0.0032,-30.375,-32.025,3.075,,adl
2.738544,-0.0177,-0.0552,0.1882,-0.0055,0.0046,-0.0032,-30.375,-32.025,3.075,,adl
2.739469,-0.0212,-0.0137,0.0927,-0.0055,0.0046,-0.0032,-30.375,-32.025,3.075,,adl
2.745058,-0.0212,-0.0137,0.0927,-0.0055,0.0046,-0.0032,-30.375,-32.025,3.075,,adl
2.74635,-0.0262,0.0118,0.0499,-0.0055,0.0046,-0.0032,-30.375,-32.025,3.075,,adl
2.749347,-0.0262,0.0118,0.0499,-0.0055,0.0046,-0.0032,-30.375,-32.025,3.075,,adl
2.75069,-0.0239,0.0495,0.0812,-0.0055,0.0046,-0.0032,-30.375,-32.025,3.075,,adl
2.75462,-0.0239,0.0495,0.0812,-0.0055,0.0046,-0.0032,-30.375,-32.025,3.075,,adl
2.755678,-0.0097,0.0612,0.1123,-0.0055,0.0046,-0.0032,-30.375,-32.025,3.075,,adl
2.756641,-0.0097,0.0612,0.1123,-0.0055,0.0046,-0.0032,-30.375,-31.95,3.075,,adl
2.757621,-0.0097,0.0612,0.1123,-0.0107,-0.0037,-0.0024,-30.375,-31.95,3.075,,adl
2.758685,-0.0097,0.0612,0.1123,-0.0107,-0.0037,-0.0024,-30.375,-31.95,3.075,,adl
2.75959,-0.0071,0.0565,0.1916,-0.0107,-0.0037,-0.0024,-30.375,-31.95,3.075,,adl
2.766244,-0.0071,0.0565,0.1916,-0.0107,-0.0037,-0.0024,-30.375,-31.95,3.075,,adl
2.767533,0.0285,0.071,0.2274,-0.0107,-0.0037,-0.0024,-30.375,-31.95,3.075,,adl
2.768403,0.0285,0.071,0.2274,-0.0107,-0.0037,-0.0024,-30.375,-31.95,3.075,,adl
2.769224,0.0281,0.0569,0.225,-0.0107,-0.0037,-0.0024,-30.375,-31.95,3.075,,adl
2.772407,0.0281,0.0569,0.225,-0.0107,-0.0037,-0.0024,-30.375,-31.95,3.075,,adl
2.773209,0.0398,0.052,0.2202,-0.0107,-0.0037,-0.0024,-30.375,-31.95,3.075,,adl
2.778331,0.0398,0.052,0.2202,-0.0107,-0.0037,-0.0024,-30.375,-31.95,3.075,,adl
2.779284,0.0346,0.0422,0.1916,-0.0107,-0.0037,-0.0024,-30.375,-31.95,3.075,,adl
2.784019,0.0346,0.0422,0.1916,-0.0107,-0.0037,-0.0024,-30.375,-31.95,3.075,,adl
2.784903,0.0438,0.0584,0.134,-0.0107,-0.0037,-0.0024,-30.375,-31.95,3.075,,adl
2.786779,0.0438,0.0584,0.134,-0.0107,-0.0037,-0.0024,-30.375,-31.95,3.075,,adl
2.787571,0.0434,0.0701,0.1365,-0.0107,-0.0037,-0.0024,-30.375,-31.95,3.075,,adl
2.793843,0.0434,0.0701,0.1365,-0.0107,-0.0037,-0.0024,-30.375,-31.95,3.075,,adl
2.794891,0.0361,0.0643,0.1296,-0.0107,-0.0037,-0.0024,-30.375,-31.95,3.075,,adl
2.797965,0.0361,0.0643,0.1296,-0.0107,-0.0037,-0.0024,-30.375,-31.95,3.075,,adl
2.798821,0.0195,0.0639,0.1298,-0.0107,-0.0037,-0.0024,-30.375,-31.95,3.075,,adl
2.802639,0.0195,0.0639,0.1298,-0.0107,-0.0037,-0.0024,-30.375,-31.95,3.075,,adl
2.803579,0.0122,0.0661,0.137,-0.0107,-0.0037,-0.0024,-30.375,-31.95,3.075,,adl
2.807935,0.0122,0.0661,0.137,-0.0107,-0.0037,-0.0024,-30.375,-31.95,3.075,,adl
2.808881,0.0151,0.0634,0.1514,-0.0107,-0.0037,-0.0024,-30.375,-31.95,3.075,,adl
2.813573,0.0151,0.0634,0.1514,-0.0107,-0.0037,-0.0024,-30.375,-31.95,3.075,,adl
2.81465,0.0105,0.0821,0.1516,-0.0107,-0.0037,-0.0024,-30.375,-31.95,3.075,,adl
2.818553,0.0105,0.0821,0.1516,-0.0107,-0.0037,-0.0024,-30.375,-31.95,3.075,,adl
2.819428,0.0272,0.0768,0.135,-0.0107,-0.0037,-0.0024,-30.375,-31.95,3.075,,adl
2.82289,0.0272,0.0768,0.135,-0.0107,-0.0037,-0.0024,-30.375,-31.95,3.075,,adl
2.823741,0.0058,0.0856,0.14,-0.0107,-0.0037,-0.0024,-30.375,-31.95,3.075,,adl
2.824583,0.0058,0.0856,0.14,-0.0107,-0.0037,-0.0024,-30.675,-31.95,2.475,,adl
2.827692,0.0058,0.0856,0.14,0.0041,0.0023,-0.0011,-30.675,-31.95,2.475,,adl
2.828635,0.0058,0.0856,0.14,0.0041,0.0023,-0.0011,-30.675,-31.95,2.475,,adl
2.82927,0.0059,0.0923,0.1043,0.0041,0.0023,-0.0011,-30.675,-31.95,2.475,,adl
2.831953,0.0059,0.0923,0.1043,0.0041,0.0023,-0.0011,-30.675,-31.95,2.475,,adl
2.832744,0.0084,0.1032,0.0998,0.0041,0.0023,-0.0011,-30.675,-31.95,2.475,,adl
2.836614,0.0084,0.1032,0.0998,0.0041,0.0023,-0.0011,-30.675,-31.95,2.475,,adl
2.837463,-0.0011,0.0903,0.1049,0.0041,0.0023,-0.0011,-30.675,-31.95,2.475,,adl
2.844802,-0.0011,0.0903,0.1049,0.0041,0.0023,-0.0011,-30.675,-31.95,2.475,,adl
2.845825,0.0039,0.1175,0.1173,0.0041,0.0023,-0.0011,-30.675,-31.95,2.475,,adl
2.846656,0.0039,0.1175,0.1173,0.0041,0.0023,-0.0011,-30.675,-31.95,2.475,,adl
2.847307,0.0063,0.0952,0.1366,0.0041,0.0023,-0.0011,-30.675,-31.95,2.475,,adl
2.852829,0.0063,0.0952,0.1366,0.0041,0.0023,-0.0011,-30.675,-31.95,2.475,,adl
2.855371,0.0111,0.085,0.1488,0.0041,0.0023,-0.0011,-30.675,-31.95,2.475,,adl
2.85661,0.0111,0.085,0.1488,0.0041,0.0023,-0.0011,-30.675,-31.95,2.475,,adl
2.857775,-0.003,0.0773,0.1947,0.0041,0.0023,-0.0011,-30.675,-31.95,2.475,,adl
2.873477,-0.003,0.0773,0.1947,0.0041,0.0023,-0.0011,-30.675,-31.95,2.475,,adl
2.874813,0.0115,0.0696,0.1829,0.0041,0.0023,-0.0011,-30.675,-31.95,2.475,,adl
2.877125,0.0115,0.0696,0.1829,0.0041,0.0023,-0.0011,-30.675,-31.95,2.475,,adl
2.878186,-0.0073,0.0572,0.183,0.0041,0.0023,-0.0011,-30.675,-31.95,2.475,,adl
2.879086,-0.0073,0.0572,0.183,0.0041,0.0023,-0.0011,-30.675,-31.95,2.475,,adl
2.8797,-0.0164,0.0591,0.1808,0.0041,0.0023,-0.0011,-30.675,-31.95,2.475,,adl
2.880488,-0.0164,0.0591,0.1808,0.0041,0.0023,-0.0011,-30.675,-31.95,2.475,,adl
2.881088,-0.0068,0.0472,0.1807,0.0041,0.0023,-0.0011,-30.675,-31.95,2.475,,adl
2.881804,-0.0068,0.0472,0.1807,0.0041,0.0023,-0.0011,-30.675,-31.95,2.475,,adl
2.882539,-0.0064,0.044,0.1424,0.0041,0.0023,-0.0011,-30.675,-31.95,2.475,,adl
2.889386,-0.0064,0.044,0.1424,0.0041,0.0023,-0.0011,-30.675,-31.95,2.475,,adl
2.890226,-0.0301,0.0341,0.1066,0.0041,0.0023,-0.0011,-30.675,-31.95,2.475,,adl
2.890954,-0.0301,0.0341,0.1066,0.0041,0.0023,-0.0011,-30.0,-32.55,2.925,,adl
2.891691,-0.0301,0.0341,0.1066,0.0041,0.0023,-0.0011,-30.0,-32.55,2.925,,adl
2.892341,-0.0133,0.022,0.1019,0.0041,0.0023,-0.0011,-30.0,-32.55,2.925,,adl
2.897118,-0.0133,0.022,0.1019,0.007,0.0002,-0.0024,-30.0,-32.55,2.925,,adl
2.898296,-0.0133,0.022,0.1019,0.007,0.0002,-0.0024,-30.0,-32.55,2.925,,adl
2.898997,-0.0354,0.0054,0.0899,0.007,0.0002,-0.0024,-30.0,-32.55,2.925,,adl
2.899788,-0.0354,0.0054,0.0899,0.007,0.0002,-0.0024,-30.0,-32.55,2.925,,adl
2.900439,-0.0276,-0.0014,0.1256,0.007,0.0002,-0.0024,-30.0,-32.55,2.925,,adl
2.905024,-0.0276,-0.0014,0.1256,0.007,0.0002,-0.0024,-30.0,-32.55,2.925,,adl
2.906032,-0.0334,-0.0272,0.1327,0.007,0.0002,-0.0024,-30.0,-32.55,2.925,,adl
2.911066,-0.0334,-0.0272,0.1327,0.007,0.0002,-0.0024,-30.0,-32.55,2.925,,adl
2.912246,-0.0142,-0.041,0.1014,0.007,0.0002,-0.0024,-30.0,-32.55,2.925,,adl
2.914476,-0.0142,-0.041,0.1014,0.007,0.0002,-0.0024,-30.0,-32.55,2.925,,adl
2.915241,0.0079,-0.0049,0.2452,0.007,0.0002,-0.0024,-30.0,-32.55,2.925,,adl
2.920365,0.0079,-0.0049,0.2452,0.007,0.0002,-0.0024,-30.0,-32.55,2.925,,adl
2.921116,-0.0203,0.0192,0.415,0.007,0.0002,-0.0024,-30.0,-32.55,2.925,,adl
2.92714,-0.0203,0.0192,0.415,0.007,0.0002,-0.0024,-30.0,-32.55,2.925,,adl
2.928307,-0.001,0.0217,0.4126,0.007,0.0002,-0.0024,-30.0,-32.55,2.925,,adl
2.929176,-0.001,0.0217,0.4126,0.007,0.0002,-0.0024,-30.0,-32.55,2.925,,adl
2.930021,0.0082,-0.0144,0.226,0.007,0.0002,-0.0024,-30.0,-32.55,2.925,,adl
2.934008,0.0082,-0.0144,0.226,0.007,0.0002,-0.0024,-30.0,-32.55,2.925,,adl
2.934736,0.0072,-0.0269,0.0943,0.007,0.0002,-0.0024,-30.0,-32.55,2.925,,adl
2.938371,0.0072,-0.0269,0.0943,0.007,0.0002,-0.0024,-30.0,-32.55,2.925,,adl
2.93919,0.0141,-0.0004,0.0392,0.007,0.0002,-0.0024,-30.0,-32.55,2.925,,adl
2.945288,0.0141,-0.0004,0.0392,0.007,0.0002,-0.0024,-30.0,-32.55,2.925,,adl
2.946578,0.055,0.0067,0.0424,0.007,0.0002,-0.0024,-30.0,-32.55,2.925,,adl
2.948462,0.055,0.0067,0.0424,0.007,0.0002,-0.0024,-30.0,-32.55,2.925,,adl
2.949039,0.0281,-0.0028,0.0065,0.007,0.0002,-0.0024,-30.0,-32.55,2.925,,adl
2.954073,0.0281,-0.0028,0.0065,0.007,0.0002,-0.0024,-30.0,-32.55,2.925,,adl
2.955031,0.0018,0.0214,-0.0622,0.007,0.0002,-0.0024,-30.0,-32.55,2.925,,adl
2.959947,0.0018,0.0214,-0.0622,0.007,0.0002,-0.0024,-30.0,-32.175,2.85,,adl
2.961065,0.0018,0.0214,-0.0622,0.007,0.0002,-0.0024,-30.0,-32.175,2.85,,adl
2.962025,-0.0032,0.0443,-0.0332,0.007,0.0002,-0.0024,-30.0,-32.175,2.85,,adl
2.96435,-0.0032,0.0443,-0.0332,0.007,0.0002,-0.0024,-30.0,-32.175,2.85,,adl
2.965038,0.0394,0.063,0.0746,0.007,0.0002,-0.0024,-30.0,-32.175,2.85,,adl
2.965611,0.0394,0.063,0.0746,0.0125,-0.0063,-0.0008,-30.0,-32.175,2.85,,adl
2.968486,0.0394,0.063,0.0746,0.0125,-0.0063,-0.0008,-30.0,-32.175,2.85,,adl
2.969055,0.0435,0.0633,0.1921,0.0125,-0.0063,-0.0008,-30.0,-32.175,2.85,,adl
2.974025,0.0435,0.0633,0.1921,0.0125,-0.0063,-0.0008,-30.0,-32.175,2.85,,adl
2.974692,-0.0085,0.0732,0.2302,0.0125,-0.0063,-0.0008,-30.0,-32.175,2.85,,adl
2.983859,-0.0085,0.0732,0.2302,0.0125,-0.0063,-0.0008,-30.0,-32.175,2.85,,adl
2.984881,-0.042,0.0471,0.2732,0.0125,-0.0063,-0.0008,-30.0,-32.175,2.85,,adl
2.987415,-0.042,0.0471,0.2732,0.0125,-0.0063,-0.0008,-30.0,-32.175,2.85,,adl
2.9881,-0.0203,0.0184,0.2589,0.0125,-0.0063,-0.0008,-30.0,-32.175,2.85,,adl
2.995233,-0.0203,0.0184,0.2589,0.0125,-0.0063,-0.0008,-30.0,-32.175,2.85,,adl
2.996525,0.0057,0.0323,0.1944,0.0125,-0.0063,-0.0008,-30.0,-32.175,2.85,,adl
2.997527,0.0057,0.0323,0.1944,0.0125,-0.0063,-0.0008,-30.0,-32.175,2.85,,adl
2.998415,-0.0041,0.0364,0.1827,0.0125,-0.0063,-0.0008,-30.0,-32.175,2.85,,adl
3.003942,-0.0041,0.0364,0.1827,0.0125,-0.0063,-0.0008,-30.0,-32.175,2.85,,adl
3.005049,0.0126,0.0474,0.1683,0.0125,-0.0063,-0.0008,-30.0,-32.175,2.85,,adl
3.011369,0.0126,0.0474,0.1683,0.0125,-0.0063,-0.0008,-30.0,-32.175,2.85,,adl
3.012624,0.0105,0.0539,0.1879,0.0125,-0.0063,-0.0008,-30.0,-32.175,2.85,,adl
3.01379,0.0105,0.0539,0.1879,0.0125,-0.0063,-0.0008,-30.0,-32.175,2.85,,adl
3.014606,0.0176,0.0659,0.2238,0.0125,-0.0063,-0.0008,-30.0,-32.175,2.85,,adl
3.017833,0.0176,0.0659,0.2238,0.0125,-0.0063,-0.0008,-30.0,-32.175,2.85,,adl
3.01882,-0.0051,0.0602,0.2504,0.0125,-0.0063,-0.0008,-30.0,-32.175,2.85,,adl
3.022454,-0.0051,0.0602,0.2504,0.0125,-0.0063,-0.0008,-30.0,-32.175,2.85,,adl
3.023425,0.0027,0.0502,0.2625,0.0125,-0.0063,-0.0008,-30.0,-32.175,2.85,,adl
3.030539,0.0027,0.0502,0.2625,0.0125,-0.0063,-0.0008,-30.0,-32.175,2.85,,adl
3.031879,-0.0063,0.0379,0.2339,0.0125,-0.0063,-0.0008,-30.0,-32.175,2.85,,adl
3.032965,-0.0063,0.0379,0.2339,0.0125,-0.0063,-0.0008,-30.0,-32.175,2.85,,adl
3.033954,-0.0086,0.0405,0.2147,0.0125,-0.0063,-0.0008,-30.0,-32.175,2.85,,adl
3.034912,-0.0086,0.0405,0.2147,0.0125,-0.0063,-0.0008,-30.15,-31.575,2.475,,adl
3.035751,-0.0086,0.0405,0.2147,0.0104,0.0044,0.0002,-30.15,-31.575,2.475,,adl
3.036619,-0.0086,0.0405,0.2147,0.0104,0.0044,0.0002,-30.15,-31.575,2.475,,adl
3.037452,0.0417,0.0319,0.172,0.0104,0.0044,0.0002,-30.15,-31.575,2.475,,adl
3.046685,0.0417,0.0319,0.172,0.0104,0.0044,0.0002,-30.15,-31.575,2.475,,adl
3.047734,-0.0013,0.0272,0.1191,0.0104,0.0044,0.0002,-30.15,-31.575,2.475,,adl
3.048553,-0.0013,0.0272,0.1191,0.0104,0.0044,0.0002,-30.15,-31.575,2.475,,adl
3.049303,-0.0034,0.0466,0.0551,0.0104,0.0044,0.0002,-30.15,-31.575,2.475,,adl
3.053166,-0.0034,0.0466,0.0551,0.0104,0.0044,0.0002,-30.15,-31.575,2.475,,adl
3.054046,0.0131,0.0454,0.0291,0.0104,0.0044,0.0002,-30.15,-31.575,2.475,,adl
3.059616,0.0131,0.0454,0.0291,0.0104,0.0044,0.0002,-30.15,-31.575,2.475,,adl
3.060628,0.0011,0.0521,0.0317,0.0104,0.0044,0.0002,-30.15,-31.575,2.475,,adl
3.061385,0.0011,0.0521,0.0317,0.0104,0.0044,0.0002,-30.15,-31.575,2.475,,adl
3.062089,0.0048,0.0653,0.0823,0.0104,0.0044,0.0002,-30.15,-31.575,2.475,,adl
3.067787,0.0048,0.0653,0.0823,0.0104,0.0044,0.0002,-30.15,-31.575,2.475,,adl
3.068586,-0.0049,0.0792,0.1351,0.0104,0.0044,0.0002,-30.15,-31.575,2.475,,adl
3.071425,-0.0049,0.0792,0.1351,0.0104,0.0044,0.0002,-30.15,-31.575,2.475,,adl
3.072281,-0.0001,0.0741,0.1738,0.0104,0.0044,0.0002,-30.15,-31.575,2.475,,adl
3.078691,-0.0001,0.0741,0.1738,0.0104,0.0044,0.0002,-30.15,-31.575,2.475,,adl
3.079821,-0.0214,0.0761,0.1712,0.0104,0.0044,0.0002,-30.15,-31.575,2.475,,adl
3.080762,-0.0214,0.0761,0.1712,0.0104,0.0044,0.0002,-30.15,-31.575,2.475,,adl
3.081528,-0.0283,0.083,0.1593,0.0104,0.0044,0.0002,-30.15,-31.575,2.475,,adl
3.086273,-0.0283,0.083,0.1593,0.0104,0.0044,0.0002,-30.15,-31.575,2.475,,adl
3.087239,-0.0215,0.0701,0.1668,0.0104,0.0044,0.0002,-30.15,-31.575,2.475,,adl
3.091537,-0.0215,0.0701,0.1668,0.0104,0.0044,0.0002,-30.15,-31.575,2.475,,adl
3.092617,0.0045,0.055,0.1335,0.0104,0.0044,0.0002,-30.15,-31.575,2.475,,adl
3.096247,0.0045,0.055,0.1335,0.0104,0.0044,0.0002,-30.15,-31.575,2.475,,adl
3.097126,-0.0075,0.0494,0.0979,0.0104,0.0044,0.0002,-30.15,-31.575,2.475,,adl
3.099461,-0.0075,0.0494,0.0979,0.0104,0.0044,0.0002,-30.6,-31.425,2.55,,adl
3.100312,-0.0075,0.0494,0.0979,0.0104,0.0044,0.0002,-30.6,-31.425,2.55,,adl
3.101135,0.0187,0.0463,0.0933,0.0104,0.0044,0.0002,-30.6,-31.425,2.55,,adl
3.104962,0.0187,0.0463,0.0933,0.0099,-0.0029,0.0014,-30.6,-31.425,2.55,,adl
3.105882,0.0187,0.0463,0.0933,0.0099,-0.0029,0.0014,-30.6,-31.425,2.55,,adl
3.106657,-0.0099,0.0504,0.0887,0.0099,-0.0029,0.0014,-30.6,-31.425,2.55,,adl
3.115582,-0.0099,0.0504,0.0887,0.0099,-0.0029,0.0014,-30.6,-31.425,2.55,,adl
3.117536,0.021,0.0241,0.072,0.0099,-0.0029,0.0014,-30.6,-31.425,2.55,,adl
3.118838,0.021,0.0241,0.072,0.0099,-0.0029,0.0014,-30.6,-31.425,2.55,,adl
3.119922,0.009,0.0402,0.0506,0.0099,-0.0029,0.0014,-30.6,-31.425,2.55,,adl
3.121008,0.009,0.0402,0.0506,0.0099,-0.0029,0.0014,-30.6,-31.425,2.55,,adl
3.122211,-0.0025,0.0257,0.0651,0.0099,-0.0029,0.0014,-30.6,-31.425,2.55,,adl
3.126543,-0.0025,0.0257,0.0651,0.0099,-0.0029,0.0014,-30.6,-31.425,2.55,,adl
3.127948,-0.0072,0.0327,0.0723,0.0099,-0.0029,0.0014,-30.6,-31.425,2.55,,adl
3.129195,-0.0072,0.0327,0.0723,0.0099,-0.0029,0.0014,-30.6,-31.425,2.55,,adl
3.130402,-0.0093,0.0285,0.096,0.0099,-0.0029,0.0014,-30.6,-31.425,2.55,,adl
3.138906,-0.0093,0.0285,0.096,0.0099,-0.0029,0.0014,-30.6,-31.425,2.55,,adl
3.140129,-0.0116,0.0267,0.1341,0.0099,-0.0029,0.0014,-30.6,-31.425,2.55,,adl
3.140834,-0.0116,0.0267,0.1341,0.0099,-0.0029,0.0014,-30.6,-31.425,2.55,,adl
3.141421,-0.0258,0.0345,0.1797,0.0099,-0.0029,0.0014,-30.6,-31.425,2.55,,adl
3.150248,-0.0258,0.0345,0.1797,0.0099,-0.0029,0.0014,-30.6,-31.425,2.55,,adl
3.151024,-0.0067,0.0257,0.1938,0.0099,-0.0029,0.0014,-30.6,-31.425,2.55,,adl
3.151669,-0.0067,0.0257,0.1938,0.0099,-0.0029,0.0014,-30.6,-31.425,2.55,,adl
3.152192,0.0121,0.0216,0.2199,0.0099,-0.0029,0.0014,-30.6,-31.425,2.55,,adl
3.154208,0.0121,0.0216,0.2199,0.0099,-0.0029,0.0014,-30.6,-31.425,2.55,,adl
3.154847,-0.0049,0.0268,0.1887,0.0099,-0.0029,0.0014,-30.6,-31.425,2.55,,adl
3.159911,-0.0049,0.0268,0.1887,0.0099,-0.0029,0.0014,-30.6,-31.425,2.55,,adl
3.160671,0.0209,0.0201,0.1957,0.0099,-0.0029,0.0014,-30.6,-31.425,2.55,,adl
3.16414,0.0209,0.0201,0.1957,0.0099,-0.0029,0.0014,-30.6,-31.425,2.55,,adl
3.164828,0.0252,0.011,0.1789,0.0099,-0.0029,0.0014,-30.6,-31.425,2.55,,adl
3.168255,0.0252,0.011,0.1789,0.0099,-0.0029,0.0014,-30.6,-32.175,2.85,,adl
3.168837,0.0252,0.011,0.1789,0.0099,-0.0029,0.0014,-30.6,-32.175,2.85,,adl
3.16931,0.0247,0.0161,0.1812,0.0099,-0.0029,0.0014,-30.6,-32.175,2.85,,adl
3.175472,0.0247,0.0161,0.1812,-0.0035,-0.0026,-0.0014,-30.6,-32.175,2.85,,adl
3.176356,0.0247,0.0161,0.1812,-0.0035,-0.0026,-0.0014,-30.6,-32.175,2.85,,adl
3.176959,0.0455,0.0116,0.1616,-0.0035,-0.0026,-0.0014,-30.6,-32.175,2.85,,adl
3.17953,0.0455,0.0116,0.1616,-0.0035,-0.0026,-0.0014,-30.6,-32.175,2.85,,adl
3.180312,0.0495,0.0237,0.1688,-0.0035,-0.0026,-0.0014,-30.6,-32.175,2.85,,adl
3.184755,0.0495,0.0237,0.1688,-0.0035,-0.0026,-0.0014,-30.6,-32.175,2.85,,adl
3.185436,0.0393,0.0167,0.1711,-0.0035,-0.0026,-0.0014,-30.6,-32.175,2.85,,adl
3.188182,0.0393,0.0167,0.1711,-0.0035,-0.0026,-0.0014,-30.6,-32.175,2.85,,adl
3.188842,0.0411,0.0217,0.1711,-0.0035,-0.0026,-0.0014,-30.6,-32.175,2.85,,adl
3.195339,0.0411,0.0217,0.1711,-0.0035,-0.0026,-0.0014,-30.6,-32.175,2.85,,adl
3.196296,0.0428,0.0289,0.1738,-0.0035,-0.0026,-0.0014,-30.6,-32.175,2.85,,adl
3.198631,0.0428,0.0289,0.1738,-0.0035,-0.0026,-0.0014,-30.6,-32.175,2.85,,adl
3.199427,0.0256,0.0408,0.1592,-0.0035,-0.0026,-0.0014,-30.6,-32.175,2.85,,adl
3.203728,0.0256,0.0408,0.1592,-0.0035,-0.0026,-0.0014,-30.6,-32.175,2.85,,adl
3.204385,0.044,0.0289,0.1688,-0.0035,-0.0026,-0.0014,-30.6,-32.175,2.85,,adl
3.209486,0.044,0.0289,0.1688,-0.0035,-0.0026,-0.0014,-30.6,-32.175,2.85,,adl
3.210679,0.0387,0.0264,0.1568,-0.0035,-0.0026,-0.0014,-30.6,-32.175,2.85,,adl
3.213789,0.0387,0.0264,0.1568,-0.0035,-0.0026,-0.0014,-30.6,-32.175,2.85,,adl
3.214746,0.0239,0.0383,0.1353,-0.0035,-0.0026,-0.0014,-30.6,-32.175,2.85,,adl
3.217368,0.0239,0.0383,0.1353,-0.0035,-0.0026,-0.0014,-30.6,-32.175,2.85,,adl
3.21827,0.0401,0.0453,0.121,-0.0035,-0.0026,-0.0014,-30.6,-32.175,2.85,,adl
3.223508,0.0401,0.0453,0.121,-0.0035,-0.0026,-0.0014,-30.6,-32.175,2.85,,adl
3.224342,0.0253,0.0286,0.133,-0.0035,-0.0026,-0.0014,-30.6,-32.175,2.85,,adl
3.228078,0.0253,0.0286,0.133,-0.0035,-0.0026,-0.0014,-30.6,-32.175,2.85,,adl
3.229061,0.0224,0.0382,0.1306,-0.0035,-0.0026,-0.0014,-30.6,-32.175,2.85,,adl
3.23324,0.0224,0.0382,0.1306,-0.0035,-0.0026,-0.0014,-30.6,-32.175,2.85,,adl
3.234483,0.027,0.0429,0.133,-0.0035,-0.0026,-0.0014,-30.6,-32.175,2.85,,adl
3.238347,0.027,0.0429,0.133,-0.0035,-0.0026,-0.0014,-30.6,-32.175,2.85,,adl
3.239303,0.0193,0.0549,0.133,-0.0035,-0.0026,-0.0014,-30.6,-32.175,2.85,,adl
3.240132,0.0193,0.0549,0.133,-0.0035,-0.0026,-0.0014,-31.125,-31.65,2.925,,adl
3.243631,0.0193,0.0549,0.133,0.0017,-0.005,-0.0003,-31.125,-31.65,2.925,,adl
3.244629,0.0193,0.0549,0.133,0.0017,-0.005,-0.0003,-31.125,-31.65,2.925,,adl
3.245353,0.0073,0.0549,0.1474,0.0017,-0.005,-0.0003,-31.125,-31.65,2.925,,adl
3.249002,0.0073,0.0549,0.1474,0.0017,-0.005,-0.0003,-31.125,-31.65,2.925,,adl
3.250083,0.0001,0.0478,0.1426,0.0017,-0.005,-0.0003,-31.125,-31.65,2.925,,adl
3.253955,0.0001,0.0478,0.1426,0.0017,-0.005,-0.0003,-31.125,-31.65,2.925,,adl
3.254842,0.0095,0.0502,0.145,0.0017,-0.005,-0.0003,-31.125,-31.65,2.925,,adl
3.260559,0.0095,0.0502,0.145,0.0017,-0.005,-0.0003,-31.125,-31.65,2.925,,adl
3.261639,-0.0048,0.0598,0.1545,0.0017,-0.005,-0.0003,-31.125,-31.65,2.925,,adl
3.262615,-0.0048,0.0598,0.1545,0.0017,-0.005,-0.0003,-31.125,-31.65,2.925,,adl
3.263446,-0.0166,0.0525,0.1378,0.0017,-0.005,-0.0003,-31.125,-31.65,2.925,,adl
3.267361,-0.0166,0.0525,0.1378,0.0017,-0.005,-0.0003,-31.125,-31.65,2.925,,adl
3.268365,-0.019,0.0478,0.1378,0.0017,-0.005,-0.0003,-31.125,-31.65,2.925,,adl
3.272976,-0.019,0.0478,0.1378,0.0017,-0.005,-0.0003,-31.125,-31.65,2.925,,adl
3.274049,-0.0283,0.0384,0.1258,0.0017,-0.005,-0.0003,-31.125,-31.65,2.925,,adl
3.279826,-0.0283,0.0384,0.1258,0.0017,-0.005,-0.0003,-31.125,-31.65,2.925,,adl
3.281074,-0.0329,0.0386,0.1377,0.0017,-0.005,-0.0003,-31.125,-31.65,2.925,,adl
3.282106,-0.0329,0.0386,0.1377,0.0017,-0.005,-0.0003,-31.125,-31.65,2.925,,adl
3.282962,-0.0303,0.0649,0.1425,0.0017,-0.005,-0.0003,-31.125,-31.65,2.925,,adl
3.287855,-0.0303,0.0649,0.1425,0.0017,-0.005,-0.0003,-31.125,-31.65,2.925,,adl
3.288893,-0.023,0.046,0.1472,0.0017,-0.005,-0.0003,-31.125,-31.65,2.925,,adl
3.299499,-0.023,0.046,0.1472,0.0017,-0.005,-0.0003,-31.125,-31.65,2.925,,adl
3.30078,-0.0252,0.0558,0.1761,0.0017,-0.005,-0.0003,-31.125,-31.65,2.925,,adl
3.302074,-0.0252,0.0558,0.1761,0.0017,-0.005,-0.0003,-31.125,-31.65,2.925,,adl
3.302962,-0.0321,0.0416,0.1784,0.0017,-0.005,-0.0003,-31.125,-31.65,2.925,,adl
3.303821,-0.0321,0.0416,0.1784,0.0017,-0.005,-0.0003,-31.125,-31.65,2.925,,adl
3.304661,-0.0224,0.0519,0.1684,0.0017,-0.005,-0.0003,-31.125,-31.65,2.925,,adl
3.305602,-0.0224,0.0519,0.1684,0.0017,-0.005,-0.0003,-31.125,-31.65,2.925,,adl
3.30647,-0.02,0.0474,0.1733,0.0017,-0.005,-0.0003,-31.125,-31.65,2.925,,adl
3.30743,-0.02,0.0474,0.1733,0.0017,-0.005,-0.0003,-30.525,-31.725,3.525,,adl
3.313796,-0.02,0.0474,0.1733,-0.0044,-0.0021,-0.0006,-30.525,-31.725,3.525,,adl
3.315144,-0.02,0.0474,0.1733,-0.0044,-0.0021,-0.0006,-30.525,-31.725,3.525,,adl
3.316088,-0.0056,0.0406,0.1633,-0.0044,-0.0021,-0.0006,-30.525,-31.725,3.525,,adl
3.317026,-0.0056,0.0406,0.1633,-0.0044,-0.0021,-0.0006,-30.525,-31.725,3.525,,adl
3.318085,-0.0294,0.0386,0.1561,-0.0044,-0.0021,-0.0006,-30.525,-31.725,3.525,,adl
3.321256,-0.0294,0.0386,0.1561,-0.0044,-0.0021,-0.0006,-30.525,-31.725,3.525,,adl
3.322467,-0.0151,0.0319,0.1778,-0.0044,-0.0021,-0.0006,-30.525,-31.725,3.525,,adl
3.330424,-0.0151,0.0319,0.1778,-0.0044,-0.0021,-0.0006,-30.525,-31.725,3.525,,adl
3.331484,-0.0246,0.0394,0.1728,-0.0044,-0.0021,-0.0006,-30.525,-31.725,3.525,,adl
3.332419,-0.0246,0.0394,0.1728,-0.0044,-0.0021,-0.0006,-30.525,-31.725,3.525,,adl
3.333214,-0.0175,0.0352,0.1894,-0.0044,-0.0021,-0.0006,-30.525,-31.725,3.525,,adl
3.336003,-0.0175,0.0352,0.1894,-0.0044,-0.0021,-0.0006,-30.525,-31.725,3.525,,adl
3.336927,-0.0104,0.038,0.1627,-0.0044,-0.0021,-0.0006,-30.525,-31.725,3.525,,adl
3.344879,-0.0104,0.038,0.1627,-0.0044,-0.0021,-0.0006,-30.525,-31.725,3.525,,adl
3.346109,0.0062,0.0241,0.1626,-0.0044,-0.0021,-0.0006,-30.525,-31.725,3.525,,adl
3.35209,0.0062,0.0241,0.1626,-0.0044,-0.0021,-0.0006,-30.525,-31.725,3.525,,adl
3.353089,0.0226,0.0221,0.1457,-0.0044,-0.0021,-0.0006,-30.525,-31.725,3.525,,adl
3.354011,0.0226,0.0221,0.1457,-0.0044,-0.0021,-0.0006,-30.525,-31.725,3.525,,adl
3.35484,0.0127,0.0223,0.1289,-0.0044,-0.0021,-0.0006,-30.525,-31.725,3.525,,adl
3.365471,0.0127,0.0223,0.1289,-0.0044,-0.0021,-0.0006,-30.525,-31.725,3.525,,adl
3.366852,0.003,0.0271,0.1169,-0.0044,-0.0021,-0.0006,-30.525,-31.725,3.525,,adl
3.367849,0.003,0.0271,0.1169,-0.0044,-0.0021,-0.0006,-30.525,-31.725,3.525,,adl
3.36866,0.0101,0.0343,0.1026,-0.0044,-0.0021,-0.0006,-30.525,-31.725,3.525,,adl
3.369497,0.0101,0.0343,0.1026,-0.0044,-0.0021,-0.0006,-30.525,-31.725,3.525,,adl
3.370424,0.019,0.0438,0.1074,-0.0044,-0.0021,-0.0006,-30.525,-31.725,3.525,,adl
3.376976,0.019,0.0438,0.1074,-0.0044,-0.0021,-0.0006,-30.525,-31.725,3.525,,adl
3.378268,0.0116,0.0535,0.1217,-0.0044,-0.0021,-0.0006,-30.525,-31.725,3.525,,adl
3.379178,0.0116,0.0535,0.1217,-0.0044,-0.0021,-0.0006,-30.525,-31.725,3.525,,adl
3.38006,0.0115,0.0344,0.1384,-0.0044,-0.0021,-0.0006,-30.525,-31.725,3.525,,adl
3.381018,0.0115,0.0344,0.1384,-0.0044,-0.0021,-0.0006,-30.525,-32.025,3.15,,adl
3.386069,0.0115,0.0344,0.1384,-0.0044,-0.0021,-0.0006,-30.525,-32.025,3.15,,adl
3.387682,-0.0076,0.0354,0.1767,-0.0044,-0.0021,-0.0006,-30.525,-32.025,3.15,,adl
3.389079,-0.0076,0.0354,0.1767,-0.0049,-0.0032,0.0011,-30.525,-32.025,3.15,,adl
3.3904,-0.0076,0.0354,0.1767,-0.0049,-0.0032,0.0011,-30.525,-32.025,3.15,,adl
3.391414,-0.0028,0.0456,0.2148,-0.0049,-0.0032,0.0011,-30.525,-32.025,3.15,,adl
3.403018,-0.0028,0.0456,0.2148,-0.0049,-0.0032,0.0011,-30.525,-32.025,3.15,,adl
3.404471,0.0067,0.0363,0.2387,-0.0049,-0.0032,0.0011,-30.525,-32.025,3.15,,adl
3.40554,0.0067,0.0363,0.2387,-0.0049,-0.0032,0.0011,-30.525,-32.025,3.15,,adl
3.406406,0.0113,0.0207,0.2455,-0.0049,-0.0032,0.0011,-30.525,-32.025,3.15,,adl
3.407169,0.0113,0.0207,0.2455,-0.0049,-0.0032,0.0011,-30.525,-32.025,3.15,,adl
3.407865,0.0137,0.026,0.286,-0.0049,-0.0032,0.0011,-30.525,-32.025,3.15,,adl
3.416707,0.0137,0.026,0.286,-0.0049,-0.0032,0.0011,-30.525,-32.025,3.15,,adl
3.417488,0.0352,0.0167,0.2572,-0.0049,-0.0032,0.0011,-30.525,-32.025,3.15,,adl
3.418464,0.0352,0.0167,0.2572,-0.0049,-0.0032,0.0011,-30.525,-32.025,3.15,,adl
3.41903,0.0159,0.0266,0.2236,-0.0049,-0.0032,0.0011,-30.525,-32.025,3.15,,adl
3.419727,0.0159,0.0266,0.2236,-0.0049,-0.0032,0.0011,-30.525,-32.025,3.15,,adl
3.420316,0.0254,0.0069,0.1302,-0.0049,-0.0032,0.0011,-30.525,-32.025,3.15,,adl
3.423066,0.0254,0.0069,0.1302,-0.0049,-0.0032,0.0011,-30.525,-32.025,3.15,,adl
3.42377,0.0339,0.0184,0.0275,-0.0049,-0.0032,0.0011,-30.525,-32.025,3.15,,adl
3.428897,0.0339,0.0184,0.0275,-0.0049,-0.0032,0.0011,-30.525,-32.025,3.15,,adl
3.430044,0.0522,0.0274,-0.0226,-0.0049,-0.0032,0.0011,-30.525,-32.025,3.15,,adl
3.433063,0.0522,0.0274,-0.0226,-0.0049,-0.0032,0.0011,-30.525,-32.025,3.15,,adl
3.434061,0.0467,0.0459,-0.0726,-0.0049,-0.0032,0.0011,-30.525,-32.025,3.15,,adl
3.43926,0.0467,0.0459,-0.0726,-0.0049,-0.0032,0.0011,-30.525,-32.025,3.15,,adl
3.440078,0.0043,0.0221,-0.1228,-0.0049,-0.0032,0.0011,-30.525,-32.025,3.15,,adl
3.445093,0.0043,0.0221,-0.1228,-0.0049,-0.0032,0.0011,-30.525,-32.025,3.15,,adl
3.446263,0.012,0.0036,-0.1062,-0.0049,-0.0032,0.0011,-30.525,-32.025,3.15,,adl
3.448107,0.012,0.0036,-0.1062,-0.0049,-0.0032,0.0011,-30.375,-32.025,2.475,,adl
3.448953,0.012,0.0036,-0.1062,-0.0049,-0.0032,0.0011,-30.375,-32.025,2.475,,adl
3.449627,0.0132,0.0423,-0.0609,-0.0049,-0.0032,0.0011,-30.375,-32.025,2.475,,adl
3.45244,0.0132,0.0423,-0.0609,-0.0061,-0.0124,-0.0009,-30.375,-32.025,2.475,,adl
3.453338,0.0132,0.0423,-0.0609,-0.0061,-0.0124,-0.0009,-30.375,-32.025,2.475,,adl
3.454209,-0.023,0.0833,0.0587,-0.0061,-0.0124,-0.0009,-30.375,-32.025,2.475,,adl
3.460395,-0.023,0.0833,0.0587,-0.0061,-0.0124,-0.0009,-30.375,-32.025,2.475,,adl
3.461529,-0.0062,0.1351,0.3888,-0.0061,-0.0124,-0.0009,-30.375,-32.025,2.475,,adl
3.46258,-0.0062,0.1351,0.3888,-0.0061,-0.0124,-0.0009,-30.375,-32.025,2.475,,adl
3.463323,-0.003,0.1345,0.6108,-0.0061,-0.0124,-0.0009,-30.375,-32.025,2.475,,adl
3.467871,-0.003,0.1345,0.6108,-0.0061,-0.0124,-0.0009,-30.375,-32.025,2.475,,adl
3.46887,-0.0315,0.0748,0.5556,-0.0061,-0.0124,-0.0009,-30.375,-32.025,2.475,,adl
3.472885,-0.0315,0.0748,0.5556,-0.0061,-0.0124,-0.0009,-30.375,-32.025,2.475,,adl
3.473875,-0.0605,0.0481,0.4927,-0.0061,-0.0124,-0.0009,-30.375,-32.025,2.475,,adl
3.477378,-0.0605,0.0481,0.4927,-0.0061,-0.0124,-0.0009,-30.375,-32.025,2.475,,adl
3.478592,-0.0217,0.0343,0.4758,-0.0061,-0.0124,-0.0009,-30.375,-32.025,2.475,,adl
3.482505,-0.0217,0.0343,0.4758,-0.0061,-0.0124,-0.0009,-30.375,-32.025,2.475,,adl
3.483619,0.0222,0.0278,0.2753,-0.0061,-0.0124,-0.0009,-30.375,-32.025,2.475,,adl
3.488292,0.0222,0.0278,0.2753,-0.0061,-0.0124,-0.0009,-30.375,-32.025,2.475,,adl
3.489142,0.0512,0.0207,-0.0521,-0.0061,-0.0124,-0.0009,-30.375,-32.025,2.475,,adl
3.494855,0.0512,0.0207,-0.0521,-0.0061,-0.0124,-0.0009,-30.375,-32.025,2.475,,adl
3.496027,0.0252,0.059,-0.238,-0.0061,-0.0124,-0.0009,-30.375,-32.025,2.475,,adl
3.496993,0.0252,0.059,-0.238,-0.0061,-0.0124,-0.0009,-30.375,-32.025,2.475,,adl
3.497963,0.0231,0.0623,-0.2759,-0.0061,-0.0124,-0.0009,-30.375,-32.025,2.475,,adl
3.50244,0.0231,0.0623,-0.2759,-0.0061,-0.0124,-0.0009,-30.375,-32.025,2.475,,adl
3.503476,0.0039,0.0897,-0.2516,-0.0061,-0.0124,-0.0009,-30.375,-32.025,2.475,,adl
3.507418,0.0039,0.0897,-0.2516,-0.0061,-0.0124,-0.0009,-30.375,-32.025,2.475,,adl
3.508444,-0.0343,0.0902,-0.1824,-0.0061,-0.0124,-0.0009,-30.375,-32.025,2.475,,adl
3.515817,-0.0343,0.0902,-0.1824,-0.0061,-0.0124,-0.0009,-30.375,-32.025,2.475,,adl
3.516916,-0.0883,0.0841,-0.0504,-0.0061,-0.0124,-0.0009,-30.375,-32.025,2.475,,adl
3.517744,-0.0883,0.0841,-0.0504,-0.0061,-0.0124,-0.0009,-30.375,-32.025,2.475,,adl
3.518496,-0.1145,0.0596,0.1332,-0.0061,-0.0124,-0.0009,-30.375,-32.025,2.475,,adl
3.519021,-0.1145,0.0596,0.1332,-0.0061,-0.0124,-0.0009,-30.45,-31.95,2.55,,adl
3.520306,-0.1145,0.0596,0.1332,-0.0111,0.0173,0.0005,-30.45,-31.95,2.55,,adl
3.52081,-0.1145,0.0596,0.1332,-0.0111,0.0173,0.0005,-30.45,-31.95,2.55,,adl
3.521254,-0.0976,0.067,0.3114,-0.0111,0.0173,0.0005,-30.45,-31.95,2.55,,adl
3.525248,-0.0976,0.067,0.3114,-0.0111,0.0173,0.0005,-30.45,-31.95,2.55,,adl
3.526102,-0.0822,0.0123,0.4135,-0.0111,0.0173,0.0005,-30.45,-31.95,2.55,,adl
3.532215,-0.0822,0.0123,0.4135,-0.0111,0.0173,0.0005,-30.45,-31.95,2.55,,adl
3.532869,-0.0671,-0.0069,0.4606,-0.0111,0.0173,0.0005,-30.45,-31.95,2.55,,adl
3.536312,-0.0671,-0.0069,0.4606,-0.0111,0.0173,0.0005,-30.45,-31.95,2.55,,adl
3.536965,-0.0284,-0.0457,0.4433,-0.0111,0.0173,0.0005,-30.45,-31.95,2.55,,adl
3.543667,-0.0284,-0.0457,0.4433,-0.0111,0.0173,0.0005,-30.45,-31.95,2.55,,adl
3.544608,-0.0048,-0.0681,0.3639,-0.0111,0.0173,0.0005,-30.45,-31.95,2.55,,adl
3.545288,-0.0048,-0.0681,0.3639,-0.0111,0.0173,0.0005,-30.45,-31.95,2.55,,adl
3.545991,0.0256,-0.0695,0.2726,-0.0111,0.0173,0.0005,-30.45,-31.95,2.55,,adl
3.550814,0.0256,-0.0695,0.2726,-0.0111,0.0173,0.0005,-30.45,-31.95,2.55,,adl
3.551532,0.0483,-0.0687,0.1815,-0.0111,0.0173,0.0005,-30.45,-31.95,2.55,,adl
3.556028,0.0483,-0.0687,0.1815,-0.0111,0.0173,0.0005,-30.45,-31.95,2.55,,adl
3.55663,0.0407,-0.0462,0.1259,-0.0111,0.0173,0.0005,-30.45,-31.95,2.55,,adl
3.560408,0.0407,-0.0462,0.1259,-0.0111,0.0173,0.0005,-30.45,-31.95,2.55,,adl
3.561136,0.0554,-0.0315,0.1258,-0.0111,0.0173,0.0005,-30.45,-31.95,2.55,,adl
3.566078,0.0554,-0.0315,0.1258,-0.0111,0.0173,0.0005,-30.45,-31.95,2.55,,adl
3.566926,0.0378,-0.0069,0.14,-0.0111,0.0173,0.0005,-30.45,-31.95,2.55,,adl
3.569917,0.0378,-0.0069,0.14,-0.0111,0.0173,0.0005,-30.45,-31.95,2.55,,adl
3.572107,0.0372,0.0061,0.1663,-0.0111,0.0173,0.0005,-30.45,-31.95,2.55,,adl
3.577251,0.0372,0.0061,0.1663,-0.0111,0.0173,0.0005,-30.45,-31.95,2.55,,adl
3.578303,0.0179,0.0231,0.2045,-0.0111,0.0173,0.0005,-30.45,-31.95,2.55,,adl
3.580001,0.0179,0.0231,0.2045,-0.0111,0.0173,0.0005,-30.45,-31.95,2.55,,adl
3.580748,0.0175,0.0225,0.2255,-0.0111,0.0173,0.0005,-30.45,-31.95,2.55,,adl
3.585079,0.0175,0.0225,0.2255,-0.0111,0.0173,0.0005,-30.45,-31.95,2.55,,adl
3.586015,0.0103,0.0371,0.2518,-0.0111,0.0173,0.0005,-30.45,-31.95,2.55,,adl
3.586713,0.0103,0.0371,0.2518,-0.0111,0.0173,0.0005,-31.05,-31.575,2.325,,adl
3.58887,0.0103,0.0371,0.2518,-0.0111,-0.0049,0.0017,-31.05,-31.575,2.325,,adl
3.589599,0.0103,0.0371,0.2518,-0.0111,-0.0049,0.0017,-31.05,-31.575,2.325,,adl
3.590542,0.0007,0.0428,0.2348,-0.0111,-0.0049,0.0017,-31.05,-31.575,2.325,,adl
3.596365,0.0007,0.0428,0.2348,-0.0111,-0.0049,0.0017,-31.05,-31.575,2.325,,adl
3.597408,0.0052,0.0507,0.2034,-0.0111,-0.0049,0.0017,-31.05,-31.575,2.325,,adl
3.600208,0.0052,0.0507,0.2034,-0.0111,-0.0049,0.0017,-31.05,-31.575,2.325,,adl
3.600937,0.0076,0.0506,0.1553,-0.0111,-0.0049,0.0017,-31.05,-31.575,2.325,,adl
3.604941,0.0076,0.0506,0.1553,-0.0111,-0.0049,0.0017,-31.05,-31.575,2.325,,adl
3.605779,-0.002,0.0625,0.1266,-0.0111,-0.0049,0.0017,-31.05,-31.575,2.325,,adl
3.615393,-0.002,0.0625,0.1266,-0.0111,-0.0049,0.0017,-31.05,-31.575,2.325,,adl
3.616499,-0.002,0.0675,0.1385,-0.0111,-0.0049,0.0017,-31.05,-31.575,2.325,,adl
3.620033,-0.002,0.0675,0.1385,-0.0111,-0.0049,0.0017,-31.05,-31.575,2.325,,adl
3.620832,-0.0041,0.0652,0.1313,-0.0111,-0.0049,0.0017,-31.05,-31.575,2.325,,adl
3.626437,-0.0041,0.0652,0.1313,-0.0111,-0.0049,0.0017,-31.05,-31.575,2.325,,adl
3.627645,0.0007,0.0821,0.1576,-0.0111,-0.0049,0.0017,-31.05,-31.575,2.325,,adl
3.628357,0.0007,0.0821,0.1576,-0.0111,-0.0049,0.0017,-31.05,-31.575,2.325,,adl
3.629047,0.0102,0.0865,0.1577,-0.0111,-0.0049,0.0017,-31.05,-31.575,2.325,,adl
3.635252,0.0102,0.0865,0.1577,-0.0111,-0.0049,0.0017,-31.05,-31.575,2.325,,adl
3.636299,0.0126,0.0821,0.1528,-0.0111,-0.0049,0.0017,-31.05,-31.575,2.325,,adl
3.637149,0.0126,0.0821,0.1528,-0.0111,-0.0049,0.0017,-31.05,-31.575,2.325,,adl
3.638002,0.0125,0.0845,0.16,-0.0111,-0.0049,0.0017,-31.05,-31.575,2.325,,adl
