time,ax,ay,az,wx,wy,wz,Bx,By,Bz,Unnamed: 10,label
0.05486,0.0,0.0,0.0,0.0,0.0,0.0,-33.975,-23.925,-7.125,,adl
0.069667,0.0,0.0,0.0,0.0,0.0,0.0,-33.975,-23.925,-7.125,,adl
0.088349,0.0,0.0,0.0,0.0,0.0,0.0,-33.975,-23.925,-7.125,,adl
0.089007,-0.0153,0.0347,0.2799,0.0,0.0,0.0,-33.975,-23.925,-7.125,,adl
0.093608,-0.0153,0.0347,0.2799,-0.0319,-0.0029,-0.02,-33.975,-23.925,-7.125,,adl
0.108059,-0.0153,0.0347,0.2799,-0.0319,-0.0029,-0.02,-33.975,-23.925,-7.125,,adl
0.108647,-0.0035,0.0635,0.1945,-0.0319,-0.0029,-0.02,-33.975,-23.925,-7.125,,adl
0.121717,-0.0035,0.0635,0.1945,-0.0319,-0.0029,-0.02,-34.35,-24.675,-8.25,,adl
0.123368,-0.0035,0.0635,0.1945,-0.0319,-0.0029,-0.02,-34.35,-24.675,-8.25,,adl
0.12383,-0.0132,0.1054,0.1625,-0.0319,-0.0029,-0.02,-34.35,-24.675,-8.25,,adl
0.147601,-0.0132,0.1054,0.1625,-0.0319,-0.0029,-0.02,-34.35,-24.675,-8.25,,adl
0.148204,-0.0435,0.1306,0.1013,-0.0319,-0.0029,-0.02,-34.35,-24.675,-8.25,,adl
0.161591,-0.0435,0.1306,0.1013,0.0137,-0.0014,-0.0049,-34.35,-24.675,-8.25,,adl
0.166522,-0.0435,0.1306,0.1013,0.0137,-0.0014,-0.0049,-34.35,-24.675,-8.25,,adl
0.167062,-0.0639,0.1212,0.019,0.0137,-0.0014,-0.0049,-34.35,-24.675,-8.25,,adl
0.18625,-0.0639,0.1212,0.019,0.0137,-0.0014,-0.0049,-34.35,-24.675,-8.25,,adl
0.186845,-0.041,0.0976,-0.0258,0.0137,-0.0014,-0.0049,-34.35,-24.675,-8.25,,adl
0.192103,-0.041,0.0976,-0.0258,0.0137,-0.0014,-0.0049,-35.4,-25.65,-7.875,,adl
0.20608,-0.041,0.0976,-0.0258,0.0137,-0.0014,-0.0049,-35.4,-25.65,-7.875,,adl
0.206833,-0.0259,0.0936,0.1266,0.0137,-0.0014,-0.0049,-35.4,-25.65,-7.875,,adl
0.223946,-0.0259,0.0936,0.1266,0.0137,-0.0014,-0.0049,-35.4,-25.65,-7.875,,adl
0.224577,-0.017,0.0458,0.2415,0.0137,-0.0014,-0.0049,-35.4,-25.65,-7.875,,adl
0.230592,-0.017,0.0458,0.2415,-0.0148,-0.0049,-0.0014,-35.4,-25.65,-7.875,,adl
0.245095,-0.017,0.0458,0.2415,-0.0148,-0.0049,-0.0014,-35.4,-25.65,-7.875,,adl
0.245772,0.0191,0.0691,0.2085,-0.0148,-0.0049,-0.0014,-35.4,-25.65,-7.875,,adl
0.261916,0.0191,0.0691,0.2085,-0.0148,-0.0049,-0.0014,-34.425,-25.05,-7.275,,adl
0.262549,0.0191,0.0691,0.2085,-0.0148,-0.0049,-0.0014,-34.425,-25.05,-7.275,,adl
0.262924,-0.0336,0.038,0.2556,-0.0148,-0.0049,-0.0014,-34.425,-25.05,-7.275,,adl
0.285366,-0.0336,0.038,0.2556,-0.0148,-0.0049,-0.0014,-34.425,-25.05,-7.275,,adl
0.286175,0.0063,0.0292,0.1842,-0.0148,-0.0049,-0.0014,-34.425,-25.05,-7.275,,adl
0.29891,0.0063,0.0292,0.1842,0.0278,0.0234,0.0017,-34.425,-25.05,-7.275,,adl
0.30481,0.0063,0.0292,0.1842,0.0278,0.0234,0.0017,-34.425,-25.05,-7.275,,adl
0.305337,0.0113,0.0503,0.0381,0.0278,0.0234,0.0017,-34.425,-25.05,-7.275,,adl
0.323165,0.0113,0.0503,0.0381,0.0278,0.0234,0.0017,-34.425,-25.05,-7.275,,adl
0.323672,0.0212,0.0578,0.0037,0.0278,0.0234,0.0017,-34.425,-25.05,-7.275,,adl
0.332009,0.0212,0.0578,0.0037,0.0278,0.0234,0.0017,-34.875,-25.125,-7.725,,adl
0.342902,0.0212,0.0578,0.0037,0.0278,0.0234,0.0017,-34.875,-25.125,-7.725,,adl
0.343389,-0.0057,0.0773,0.1207,0.0278,0.0234,0.0017,-34.875,-25.125,-7.725,,adl
0.362511,-0.0057,0.0773,0.1207,0.0278,0.0234,0.0017,-34.875,-25.125,-7.725,,adl
0.363031,-0.0238,0.0724,0.2425,0.0278,0.0234,0.0017,-34.875,-25.125,-7.725,,adl
0.366944,-0.0238,0.0724,0.2425,0.0218,-0.0026,-0.0066,-34.875,-25.125,-7.725,,adl
0.381651,-0.0238,0.0724,0.2425,0.0218,-0.0026,-0.0066,-34.875,-25.125,-7.725,,adl
0.382246,-0.0351,0.0496,0.1426,0.0218,-0.0026,-0.0066,-34.875,-25.125,-7.725,,adl
0.392087,-0.0351,0.0496,0.1426,0.0218,-0.0026,-0.0066,-34.575,-25.05,-7.725,,adl
0.40155,-0.0351,0.0496,0.1426,0.0218,-0.0026,-0.0066,-34.575,-25.05,-7.725,,adl
0.402288,-0.048,0.058,0.0232,0.0218,-0.0026,-0.0066,-34.575,-25.05,-7.725,,adl
0.421119,-0.048,0.058,0.0232,0.0218,-0.0026,-0.0066,-34.575,-25.05,-7.725,,adl
0.421748,-0.0287,0.0538,0.0703,0.0218,-0.0026,-0.0066,-34.575,-25.05,-7.725,,adl
0.436121,-0.0287,0.0538,0.0703,0.0086,-0.0127,-0.0024,-34.575,-25.05,-7.725,,adl
0.440809,-0.0287,0.0538,0.0703,0.0086,-0.0127,-0.0024,-34.575,-25.05,-7.725,,adl
0.44147,0.0104,0.0734,0.1427,0.0086,-0.0127,-0.0024,-34.575,-25.05,-7.725,,adl
0.460593,0.0104,0.0734,0.1427,0.0086,-0.0127,-0.0024,-34.575,-25.05,-7.725,,adl
0.461175,0.0519,0.1052,0.11,0.0086,-0.0127,-0.0024,-34.575,-25.05,-7.725,,adl
0.461662,0.0519,0.1052,0.11,0.0086,-0.0127,-0.0024,-34.125,-24.375,-7.05,,adl
0.481116,0.0519,0.1052,0.11,0.0086,-0.0127,-0.0024,-34.125,-24.375,-7.05,,adl
0.481721,0.0167,0.1096,0.0625,0.0086,-0.0127,-0.0024,-34.125,-24.375,-7.05,,adl
0.499179,0.0167,0.1096,0.0625,0.0086,-0.0127,-0.0024,-34.125,-24.375,-7.05,,adl
0.499783,-0.0168,0.107,0.0536,0.0086,-0.0127,-0.0024,-34.125,-24.375,-7.05,,adl
0.504977,-0.0168,0.107,0.0536,0.0064,-0.0058,-0.0075,-34.125,-24.375,-7.05,,adl
0.521197,-0.0168,0.107,0.0536,0.0064,-0.0058,-0.0075,-34.125,-24.375,-7.05,,adl
0.522013,-0.0366,0.0902,0.0487,0.0064,-0.0058,-0.0075,-34.125,-24.375,-7.05,,adl
0.532143,-0.0366,0.0902,0.0487,0.0064,-0.0058,-0.0075,-34.275,-24.375,-8.55,,adl
0.538807,-0.0366,0.0902,0.0487,0.0064,-0.0058,-0.0075,-34.275,-24.375,-8.55,,adl
0.540152,-0.0247,0.0439,0.1015,0.0064,-0.0058,-0.0075,-34.275,-24.375,-8.55,,adl
0.558102,-0.0247,0.0439,0.1015,0.0064,-0.0058,-0.0075,-34.275,-24.375,-8.55,,adl
0.558877,-0.019,0.017,0.2009,0.0064,-0.0058,-0.0075,-34.275,-24.375,-8.55,,adl
0.572358,-0.019,0.017,0.2009,-0.0118,0.0021,-0.0034,-34.275,-24.375,-8.55,,adl
0.573212,-0.019,0.017,0.2009,-0.0118,0.0021,-0.0034,-34.275,-24.375,-8.55,,adl
0.573671,-0.0104,0.0294,0.1089,-0.0118,0.0021,-0.0034,-34.275,-24.375,-8.55,,adl
0.596873,-0.0104,0.0294,0.1089,-0.0118,0.0021,-0.0034,-34.275,-24.375,-8.55,,adl
0.597496,-0.0296,0.0778,0.0415,-0.0118,0.0021,-0.0034,-34.275,-24.375,-8.55,,adl
0.602861,-0.0296,0.0778,0.0415,-0.0118,0.0021,-0.0034,-34.425,-24.675,-8.55,,adl
0.617239,-0.0296,0.0778,0.0415,-0.0118,0.0021,-0.0034,-34.425,-24.675,-8.55,,adl
0.619097,-0.0367,0.081,0.139,-0.0118,0.0021,-0.0034,-34.425,-24.675,-8.55,,adl
0.637166,-0.0367,0.081,0.139,-0.0118,0.0021,-0.0034,-34.425,-24.675,-8.55,,adl
0.637781,-0.0237,0.0897,0.1885,-0.0118,0.0021,-0.0034,-34.425,-24.675,-8.55,,adl
0.640752,-0.0237,0.0897,0.1885,0.0081,0.0017,-0.0058,-34.425,-24.675,-8.55,,adl
0.656061,-0.0237,0.0897,0.1885,0.0081,0.0017,-0.0058,-34.425,-24.675,-8.55,,adl
0.656583,-0.0282,0.0667,0.1379,0.0081,0.0017,-0.0058,-34.425,-24.675,-8.55,,adl
0.672273,-0.0282,0.0667,0.1379,0.0081,0.0017,-0.0058,-34.65,-25.425,-7.95,,adl
0.672917,-0.0282,0.0667,0.1379,0.0081,0.0017,-0.0058,-34.65,-25.425,-7.95,,adl
0.67329,-0.0201,0.0378,0.0888,0.0081,0.0017,-0.0058,-34.65,-25.425,-7.95,,adl
0.694953,-0.0201,0.0378,0.0888,0.0081,0.0017,-0.0058,-34.65,-25.425,-7.95,,adl
0.695547,-0.0341,0.0425,0.0606,0.0081,0.0017,-0.0058,-34.65,-25.425,-7.95,,adl
0.709603,-0.0341,0.0425,0.0606,0.0156,0.0127,-0.0069,-34.65,-25.425,-7.95,,adl
0.714706,-0.0341,0.0425,0.0606,0.0156,0.0127,-0.0069,-34.65,-25.425,-7.95,,adl
0.715245,-0.025,0.0604,0.0217,0.0156,0.0127,-0.0069,-34.65,-25.425,-7.95,,adl
0.734036,-0.025,0.0604,0.0217,0.0156,0.0127,-0.0069,-34.65,-25.425,-7.95,,adl
0.735727,-0.0145,0.0905,0.0244,0.0156,0.0127,-0.0069,-34.65,-25.425,-7.95,,adl
0.743614,-0.0145,0.0905,0.0244,0.0156,0.0127,-0.0069,-34.8,-24.825,-8.25,,adl
0.757052,-0.0145,0.0905,0.0244,0.0156,0.0127,-0.0069,-34.8,-24.825,-8.25,,adl
0.759528,-0.0084,0.0814,0.0782,0.0156,0.0127,-0.0069,-34.8,-24.825,-8.25,,adl
0.774481,-0.0084,0.0814,0.0782,0.0156,0.0127,-0.0069,-34.8,-24.825,-8.25,,adl
0.776851,0.0022,0.0881,0.0897,0.0156,0.0127,-0.0069,-34.8,-24.825,-8.25,,adl
0.778525,0.0022,0.0881,0.0897,-0.0008,0.0015,-0.0014,-34.8,-24.825,-8.25,,adl
0.792781,0.0022,0.0881,0.0897,-0.0008,0.0015,-0.0014,-34.8,-24.825,-8.25,,adl
0.794166,-0.0156,0.0824,0.0695,-0.0008,0.0015,-0.0014,-34.8,-24.825,-8.25,,adl
0.804924,-0.0156,0.0824,0.0695,-0.0008,0.0015,-0.0014,-34.875,-25.275,-8.025,,adl
0.81248,-0.0156,0.0824,0.0695,-0.0008,0.0015,-0.0014,-34.875,-25.275,-8.025,,adl
0.813847,-0.0113,0.0647,0.0725,-0.0008,0.0015,-0.0014,-34.875,-25.275,-8.025,,adl
0.83176,-0.0113,0.0647,0.0725,-0.0008,0.0015,-0.0014,-34.875,-25.275,-8.025,,adl
0.833101,0.0001,0.0589,0.0952,-0.0008,0.0015,-0.0014,-34.875,-25.275,-8.025,,adl
0.846394,0.0001,0.0589,0.0952,-0.0009,-0.0029,-0.0015,-34.875,-25.275,-8.025,,adl
0.855246,0.0001,0.0589,0.0952,-0.0009,-0.0029,-0.0015,-34.875,-25.275,-8.025,,adl
0.85707,0.0165,0.0356,0.0832,-0.0009,-0.0029,-0.0015,-34.875,-25.275,-8.025,,adl
0.873063,0.0165,0.0356,0.0832,-0.0009,-0.0029,-0.0015,-34.875,-25.275,-8.025,,adl
0.874955,-0.0046,0.0405,0.0863,-0.0009,-0.0029,-0.0015,-34.875,-25.275,-8.025,,adl
0.876724,-0.0046,0.0405,0.0863,-0.0009,-0.0029,-0.0015,-34.05,-25.35,-7.65,,adl
0.891161,-0.0046,0.0405,0.0863,-0.0009,-0.0029,-0.0015,-34.05,-25.35,-7.65,,adl
0.892756,-0.0155,0.0468,0.0667,-0.0009,-0.0029,-0.0015,-34.05,-25.35,-7.65,,adl
0.910035,-0.0155,0.0468,0.0667,-0.0009,-0.0029,-0.0015,-34.05,-25.35,-7.65,,adl
0.912722,-0.0162,0.0596,0.0412,-0.0009,-0.0029,-0.0015,-34.05,-25.35,-7.65,,adl
0.914963,-0.0162,0.0596,0.0412,0.0027,0.0021,-0.0021,-34.05,-25.35,-7.65,,adl
0.929626,-0.0162,0.0596,0.0412,0.0027,0.0021,-0.0021,-34.05,-25.35,-7.65,,adl
0.93113,-0.0143,0.0729,0.0463,0.0027,0.0021,-0.0021,-34.05,-25.35,-7.65,,adl
0.942046,-0.0143,0.0729,0.0463,0.0027,0.0021,-0.0021,-34.95,-25.95,-7.65,,adl
0.949238,-0.0143,0.0729,0.0463,0.0027,0.0021,-0.0021,-34.95,-25.95,-7.65,,adl
0.950924,-0.0127,0.085,0.0465,0.0027,0.0021,-0.0021,-34.95,-25.95,-7.65,,adl
0.969435,-0.0127,0.085,0.0465,0.0027,0.0021,-0.0021,-34.95,-25.95,-7.65,,adl
0.971997,-0.0372,0.066,0.081,0.0027,0.0021,-0.0021,-34.95,-25.95,-7.65,,adl
0.983446,-0.0372,0.066,0.081,-0.0014,-0.0052,-0.0057,-34.95,-25.95,-7.65,,adl
0.990086,-0.0372,0.066,0.081,-0.0014,-0.0052,-0.0057,-34.95,-25.95,-7.65,,adl
0.991989,-0.0524,0.0422,0.0798,-0.0014,-0.0052,-0.0057,-34.95,-25.95,-7.65,,adl
1.008125,-0.0524,0.0422,0.0798,-0.0014,-0.0052,-0.0057,-34.95,-25.95,-7.65,,adl
1.009949,-0.0252,0.0451,0.0341,-0.0014,-0.0052,-0.0057,-34.95,-25.95,-7.65,,adl
1.012036,-0.0252,0.0451,0.0341,-0.0014,-0.0052,-0.0057,-34.65,-25.275,-7.95,,adl
1.023663,-0.0252,0.0451,0.0341,-0.0014,-0.0052,-0.0057,-34.65,-25.275,-7.95,,adl
1.025571,-0.0432,0.0474,0.0695,-0.0014,-0.0052,-0.0057,-34.65,-25.275,-7.95,,adl
1.047341,-0.0432,0.0474,0.0695,-0.0014,-0.0052,-0.0057,-34.65,-25.275,-7.95,,adl
1.048906,-0.018,0.034,0.0417,-0.0014,-0.0052,-0.0057,-34.65,-25.275,-7.95,,adl
1.052905,-0.018,0.034,0.0417,0.0086,-0.0049,-0.0024,-34.65,-25.275,-7.95,,adl
1.069541,-0.018,0.034,0.0417,0.0086,-0.0049,-0.0024,-34.65,-25.275,-7.95,,adl
1.071404,-0.0065,0.051,0.1277,0.0086,-0.0049,-0.0024,-34.65,-25.275,-7.95,,adl
1.081894,-0.0065,0.051,0.1277,0.0086,-0.0049,-0.0024,-34.725,-24.975,-7.65,,adl
1.08431,-0.0065,0.051,0.1277,0.0086,-0.0049,-0.0024,-34.725,-24.975,-7.65,,adl
1.085544,-0.016,0.0303,0.1944,0.0086,-0.0049,-0.0024,-34.725,-24.975,-7.65,,adl
1.106195,-0.016,0.0303,0.1944,0.0086,-0.0049,-0.0024,-34.725,-24.975,-7.65,,adl
1.107848,-0.0009,0.0679,0.0546,0.0086,-0.0049,-0.0024,-34.725,-24.975,-7.65,,adl
1.122565,-0.0009,0.0679,0.0546,0.0444,0.0234,0.006,-34.725,-24.975,-7.65,,adl
1.124688,-0.0009,0.0679,0.0546,0.0444,0.0234,0.006,-34.725,-24.975,-7.65,,adl
1.125925,-0.0155,0.0759,-0.002,0.0444,0.0234,0.006,-34.725,-24.975,-7.65,,adl
1.144887,-0.0155,0.0759,-0.002,0.0444,0.0234,0.006,-34.725,-24.975,-7.65,,adl
1.146919,-0.0174,0.0498,0.1091,0.0444,0.0234,0.006,-34.725,-24.975,-7.65,,adl
1.154933,-0.0174,0.0498,0.1091,0.0444,0.0234,0.006,-34.875,-25.125,-7.575,,adl
1.164695,-0.0174,0.0498,0.1091,0.0444,0.0234,0.006,-34.875,-25.125,-7.575,,adl
1.166916,-0.0369,0.0289,0.2106,0.0444,0.0234,0.006,-34.875,-25.125,-7.575,,adl
1.183862,-0.0369,0.0289,0.2106,0.0444,0.0234,0.006,-34.875,-25.125,-7.575,,adl
1.186007,-0.0332,-0.0039,0.1444,0.0444,0.0234,0.006,-34.875,-25.125,-7.575,,adl
1.191907,-0.0332,-0.0039,0.1444,0.0702,-0.0186,0.0029,-34.875,-25.125,-7.575,,adl
1.204221,-0.0332,-0.0039,0.1444,0.0702,-0.0186,0.0029,-34.875,-25.125,-7.575,,adl
1.206316,-0.0266,-0.0008,-0.0741,0.0702,-0.0186,0.0029,-34.875,-25.125,-7.575,,adl
1.223513,-0.0266,-0.0008,-0.0741,0.0702,-0.0186,0.0029,-34.875,-25.125,-7.575,,adl
1.225511,-0.0049,0.0164,-0.1282,0.0702,-0.0186,0.0029,-34.875,-25.125,-7.575,,adl
1.226998,-0.0049,0.0164,-0.1282,0.0702,-0.0186,0.0029,-35.175,-25.575,-7.575,,adl
1.242742,-0.0049,0.0164,-0.1282,0.0702,-0.0186,0.0029,-35.175,-25.575,-7.575,,adl
1.244619,0.0084,0.039,-0.0023,0.0702,-0.0186,0.0029,-35.175,-25.575,-7.575,,adl
1.257335,0.0084,0.039,-0.0023,0.0476,-0.0249,-0.0005,-35.175,-25.575,-7.575,,adl
1.262209,0.0084,0.039,-0.0023,0.0476,-0.0249,-0.0005,-35.175,-25.575,-7.575,,adl
1.263867,0.0139,0.0739,0.1468,0.0476,-0.0249,-0.0005,-35.175,-25.575,-7.575,,adl
1.281973,0.0139,0.0739,0.1468,0.0476,-0.0249,-0.0005,-35.175,-25.575,-7.575,,adl
1.283688,-0.0205,0.0829,0.1144,0.0476,-0.0249,-0.0005,-35.175,-25.575,-7.575,,adl
1.284999,-0.0205,0.0829,0.1144,0.0476,-0.0249,-0.0005,-35.325,-25.65,-7.575,,adl
1.302932,-0.0205,0.0829,0.1144,0.0476,-0.0249,-0.0005,-35.325,-25.65,-7.575,,adl
1.305941,-0.0362,0.0708,-0.0331,0.0476,-0.0249,-0.0005,-35.325,-25.65,-7.575,,adl
1.323586,-0.0362,0.0708,-0.0331,0.0476,-0.0249,-0.0005,-35.325,-25.65,-7.575,,adl
1.325928,-0.016,0.063,-0.0837,0.0476,-0.0249,-0.0005,-35.325,-25.65,-7.575,,adl
1.327863,-0.016,0.063,-0.0837,0.0443,-0.0133,0.0029,-35.325,-25.65,-7.575,,adl
1.341273,-0.016,0.063,-0.0837,0.0443,-0.0133,0.0029,-35.325,-25.65,-7.575,,adl
1.343254,-0.0218,0.0432,0.0096,0.0443,-0.0133,0.0029,-35.325,-25.65,-7.575,,adl
1.356103,-0.0218,0.0432,0.0096,0.0443,-0.0133,0.0029,-35.325,-25.95,-7.35,,adl
1.360468,-0.0218,0.0432,0.0096,0.0443,-0.0133,0.0029,-35.325,-25.95,-7.35,,adl
1.362028,-0.0173,0.0097,0.1706,0.0443,-0.0133,0.0029,-35.325,-25.95,-7.35,,adl
1.379561,-0.0173,0.0097,0.1706,0.0443,-0.0133,0.0029,-35.325,-25.95,-7.35,,adl
1.381041,-0.0147,-0.008,0.1056,0.0443,-0.0133,0.0029,-35.325,-25.95,-7.35,,adl
1.39419,-0.0147,-0.008,0.1056,0.0241,-0.0002,0.0046,-35.325,-25.95,-7.35,,adl
1.399139,-0.0147,-0.008,0.1056,0.0241,-0.0002,0.0046,-35.325,-25.95,-7.35,,adl
1.401455,-0.0248,0.0338,-0.0761,0.0241,-0.0002,0.0046,-35.325,-25.95,-7.35,,adl
1.419777,-0.0248,0.0338,-0.0761,0.0241,-0.0002,0.0046,-35.325,-25.95,-7.35,,adl
1.420505,-0.0568,0.046,-0.0119,0.0241,-0.0002,0.0046,-35.325,-25.95,-7.35,,adl
1.422139,-0.0568,0.046,-0.0119,0.0241,-0.0002,0.0046,-34.575,-25.05,-7.125,,adl
1.439476,-0.0568,0.046,-0.0119,0.0241,-0.0002,0.0046,-34.575,-25.05,-7.125,,adl
1.440186,-0.0556,0.0345,0.134,0.0241,-0.0002,0.0046,-34.575,-25.05,-7.125,,adl
1.458008,-0.0556,0.0345,0.134,0.0241,-0.0002,0.0046,-34.575,-25.05,-7.125,,adl
1.458621,-0.0308,0.021,0.1003,0.0241,-0.0002,0.0046,-34.575,-25.05,-7.125,,adl
1.46332,-0.0308,0.021,0.1003,0.0235,0.0041,0.0052,-34.575,-25.05,-7.125,,adl
1.482998,-0.0308,0.021,0.1003,0.0235,0.0041,0.0052,-34.575,-25.05,-7.125,,adl
1.483634,-0.0373,0.0159,0.0273,0.0235,0.0041,0.0052,-34.575,-25.05,-7.125,,adl
1.493112,-0.0373,0.0159,0.0273,0.0235,0.0041,0.0052,-33.975,-24.75,-7.65,,adl
1.504563,-0.0373,0.0159,0.0273,0.0235,0.0041,0.0052,-33.975,-24.75,-7.65,,adl
1.505141,-0.0185,0.0272,0.034,0.0235,0.0041,0.0052,-33.975,-24.75,-7.65,,adl
1.522128,-0.0185,0.0272,0.034,0.0235,0.0041,0.0052,-33.975,-24.75,-7.65,,adl
1.522702,-0.0007,0.0621,0.017,0.0235,0.0041,0.0052,-33.975,-24.75,-7.65,,adl
1.536414,-0.0007,0.0621,0.017,0.0244,0.004,0.0002,-33.975,-24.75,-7.65,,adl
1.541548,-0.0007,0.0621,0.017,0.0244,0.004,0.0002,-33.975,-24.75,-7.65,,adl
1.542119,0.0276,0.0613,-0.0041,0.0244,0.004,0.0002,-33.975,-24.75,-7.65,,adl
1.561336,0.0276,0.0613,-0.0041,0.0244,0.004,0.0002,-33.975,-24.75,-7.65,,adl
1.563336,0.0137,0.056,0.0022,0.0244,0.004,0.0002,-33.975,-24.75,-7.65,,adl
1.564648,0.0137,0.056,0.0022,0.0244,0.004,0.0002,-34.35,-25.05,-7.05,,adl
1.580666,0.0137,0.056,0.0022,0.0244,0.004,0.0002,-34.35,-25.05,-7.05,,adl
1.582483,-0.0081,0.0533,0.0166,0.0244,0.004,0.0002,-34.35,-25.05,-7.05,,adl
1.600518,-0.0081,0.0533,0.0166,0.0244,0.004,0.0002,-34.35,-25.05,-7.05,,adl
1.602426,-0.0226,0.0402,-0.0005,0.0244,0.004,0.0002,-34.35,-25.05,-7.05,,adl
1.60813,-0.0226,0.0402,-0.0005,0.0202,-0.0052,-0.0005,-34.35,-25.05,-7.05,,adl
1.620347,-0.0226,0.0402,-0.0005,0.0202,-0.0052,-0.0005,-34.35,-25.05,-7.05,,adl
1.623573,-0.0181,0.0349,0.0041,0.0202,-0.0052,-0.0005,-34.35,-25.05,-7.05,,adl
1.632574,-0.0181,0.0349,0.0041,0.0202,-0.0052,-0.0005,-34.65,-25.05,-6.975,,adl
1.639523,-0.0181,0.0349,0.0041,0.0202,-0.0052,-0.0005,-34.65,-25.05,-6.975,,adl
1.640994,-0.0136,0.0183,0.0308,0.0202,-0.0052,-0.0005,-34.65,-25.05,-6.975,,adl
1.658941,-0.0136,0.0183,0.0308,0.0202,-0.0052,-0.0005,-34.65,-25.05,-6.975,,adl
1.660778,-0.012,0.005,0.0466,0.0202,-0.0052,-0.0005,-34.65,-25.05,-6.975,,adl
1.673714,-0.012,0.005,0.0466,0.011,-0.0027,0.0034,-34.65,-25.05,-6.975,,adl
1.675499,-0.012,0.005,0.0466,0.011,-0.0027,0.0034,-34.65,-25.05,-6.975,,adl
1.676741,-0.0163,0.0091,0.0481,0.011,-0.0027,0.0034,-34.65,-25.05,-6.975,,adl
1.697939,-0.0163,0.0091,0.0481,0.011,-0.0027,0.0034,-34.65,-25.05,-6.975,,adl
1.699663,-0.0259,0.0174,0.0469,0.011,-0.0027,0.0034,-34.65,-25.05,-6.975,,adl
1.703061,-0.0259,0.0174,0.0469,0.011,-0.0027,0.0034,-34.125,-24.975,-6.975,,adl
1.719319,-0.0259,0.0174,0.0469,0.011,-0.0027,0.0034,-34.125,-24.975,-6.975,,adl
1.720975,-0.0297,0.0289,0.0253,0.011,-0.0027,0.0034,-34.125,-24.975,-6.975,,adl
1.741856,-0.0297,0.0289,0.0253,0.011,-0.0027,0.0034,-34.125,-24.975,-6.975,,adl
1.743652,-0.0305,0.0479,-0.0017,0.011,-0.0027,0.0034,-34.125,-24.975,-6.975,,adl
1.746763,-0.0305,0.0479,-0.0017,0.0128,-0.0003,0.0027,-34.125,-24.975,-6.975,,adl
1.761947,-0.0305,0.0479,-0.0017,0.0128,-0.0003,0.0027,-34.125,-24.975,-6.975,,adl
1.764028,-0.0185,0.059,0.0149,0.0128,-0.0003,0.0027,-34.125,-24.975,-6.975,,adl
1.772956,-0.0185,0.059,0.0149,0.0128,-0.0003,0.0027,-34.2,-24.75,-6.675,,adl
1.781179,-0.0185,0.059,0.0149,0.0128,-0.0003,0.0027,-34.2,-24.75,-6.675,,adl
1.782549,-0.0196,0.0458,0.013,0.0128,-0.0003,0.0027,-34.2,-24.75,-6.675,,adl
1.801783,-0.0196,0.0458,0.013,0.0128,-0.0003,0.0027,-34.2,-24.75,-6.675,,adl
1.80378,-0.021,0.0464,0.0099,0.0128,-0.0003,0.0027,-34.2,-24.75,-6.675,,adl
1.815473,-0.021,0.0464,0.0099,0.0063,0.0011,-0.0024,-34.2,-24.75,-6.675,,adl
1.822388,-0.021,0.0464,0.0099,0.0063,0.0011,-0.0024,-34.2,-24.75,-6.675,,adl
1.824809,-0.0238,0.0391,0.0203,0.0063,0.0011,-0.0024,-34.2,-24.75,-6.675,,adl
1.839791,-0.0238,0.0391,0.0203,0.0063,0.0011,-0.0024,-34.2,-24.75,-6.675,,adl
1.8415,-0.0309,0.0372,0.051,0.0063,0.0011,-0.0024,-34.2,-24.75,-6.675,,adl
1.842703,-0.0309,0.0372,0.051,0.0063,0.0011,-0.0024,-35.175,-25.35,-6.975,,adl
1.859361,-0.0309,0.0372,0.051,0.0063,0.0011,-0.0024,-35.175,-25.35,-6.975,,adl
1.860932,-0.0349,0.0179,0.0457,0.0063,0.0011,-0.0024,-35.175,-25.35,-6.975,,adl
1.874101,-0.0349,0.0179,0.0457,0.0063,0.0011,-0.0024,-35.175,-25.35,-6.975,,adl
1.875589,-0.0054,0.0221,0.0257,0.0063,0.0011,-0.0024,-35.175,-25.35,-6.975,,adl
1.883653,-0.0054,0.0221,0.0257,0.0121,-0.0008,0.0008,-35.175,-25.35,-6.975,,adl
1.898432,-0.0054,0.0221,0.0257,0.0121,-0.0008,0.0008,-35.175,-25.35,-6.975,,adl
1.900598,-0.0256,0.0027,0.0739,0.0121,-0.0008,0.0008,-35.175,-25.35,-6.975,,adl
1.912647,-0.0256,0.0027,0.0739,0.0121,-0.0008,0.0008,-34.275,-25.65,-6.525,,adl
1.919323,-0.0256,0.0027,0.0739,0.0121,-0.0008,0.0008,-34.275,-25.65,-6.525,,adl
1.921615,-0.0059,0.0243,0.0137,0.0121,-0.0008,0.0008,-34.275,-25.65,-6.525,,adl
1.937726,-0.0059,0.0243,0.0137,0.0121,-0.0008,0.0008,-34.275,-25.65,-6.525,,adl
1.939306,-0.011,0.0453,-0.0002,0.0121,-0.0008,0.0008,-34.275,-25.65,-6.525,,adl
1.956265,-0.011,0.0453,-0.0002,0.0415,0.0064,0.0023,-34.275,-25.65,-6.525,,adl
1.956925,-0.011,0.0453,-0.0002,0.0415,0.0064,0.0023,-34.275,-25.65,-6.525,,adl
1.957322,0.0162,0.0608,-0.0054,0.0415,0.0064,0.0023,-34.275,-25.65,-6.525,,adl
1.973946,0.0162,0.0608,-0.0054,0.0415,0.0064,0.0023,-34.275,-25.65,-6.525,,adl
1.974662,-0.013,0.0648,0.0209,0.0415,0.0064,0.0023,-34.275,-25.65,-6.525,,adl
1.982204,-0.013,0.0648,0.0209,0.0415,0.0064,0.0023,-34.575,-25.425,-6.45,,adl
1.996501,-0.013,0.0648,0.0209,0.0415,0.0064,0.0023,-34.575,-25.425,-6.45,,adl
1.997092,-0.0376,0.0229,0.144,0.0415,0.0064,0.0023,-34.575,-25.425,-6.45,,adl
2.016169,-0.0376,0.0229,0.144,0.0415,0.0064,0.0023,-34.575,-25.425,-6.45,,adl
2.016756,-0.0402,-0.0407,0.2334,0.0415,0.0064,0.0023,-34.575,-25.425,-6.45,,adl
2.021037,-0.0402,-0.0407,0.2334,0.062,-0.0257,-0.0011,-34.575,-25.425,-6.45,,adl
2.037616,-0.0402,-0.0407,0.2334,0.062,-0.0257,-0.0011,-34.575,-25.425,-6.45,,adl
2.038268,-0.0252,-0.0619,0.1062,0.062,-0.0257,-0.0011,-34.575,-25.425,-6.45,,adl
2.053341,-0.0252,-0.0619,0.1062,0.062,-0.0257,-0.0011,-34.65,-25.05,-6.825,,adl
2.060203,-0.0252,-0.0619,0.1062,0.062,-0.0257,-0.0011,-34.65,-25.05,-6.825,,adl
2.060768,-0.0143,-0.0303,-0.0841,0.062,-0.0257,-0.0011,-34.65,-25.05,-6.825,,adl
2.07971,-0.0143,-0.0303,-0.0841,0.062,-0.0257,-0.0011,-34.65,-25.05,-6.825,,adl
2.080383,-0.0024,0.0398,-0.1622,0.062,-0.0257,-0.0011,-34.65,-25.05,-6.825,,adl
2.094382,-0.0024,0.0398,-0.1622,0.0686,-0.0176,0.0023,-34.65,-25.05,-6.825,,adl
2.099486,-0.0024,0.0398,-0.1622,0.0686,-0.0176,0.0023,-34.65,-25.05,-6.825,,adl
2.101367,0.0118,0.0574,-0.1019,0.0686,-0.0176,0.0023,-34.65,-25.05,-6.825,,adl
2.120049,0.0118,0.0574,-0.1019,0.0686,-0.0176,0.0023,-34.65,-25.05,-6.825,,adl
2.121495,0.012,0.0686,0.0151,0.0686,-0.0176,0.0023,-34.65,-25.05,-6.825,,adl
2.12254,0.012,0.0686,0.0151,0.0686,-0.0176,0.0023,-34.35,-25.65,-5.85,,adl
2.141816,0.012,0.0686,0.0151,0.0686,-0.0176,0.0023,-34.35,-25.65,-5.85,,adl
2.143288,-0.0113,0.0651,0.0663,0.0686,-0.0176,0.0023,-34.35,-25.65,-5.85,,adl
2.157931,-0.0113,0.0651,0.0663,0.0686,-0.0176,0.0023,-34.35,-25.65,-5.85,,adl
2.159982,-0.0398,0.0599,0.0401,0.0686,-0.0176,0.0023,-34.35,-25.65,-5.85,,adl
2.162878,-0.0398,0.0599,0.0401,0.0098,-0.0084,-0.0008,-34.35,-25.65,-5.85,,adl
2.173671,-0.0398,0.0599,0.0401,0.0098,-0.0084,-0.0008,-34.35,-25.65,-5.85,,adl
2.175896,-0.0419,0.0236,0.004,0.0098,-0.0084,-0.0008,-34.35,-25.65,-5.85,,adl
2.19261,-0.0419,0.0236,0.004,0.0098,-0.0084,-0.0008,-34.425,-25.425,-5.85,,adl
2.194804,-0.0419,0.0236,0.004,0.0098,-0.0084,-0.0008,-34.425,-25.425,-5.85,,adl
2.196329,-0.0344,-0.0349,0.0516,0.0098,-0.0084,-0.0008,-34.425,-25.425,-5.85,,adl
2.22504,-0.0344,-0.0349,0.0516,0.0098,-0.0084,-0.0008,-34.425,-25.425,-5.85,,adl
2.227177,-0.0071,-0.0472,0.1189,0.0098,-0.0084,-0.0008,-34.425,-25.425,-5.85,,adl
2.231798,-0.0071,-0.0472,0.1189,0.0183,0.0009,0.0003,-34.425,-25.425,-5.85,,adl
2.239394,-0.0071,-0.0472,0.1189,0.0183,0.0009,0.0003,-34.425,-25.425,-5.85,,adl
2.241308,-0.0137,-0.038,0.1063,0.0183,0.0009,0.0003,-34.425,-25.425,-5.85,,adl
2.256156,-0.0137,-0.038,0.1063,0.0183,0.0009,0.0003,-34.425,-25.425,-5.85,,adl
2.258589,-0.0283,0.0243,-0.0339,0.0183,0.0009,0.0003,-34.425,-25.425,-5.85,,adl
2.26282,-0.0283,0.0243,-0.0339,0.0183,0.0009,0.0003,-34.125,-24.75,-5.325,,adl
2.273749,-0.0283,0.0243,-0.0339,0.0183,0.0009,0.0003,-34.125,-24.75,-5.325,,adl
2.275827,-0.0415,0.072,-0.061,0.0183,0.0009,0.0003,-34.125,-24.75,-5.325,,adl
2.294956,-0.0415,0.072,-0.061,0.0183,0.0009,0.0003,-34.125,-24.75,-5.325,,adl
2.296924,-0.0296,0.0796,0.0472,0.0183,0.0009,0.0003,-34.125,-24.75,-5.325,,adl
2.300243,-0.0296,0.0796,0.0472,0.0301,-0.0024,-0.0003,-34.125,-24.75,-5.325,,adl
2.314354,-0.0296,0.0796,0.0472,0.0301,-0.0024,-0.0003,-34.125,-24.75,-5.325,,adl
2.316257,-0.0073,0.0521,0.0847,0.0301,-0.0024,-0.0003,-34.125,-24.75,-5.325,,adl
2.332879,-0.0073,0.0521,0.0847,0.0301,-0.0024,-0.0003,-34.275,-25.425,-6.375,,adl
2.334603,-0.0073,0.0521,0.0847,0.0301,-0.0024,-0.0003,-34.275,-25.425,-6.375,,adl
2.336263,-0.0207,0.0163,0.0716,0.0301,-0.0024,-0.0003,-34.275,-25.425,-6.375,,adl
2.358361,-0.0207,0.0163,0.0716,0.0301,-0.0024,-0.0003,-34.275,-25.425,-6.375,,adl
2.360504,-0.0327,-0.0192,0.022,0.0301,-0.0024,-0.0003,-34.275,-25.425,-6.375,,adl
2.376749,-0.0327,-0.0192,0.022,0.0269,0.0102,0.0002,-34.275,-25.425,-6.375,,adl
2.379437,-0.0327,-0.0192,0.022,0.0269,0.0102,0.0002,-34.275,-25.425,-6.375,,adl
2.381593,-0.0015,-0.0029,0.0073,0.0269,0.0102,0.0002,-34.275,-25.425,-6.375,,adl
2.397697,-0.0015,-0.0029,0.0073,0.0269,0.0102,0.0002,-34.275,-25.425,-6.375,,adl
2.400161,0.0034,0.0169,0.0056,0.0269,0.0102,0.0002,-34.275,-25.425,-6.375,,adl
2.405566,0.0034,0.0169,0.0056,0.0269,0.0102,0.0002,-34.725,-25.575,-6.45,,adl
2.417339,0.0034,0.0169,0.0056,0.0269,0.0102,0.0002,-34.725,-25.575,-6.45,,adl
2.417838,-0.0036,0.0444,0.0198,0.0269,0.0102,0.0002,-34.725,-25.575,-6.45,,adl
2.437592,-0.0036,0.0444,0.0198,0.0269,0.0102,0.0002,-34.725,-25.575,-6.45,,adl
2.438213,-0.0058,0.062,0.0138,0.0269,0.0102,0.0002,-34.725,-25.575,-6.45,,adl
2.441864,-0.0058,0.062,0.0138,0.0261,-0.0009,0.0005,-34.725,-25.575,-6.45,,adl
2.456793,-0.0058,0.062,0.0138,0.0261,-0.0009,0.0005,-34.725,-25.575,-6.45,,adl
2.457394,0.0029,0.0692,-0.0451,0.0261,-0.0009,0.0005,-34.725,-25.575,-6.45,,adl
2.47333,0.0029,0.0692,-0.0451,0.0261,-0.0009,0.0005,-34.725,-25.575,-6.45,,adl
2.473928,0.0032,0.0517,-0.0514,0.0261,-0.0009,0.0005,-34.725,-25.575,-6.45,,adl
2.474306,0.0032,0.0517,-0.0514,0.0261,-0.0009,0.0005,-34.125,-25.35,-5.925,,adl
2.495933,0.0032,0.0517,-0.0514,0.0261,-0.0009,0.0005,-34.125,-25.35,-5.925,,adl
2.496482,0.0184,0.0195,0.0142,0.0261,-0.0009,0.0005,-34.125,-25.35,-5.925,,adl
2.510074,0.0184,0.0195,0.0142,0.002,-0.0052,-0.0026,-34.125,-25.35,-5.925,,adl
2.515628,0.0184,0.0195,0.0142,0.002,-0.0052,-0.0026,-34.125,-25.35,-5.925,,adl
2.516212,0.0033,0.0073,0.0618,0.002,-0.0052,-0.0026,-34.125,-25.35,-5.925,,adl
2.535879,0.0033,0.0073,0.0618,0.002,-0.0052,-0.0026,-34.125,-25.35,-5.925,,adl
2.538256,-0.023,-0.0029,0.01,0.002,-0.0052,-0.0026,-34.125,-25.35,-5.925,,adl
2.542706,-0.023,-0.0029,0.01,0.002,-0.0052,-0.0026,-34.425,-25.875,-5.325,,adl
2.561011,-0.023,-0.0029,0.01,0.002,-0.0052,-0.0026,-34.425,-25.875,-5.325,,adl
2.562499,-0.038,0.0025,-0.0732,0.002,-0.0052,-0.0026,-34.425,-25.875,-5.325,,adl
2.574329,-0.038,0.0025,-0.0732,0.002,-0.0052,-0.0026,-34.425,-25.875,-5.325,,adl
2.576154,-0.0354,0.0085,-0.1013,0.002,-0.0052,-0.0026,-34.425,-25.875,-5.325,,adl
2.578825,-0.0354,0.0085,-0.1013,-0.0247,0.0049,-0.0067,-34.425,-25.875,-5.325,,adl
2.599777,-0.0354,0.0085,-0.1013,-0.0247,0.0049,-0.0067,-34.425,-25.875,-5.325,,adl
2.601317,-0.038,0.0233,-0.0197,-0.0247,0.0049,-0.0067,-34.425,-25.875,-5.325,,adl
2.609345,-0.038,0.0233,-0.0197,-0.0247,0.0049,-0.0067,-35.775,-24.825,-5.625,,adl
2.618563,-0.038,0.0233,-0.0197,-0.0247,0.0049,-0.0067,-35.775,-24.825,-5.625,,adl
2.6201,-0.0378,0.027,0.1045,-0.0247,0.0049,-0.0067,-35.775,-24.825,-5.625,,adl
2.637591,-0.0378,0.027,0.1045,-0.0247,0.0049,-0.0067,-35.775,-24.825,-5.625,,adl
2.640987,-0.0417,0.0064,0.1889,-0.0247,0.0049,-0.0067,-35.775,-24.825,-5.625,,adl
2.656721,-0.0417,0.0064,0.1889,-0.0202,-0.007,-0.0044,-35.775,-24.825,-5.625,,adl
2.660893,-0.0417,0.0064,0.1889,-0.0202,-0.007,-0.0044,-35.775,-24.825,-5.625,,adl
2.663962,-0.0342,-0.0228,0.1881,-0.0202,-0.007,-0.0044,-35.775,-24.825,-5.625,,adl
2.675045,-0.0342,-0.0228,0.1881,-0.0202,-0.007,-0.0044,-35.775,-24.825,-5.625,,adl
2.678252,-0.0214,-0.0059,0.1277,-0.0202,-0.007,-0.0044,-35.775,-24.825,-5.625,,adl
2.680136,-0.0214,-0.0059,0.1277,-0.0202,-0.007,-0.0044,-35.325,-25.05,-6.45,,adl
2.696505,-0.0214,-0.0059,0.1277,-0.0202,-0.007,-0.0044,-35.325,-25.05,-6.45,,adl
2.699353,-0.0434,-0.0057,0.1106,-0.0202,-0.007,-0.0044,-35.325,-25.05,-6.45,,adl
2.715932,-0.0434,-0.0057,0.1106,-0.0202,-0.007,-0.0044,-35.325,-25.05,-6.45,,adl
2.71868,0.0038,0.0277,0.0332,-0.0202,-0.007,-0.0044,-35.325,-25.05,-6.45,,adl
2.721096,0.0038,0.0277,0.0332,0.051,-0.004,0.0015,-35.325,-25.05,-6.45,,adl
2.738141,0.0038,0.0277,0.0332,0.051,-0.004,0.0015,-35.325,-25.05,-6.45,,adl
2.740138,-0.0146,0.0574,0.0031,0.051,-0.004,0.0015,-35.325,-25.05,-6.45,,adl
2.745317,-0.0146,0.0574,0.0031,0.051,-0.004,0.0015,-35.925,-25.425,-5.625,,adl
2.758134,-0.0146,0.0574,0.0031,0.051,-0.004,0.0015,-35.925,-25.425,-5.625,,adl
2.760065,-0.0025,0.085,-0.0213,0.051,-0.004,0.0015,-35.925,-25.425,-5.625,,adl
2.774208,-0.0025,0.085,-0.0213,0.051,-0.004,0.0015,-35.925,-25.425,-5.625,,adl
2.776616,-0.0376,0.0743,-0.0135,0.051,-0.004,0.0015,-35.925,-25.425,-5.625,,adl
2.789242,-0.0376,0.0743,-0.0135,0.0597,0.0101,0.0011,-35.925,-25.425,-5.625,,adl
2.794345,-0.0376,0.0743,-0.0135,0.0597,0.0101,0.0011,-35.925,-25.425,-5.625,,adl
2.795951,-0.0171,0.0244,0.1307,0.0597,0.0101,0.0011,-35.925,-25.425,-5.625,,adl
2.812723,-0.0171,0.0244,0.1307,0.0597,0.0101,0.0011,-35.925,-25.425,-5.625,,adl
2.8143,0.0068,-0.0785,0.4522,0.0597,0.0101,0.0011,-35.925,-25.425,-5.625,,adl
2.816593,0.0068,-0.0785,0.4522,0.0597,0.0101,0.0011,-35.625,-25.65,-5.55,,adl
2.833607,0.0068,-0.0785,0.4522,0.0597,0.0101,0.0011,-35.625,-25.65,-5.55,,adl
2.835421,0.0169,-0.1529,0.3895,0.0597,0.0101,0.0011,-35.625,-25.65,-5.55,,adl
2.85759,0.0169,-0.1529,0.3895,0.0597,0.0101,0.0011,-35.625,-25.65,-5.55,,adl
2.860053,0.0065,-0.124,-0.1163,0.0597,0.0101,0.0011,-35.625,-25.65,-5.55,,adl
2.86236,0.0065,-0.124,-0.1163,0.1492,-0.0324,-0.0003,-35.625,-25.65,-5.55,,adl
2.873886,0.0065,-0.124,-0.1163,0.1492,-0.0324,-0.0003,-35.625,-25.65,-5.55,,adl
2.876277,-0.0213,-0.0295,-0.4489,0.1492,-0.0324,-0.0003,-35.625,-25.65,-5.55,,adl
2.889959,-0.0213,-0.0295,-0.4489,0.1492,-0.0324,-0.0003,-35.55,-25.35,-5.625,,adl
2.897221,-0.0213,-0.0295,-0.4489,0.1492,-0.0324,-0.0003,-35.55,-25.35,-5.625,,adl
2.899476,-0.049,0.0258,-0.2017,0.1492,-0.0324,-0.0003,-35.55,-25.35,-5.625,,adl
2.91701,-0.049,0.0258,-0.2017,0.1492,-0.0324,-0.0003,-35.55,-25.35,-5.625,,adl
2.919618,-0.0394,0.0924,0.1291,0.1492,-0.0324,-0.0003,-35.55,-25.35,-5.625,,adl
2.930954,-0.0394,0.0924,0.1291,0.0154,-0.0186,-0.0063,-35.55,-25.35,-5.625,,adl
2.936904,-0.0394,0.0924,0.1291,0.0154,-0.0186,-0.0063,-35.55,-25.35,-5.625,,adl
2.938384,-0.0071,0.1246,0.1768,0.0154,-0.0186,-0.0063,-35.55,-25.35,-5.625,,adl
2.962602,-0.0071,0.1246,0.1768,0.0154,-0.0186,-0.0063,-35.55,-25.35,-5.625,,adl
2.964168,-0.0051,0.0893,0.0303,0.0154,-0.0186,-0.0063,-35.55,-25.35,-5.625,,adl
2.965188,-0.0051,0.0893,0.0303,0.0154,-0.0186,-0.0063,-35.7,-25.35,-4.95,,adl
2.977241,-0.0051,0.0893,0.0303,0.0154,-0.0186,-0.0063,-35.7,-25.35,-4.95,,adl
2.978914,0.0013,0.0349,-0.0521,0.0154,-0.0186,-0.0063,-35.7,-25.35,-4.95,,adl
2.994096,0.0013,0.0349,-0.0521,0.0154,-0.0186,-0.0063,-35.7,-25.35,-4.95,,adl
2.995607,-0.0162,-0.0084,0.0042,0.0154,-0.0186,-0.0063,-35.7,-25.35,-4.95,,adl
2.99889,-0.0162,-0.0084,0.0042,0.0037,-0.0095,-0.0024,-35.7,-25.35,-4.95,,adl
3.014008,-0.0162,-0.0084,0.0042,0.0037,-0.0095,-0.0024,-35.7,-25.35,-4.95,,adl
3.016264,-0.0152,-0.055,0.0846,0.0037,-0.0095,-0.0024,-35.7,-25.35,-4.95,,adl
3.024286,-0.0152,-0.055,0.0846,0.0037,-0.0095,-0.0024,-35.625,-25.725,-5.25,,adl
3.033246,-0.0152,-0.055,0.0846,0.0037,-0.0095,-0.0024,-35.625,-25.725,-5.25,,adl
3.034884,-0.0072,-0.065,0.1975,0.0037,-0.0095,-0.0024,-35.625,-25.725,-5.25,,adl
3.052794,-0.0072,-0.065,0.1975,0.0037,-0.0095,-0.0024,-35.625,-25.725,-5.25,,adl
3.055954,-0.0304,-0.0243,0.1325,0.0037,-0.0095,-0.0024,-35.625,-25.725,-5.25,,adl
3.068175,-0.0304,-0.0243,0.1325,0.017,-0.0037,-0.0005,-35.625,-25.725,-5.25,,adl
3.079769,-0.0304,-0.0243,0.1325,0.017,-0.0037,-0.0005,-35.625,-25.725,-5.25,,adl
3.082569,-0.0236,0.048,-0.012,0.017,-0.0037,-0.0005,-35.625,-25.725,-5.25,,adl
3.093367,-0.0236,0.048,-0.012,0.017,-0.0037,-0.0005,-35.175,-25.35,-5.625,,adl
3.096516,-0.0236,0.048,-0.012,0.017,-0.0037,-0.0005,-35.175,-25.35,-5.625,,adl
3.098531,-0.021,0.0547,0.0076,0.017,-0.0037,-0.0005,-35.175,-25.35,-5.625,,adl
3.112223,-0.021,0.0547,0.0076,0.017,-0.0037,-0.0005,-35.175,-25.35,-5.625,,adl
3.114107,-0.0027,0.0554,0.1162,0.017,-0.0037,-0.0005,-35.175,-25.35,-5.625,,adl
3.13103,-0.0027,0.0554,0.1162,0.017,-0.0037,-0.0005,-35.175,-25.35,-5.625,,adl
3.133336,-0.0226,0.0339,0.2337,0.017,-0.0037,-0.0005,-35.175,-25.35,-5.625,,adl
3.138956,-0.0226,0.0339,0.2337,0.0325,0.0057,0.0017,-35.175,-25.35,-5.625,,adl
3.161344,-0.0226,0.0339,0.2337,0.0325,0.0057,0.0017,-35.175,-25.35,-5.625,,adl
3.164245,-0.0446,-0.014,0.2692,0.0325,0.0057,0.0017,-35.175,-25.35,-5.625,,adl
3.166984,-0.0446,-0.014,0.2692,0.0325,0.0057,0.0017,-36.0,-25.725,-5.55,,adl
3.176722,-0.0446,-0.014,0.2692,0.0325,0.0057,0.0017,-36.0,-25.725,-5.55,,adl
3.178781,-0.0381,0.0043,0.0144,0.0325,0.0057,0.0017,-36.0,-25.725,-5.55,,adl
3.195068,-0.0381,0.0043,0.0144,0.0325,0.0057,0.0017,-36.0,-25.725,-5.55,,adl
3.197528,0.0341,0.0353,-0.1688,0.0325,0.0057,0.0017,-36.0,-25.725,-5.55,,adl
3.209624,0.0341,0.0353,-0.1688,0.0718,0.0098,0.0063,-36.0,-25.725,-5.55,,adl
3.214611,0.0341,0.0353,-0.1688,0.0718,0.0098,0.0063,-36.0,-25.725,-5.55,,adl
3.216268,0.0554,0.0542,-0.0939,0.0718,0.0098,0.0063,-36.0,-25.725,-5.55,,adl
3.233732,0.0554,0.0542,-0.0939,0.0718,0.0098,0.0063,-36.0,-25.725,-5.55,,adl
3.236322,0.0544,0.0649,0.0708,0.0718,0.0098,0.0063,-36.0,-25.725,-5.55,,adl
3.243848,0.0544,0.0649,0.0708,0.0718,0.0098,0.0063,-35.4,-25.35,-5.025,,adl
3.253672,0.0544,0.0649,0.0708,0.0718,0.0098,0.0063,-35.4,-25.35,-5.025,,adl
3.255373,0.0191,0.0669,-0.0071,0.0718,0.0098,0.0063,-35.4,-25.35,-5.025,,adl
3.274926,0.0191,0.0669,-0.0071,0.0718,0.0098,0.0063,-35.4,-25.35,-5.025,,adl
3.277916,-0.031,0.019,-0.1734,0.0718,0.0098,0.0063,-35.4,-25.35,-5.025,,adl
3.280659,-0.031,0.019,-0.1734,0.0131,-0.0092,-0.0027,-35.4,-25.35,-5.025,,adl
3.294143,-0.031,0.019,-0.1734,0.0131,-0.0092,-0.0027,-35.4,-25.35,-5.025,,adl
3.297703,-0.0275,-0.042,-0.0545,0.0131,-0.0092,-0.0027,-35.4,-25.35,-5.025,,adl
3.306498,-0.0275,-0.042,-0.0545,0.0131,-0.0092,-0.0027,-35.775,-25.725,-5.175,,adl
3.312236,-0.0275,-0.042,-0.0545,0.0131,-0.0092,-0.0027,-35.775,-25.725,-5.175,,adl
3.313869,-0.0058,-0.0628,0.1762,0.0131,-0.0092,-0.0027,-35.775,-25.725,-5.175,,adl
3.331986,-0.0058,-0.0628,0.1762,0.0131,-0.0092,-0.0027,-35.775,-25.725,-5.175,,adl
3.334047,0.0053,-0.0173,0.0843,0.0131,-0.0092,-0.0027,-35.775,-25.725,-5.175,,adl
3.346619,0.0053,-0.0173,0.0843,-0.0348,0.0023,-0.0005,-35.775,-25.725,-5.175,,adl
3.35604,0.0053,-0.0173,0.0843,-0.0348,0.0023,-0.0005,-35.775,-25.725,-5.175,,adl
3.35796,-0.0046,0.0055,-0.1259,-0.0348,0.0023,-0.0005,-35.775,-25.725,-5.175,,adl
3.374251,-0.0046,0.0055,-0.1259,-0.0348,0.0023,-0.0005,-35.775,-25.725,-5.175,,adl
3.377482,-0.0356,0.0272,-0.0727,-0.0348,0.0023,-0.0005,-35.775,-25.725,-5.175,,adl
3.379425,-0.0356,0.0272,-0.0727,-0.0348,0.0023,-0.0005,-35.85,-25.35,-5.25,,adl
3.39105,-0.0356,0.0272,-0.0727,-0.0348,0.0023,-0.0005,-35.85,-25.35,-5.25,,adl
3.393989,-0.0497,0.0475,0.103,-0.0348,0.0023,-0.0005,-35.85,-25.35,-5.25,,adl
3.409951,-0.0497,0.0475,0.103,-0.0348,0.0023,-0.0005,-35.85,-25.35,-5.25,,adl
3.411856,-0.0401,0.0815,0.0309,-0.0348,0.0023,-0.0005,-35.85,-25.35,-5.25,,adl
3.414685,-0.0401,0.0815,0.0309,-0.0643,0.0174,0.0003,-35.85,-25.35,-5.25,,adl
3.434371,-0.0401,0.0815,0.0309,-0.0643,0.0174,0.0003,-35.85,-25.35,-5.25,,adl
3.437172,-0.0152,0.073,-0.1084,-0.0643,0.0174,0.0003,-35.85,-25.35,-5.25,,adl
3.444905,-0.0152,0.073,-0.1084,-0.0643,0.0174,0.0003,-35.775,-25.425,-5.25,,adl
3.458808,-0.0152,0.073,-0.1084,-0.0643,0.0174,0.0003,-35.775,-25.425,-5.25,,adl
3.461427,-0.0276,0.0049,0.1756,-0.0643,0.0174,0.0003,-35.775,-25.425,-5.25,,adl
3.474258,-0.0276,0.0049,0.1756,-0.0643,0.0174,0.0003,-35.775,-25.425,-5.25,,adl
3.476731,-0.0267,-0.0361,0.4369,-0.0643,0.0174,0.0003,-35.775,-25.425,-5.25,,adl
3.489898,-0.0267,-0.0361,0.4369,-0.0507,-0.0031,-0.0017,-35.775,-25.425,-5.25,,adl
3.493505,-0.0267,-0.0361,0.4369,-0.0507,-0.0031,-0.0017,-35.775,-25.425,-5.25,,adl
3.495608,-0.0278,0.0007,0.2166,-0.0507,-0.0031,-0.0017,-35.775,-25.425,-5.25,,adl
3.512629,-0.0278,0.0007,0.2166,-0.0507,-0.0031,-0.0017,-35.775,-25.425,-5.25,,adl
3.514767,-0.0329,0.0123,-0.2908,-0.0507,-0.0031,-0.0017,-35.775,-25.425,-5.25,,adl
3.5167,-0.0329,0.0123,-0.2908,-0.0507,-0.0031,-0.0017,-35.325,-25.725,-5.25,,adl
3.53237,-0.0329,0.0123,-0.2908,-0.0507,-0.0031,-0.0017,-35.325,-25.725,-5.25,,adl
3.536018,0.0326,0.0827,-0.5174,-0.0507,-0.0031,-0.0017,-35.325,-25.725,-5.25,,adl
3.553471,0.0326,0.0827,-0.5174,-0.0507,-0.0031,-0.0017,-35.325,-25.725,-5.25,,adl
3.55663,0.0025,0.0954,-0.2011,-0.0507,-0.0031,-0.0017,-35.325,-25.725,-5.25,,adl
3.558474,0.0025,0.0954,-0.2011,-0.1,0.0067,0.009,-35.325,-25.725,-5.25,,adl
3.574764,0.0025,0.0954,-0.2011,-0.1,0.0067,0.009,-35.325,-25.725,-5.25,,adl
3.577024,0.0365,0.0491,0.6681,-0.1,0.0067,0.009,-35.325,-25.725,-5.25,,adl
3.582692,0.0365,0.0491,0.6681,-0.1,0.0067,0.009,-35.85,-25.65,-5.025,,adl
3.590812,0.0365,0.0491,0.6681,-0.1,0.0067,0.009,-35.85,-25.65,-5.025,,adl
3.59331,-0.0201,-0.0419,0.8998,-0.1,0.0067,0.009,-35.85,-25.65,-5.025,,adl
3.610286,-0.0201,-0.0419,0.8998,-0.1,0.0067,0.009,-35.85,-25.65,-5.025,,adl
3.612204,0.0107,-0.0271,0.2499,-0.1,0.0067,0.009,-35.85,-25.65,-5.025,,adl
3.625036,0.0107,-0.0271,0.2499,0.0321,0.0032,-0.0063,-35.85,-25.65,-5.025,,adl
3.629734,0.0107,-0.0271,0.2499,0.0321,0.0032,-0.0063,-35.85,-25.65,-5.025,,adl
3.631128,0.0283,-0.0587,-0.3281,0.0321,0.0032,-0.0063,-35.85,-25.65,-5.025,,adl
3.649819,0.0283,-0.0587,-0.3281,0.0321,0.0032,-0.0063,-35.85,-25.65,-5.025,,adl
3.652779,-0.0553,-0.0502,-0.5166,0.0321,0.0032,-0.0063,-35.85,-25.65,-5.025,,adl
3.654525,-0.0553,-0.0502,-0.5166,0.0321,0.0032,-0.0063,-35.55,-26.025,-5.775,,adl
3.669661,-0.0553,-0.0502,-0.5166,0.0321,0.0032,-0.0063,-35.55,-26.025,-5.775,,adl
3.673233,-0.079,0.0404,-0.3189,0.0321,0.0032,-0.0063,-35.55,-26.025,-5.775,,adl
3.689404,-0.079,0.0404,-0.3189,0.0321,0.0032,-0.0063,-35.55,-26.025,-5.775,,adl
3.691716,-0.0699,0.0773,0.0144,0.0321,0.0032,-0.0063,-35.55,-26.025,-5.775,,adl
3.698606,-0.0699,0.0773,0.0144,-0.1031,-0.0047,-0.0079,-35.55,-26.025,-5.775,,adl
3.713094,-0.0699,0.0773,0.0144,-0.1031,-0.0047,-0.0079,-35.55,-26.025,-5.775,,adl
3.716028,0.0041,0.0437,0.239,-0.1031,-0.0047,-0.0079,-35.55,-26.025,-5.775,,adl
3.723457,0.0041,0.0437,0.239,-0.1031,-0.0047,-0.0079,-35.625,-25.875,-5.55,,adl
3.732786,0.0041,0.0437,0.239,-0.1031,-0.0047,-0.0079,-35.625,-25.875,-5.55,,adl
3.734467,0.0727,0.0635,0.1406,-0.1031,-0.0047,-0.0079,-35.625,-25.875,-5.55,,adl
3.752129,0.0727,0.0635,0.1406,-0.1031,-0.0047,-0.0079,-35.625,-25.875,-5.55,,adl
3.756084,0.0421,0.1047,-0.0322,-0.1031,-0.0047,-0.0079,-35.625,-25.875,-5.55,,adl
3.767045,0.0421,0.1047,-0.0322,-0.126,0.0119,-0.0021,-35.625,-25.875,-5.55,,adl
3.778352,0.0421,0.1047,-0.0322,-0.126,0.0119,-0.0021,-35.625,-25.875,-5.55,,adl
3.780887,-0.0198,0.0552,0.0019,-0.126,0.0119,-0.0021,-35.625,-25.875,-5.55,,adl
3.791785,-0.0198,0.0552,0.0019,-0.126,0.0119,-0.0021,-35.625,-25.875,-5.55,,adl
3.794246,-0.0615,-0.0478,0.0402,-0.126,0.0119,-0.0021,-35.625,-25.875,-5.55,,adl
3.796368,-0.0615,-0.0478,0.0402,-0.126,0.0119,-0.0021,-35.1,-25.875,-6.075,,adl
3.811541,-0.0615,-0.0478,0.0402,-0.126,0.0119,-0.0021,-35.1,-25.875,-6.075,,adl
3.81379,-0.0569,-0.1159,-0.0964,-0.126,0.0119,-0.0021,-35.1,-25.875,-6.075,,adl
3.830528,-0.0569,-0.1159,-0.0964,-0.126,0.0119,-0.0021,-35.1,-25.875,-6.075,,adl
3.833345,-0.0527,-0.1376,-0.0137,-0.126,0.0119,-0.0021,-35.1,-25.875,-6.075,,adl
3.840246,-0.0527,-0.1376,-0.0137,-0.2107,0.0156,0.0023,-35.1,-25.875,-6.075,,adl
3.850164,-0.0527,-0.1376,-0.0137,-0.2107,0.0156,0.0023,-35.1,-25.875,-6.075,,adl
3.852163,-0.0645,-0.0499,0.344,-0.2107,0.0156,0.0023,-35.1,-25.875,-6.075,,adl
3.862926,-0.0645,-0.0499,0.344,-0.2107,0.0156,0.0023,-35.1,-26.175,-6.75,,adl
3.871471,-0.0645,-0.0499,0.344,-0.2107,0.0156,0.0023,-35.1,-26.175,-6.75,,adl
3.873782,-0.0575,0.0988,0.3361,-0.2107,0.0156,0.0023,-35.1,-26.175,-6.75,,adl
3.889443,-0.0575,0.0988,0.3361,-0.2107,0.0156,0.0023,-35.1,-26.175,-6.75,,adl
3.891771,-0.048,0.1283,0.1905,-0.2107,0.0156,0.0023,-35.1,-26.175,-6.75,,adl
3.90449,-0.048,0.1283,0.1905,-0.142,0.0108,0.0194,-35.1,-26.175,-6.75,,adl
3.908867,-0.048,0.1283,0.1905,-0.142,0.0108,0.0194,-35.1,-26.175,-6.75,,adl
3.910764,-0.019,0.0418,0.2054,-0.142,0.0108,0.0194,-35.1,-26.175,-6.75,,adl
3.923744,-0.019,0.0418,0.2054,-0.142,0.0108,0.0194,-35.1,-26.175,-6.75,,adl
3.925536,0.0064,0.0021,0.1474,-0.142,0.0108,0.0194,-35.1,-26.175,-6.75,,adl
3.932703,0.0064,0.0021,0.1474,-0.142,0.0108,0.0194,-35.325,-25.35,-6.375,,adl
3.947907,0.0064,0.0021,0.1474,-0.142,0.0108,0.0194,-35.325,-25.35,-6.375,,adl
3.949603,-0.0004,0.0091,0.0098,-0.142,0.0108,0.0194,-35.325,-25.35,-6.375,,adl
3.972491,-0.0004,0.0091,0.0098,-0.142,0.0108,0.0194,-35.325,-25.35,-6.375,,adl
3.976381,0.0546,0.0459,0.0285,-0.142,0.0108,0.0194,-35.325,-25.35,-6.375,,adl
3.977558,0.0546,0.0459,0.0285,-0.0681,0.0278,0.0047,-35.325,-25.35,-6.375,,adl
3.99197,0.0546,0.0459,0.0285,-0.0681,0.0278,0.0047,-35.325,-25.35,-6.375,,adl
3.993794,0.0652,0.1487,0.1304,-0.0681,0.0278,0.0047,-35.325,-25.35,-6.375,,adl
4.004309,0.0652,0.1487,0.1304,-0.0681,0.0278,0.0047,-35.775,-25.05,-7.275,,adl
4.013312,0.0652,0.1487,0.1304,-0.0681,0.0278,0.0047,-35.775,-25.05,-7.275,,adl
4.01512,0.0476,0.1824,0.2212,-0.0681,0.0278,0.0047,-35.775,-25.05,-7.275,,adl
4.031013,0.0476,0.1824,0.2212,-0.0681,0.0278,0.0047,-35.775,-25.05,-7.275,,adl
4.033159,0.0136,0.0684,0.3051,-0.0681,0.0278,0.0047,-35.775,-25.05,-7.275,,adl
4.045534,0.0136,0.0684,0.3051,-0.0626,0.0018,-0.015,-35.775,-25.05,-7.275,,adl
4.055505,0.0136,0.0684,0.3051,-0.0626,0.0018,-0.015,-35.775,-25.05,-7.275,,adl
4.05733,-0.0054,-0.0685,0.3157,-0.0626,0.0018,-0.015,-35.775,-25.05,-7.275,,adl
4.072935,-0.0054,-0.0685,0.3157,-0.0626,0.0018,-0.015,-35.775,-25.05,-7.275,,adl
4.075707,0.0003,-0.152,0.2541,-0.0626,0.0018,-0.015,-35.775,-25.05,-7.275,,adl
4.077124,0.0003,-0.152,0.2541,-0.0626,0.0018,-0.015,-35.7,-24.975,-7.125,,adl
4.089888,0.0003,-0.152,0.2541,-0.0626,0.0018,-0.015,-35.7,-24.975,-7.125,,adl
4.091643,0.0083,-0.166,0.1469,-0.0626,0.0018,-0.015,-35.7,-24.975,-7.125,,adl
4.109039,0.0083,-0.166,0.1469,-0.0626,0.0018,-0.015,-35.7,-24.975,-7.125,,adl
4.111042,0.0375,-0.1268,-0.0058,-0.0626,0.0018,-0.015,-35.7,-24.975,-7.125,,adl
4.114062,0.0375,-0.1268,-0.0058,0.0283,-0.0024,-0.006,-35.7,-24.975,-7.125,,adl
4.124261,0.0375,-0.1268,-0.0058,0.0283,-0.0024,-0.006,-35.7,-24.975,-7.125,,adl
4.12708,0.0553,-0.0426,-0.0973,0.0283,-0.0024,-0.006,-35.7,-24.975,-7.125,,adl
4.143783,0.0553,-0.0426,-0.0973,0.0283,-0.0024,-0.006,-35.55,-25.35,-6.975,,adl
4.149144,0.0553,-0.0426,-0.0973,0.0283,-0.0024,-0.006,-35.55,-25.35,-6.975,,adl
4.151991,-0.0028,0.0223,-0.0218,0.0283,-0.0024,-0.006,-35.55,-25.35,-6.975,,adl
4.169004,-0.0028,0.0223,-0.0218,0.0283,-0.0024,-0.006,-35.55,-25.35,-6.975,,adl
4.171708,-0.0517,0.0571,0.1312,0.0283,-0.0024,-0.006,-35.55,-25.35,-6.975,,adl
4.182606,-0.0517,0.0571,0.1312,-0.0322,0.014,-0.0075,-35.55,-25.35,-6.975,,adl
4.191581,-0.0517,0.0571,0.1312,-0.0322,0.014,-0.0075,-35.55,-25.35,-6.975,,adl
4.193761,-0.0543,0.0711,0.2238,-0.0322,0.014,-0.0075,-35.55,-25.35,-6.975,,adl
4.207163,-0.0543,0.0711,0.2238,-0.0322,0.014,-0.0075,-35.55,-25.35,-6.975,,adl
4.209754,-0.0592,0.0747,0.2021,-0.0322,0.014,-0.0075,-35.55,-25.35,-6.975,,adl
4.212609,-0.0592,0.0747,0.2021,-0.0322,0.014,-0.0075,-35.925,-25.35,-7.05,,adl
4.223788,-0.0592,0.0747,0.2021,-0.0322,0.014,-0.0075,-35.925,-25.35,-7.05,,adl
4.226139,-0.0681,0.0627,0.1389,-0.0322,0.014,-0.0075,-35.925,-25.35,-7.05,,adl
4.246655,-0.0681,0.0627,0.1389,-0.0322,0.014,-0.0075,-35.925,-25.35,-7.05,,adl
4.250745,-0.0559,0.0397,0.0774,-0.0322,0.014,-0.0075,-35.925,-25.35,-7.05,,adl
4.254957,-0.0559,0.0397,0.0774,-0.0064,0.0044,-0.0095,-35.925,-25.35,-7.05,,adl
4.265994,-0.0559,0.0397,0.0774,-0.0064,0.0044,-0.0095,-35.925,-25.35,-7.05,,adl
4.268277,-0.0341,-0.0052,0.0179,-0.0064,0.0044,-0.0095,-35.925,-25.35,-7.05,,adl
4.282917,-0.0341,-0.0052,0.0179,-0.0064,0.0044,-0.0095,-36.45,-25.35,-7.575,,adl
4.290591,-0.0341,-0.0052,0.0179,-0.0064,0.0044,-0.0095,-36.45,-25.35,-7.575,,adl
4.292973,-0.0388,-0.0363,0.0191,-0.0064,0.0044,-0.0095,-36.45,-25.35,-7.575,,adl
4.310149,-0.0388,-0.0363,0.0191,-0.0064,0.0044,-0.0095,-36.45,-25.35,-7.575,,adl
4.313039,-0.0385,-0.0485,0.1339,-0.0064,0.0044,-0.0095,-36.45,-25.35,-7.575,,adl
4.324358,-0.0385,-0.0485,0.1339,-0.0336,0.0099,-0.0034,-36.45,-25.35,-7.575,,adl
4.329355,-0.0385,-0.0485,0.1339,-0.0336,0.0099,-0.0034,-36.45,-25.35,-7.575,,adl
4.330977,-0.016,-0.0297,0.171,-0.0336,0.0099,-0.0034,-36.45,-25.35,-7.575,,adl
4.349896,-0.016,-0.0297,0.171,-0.0336,0.0099,-0.0034,-36.45,-25.35,-7.575,,adl
4.354265,0.0081,-0.0105,0.1636,-0.0336,0.0099,-0.0034,-36.45,-25.35,-7.575,,adl
4.356614,0.0081,-0.0105,0.1636,-0.0336,0.0099,-0.0034,-35.7,-25.425,-6.75,,adl
4.374649,0.0081,-0.0105,0.1636,-0.0336,0.0099,-0.0034,-35.7,-25.425,-6.75,,adl
4.377597,0.0283,0.0198,0.1508,-0.0336,0.0099,-0.0034,-35.7,-25.425,-6.75,,adl
4.391143,0.0283,0.0198,0.1508,-0.0336,0.0099,-0.0034,-35.7,-25.425,-6.75,,adl
4.393862,0.0341,0.0436,0.1584,-0.0336,0.0099,-0.0034,-35.7,-25.425,-6.75,,adl
4.396003,0.0341,0.0436,0.1584,-0.0199,0.0189,-0.0002,-35.7,-25.425,-6.75,,adl
4.407976,0.0341,0.0436,0.1584,-0.0199,0.0189,-0.0002,-35.7,-25.425,-6.75,,adl
4.409721,0.0015,0.0374,0.1774,-0.0199,0.0189,-0.0002,-35.7,-25.425,-6.75,,adl
4.423125,0.0015,0.0374,0.1774,-0.0199,0.0189,-0.0002,-35.85,-25.35,-7.125,,adl
4.426061,0.0015,0.0374,0.1774,-0.0199,0.0189,-0.0002,-35.85,-25.35,-7.125,,adl
4.428135,-0.0011,0.0068,0.119,-0.0199,0.0189,-0.0002,-35.85,-25.35,-7.125,,adl
4.446575,-0.0011,0.0068,0.119,-0.0199,0.0189,-0.0002,-35.85,-25.35,-7.125,,adl
4.448775,0.0014,0.0051,0.0848,-0.0199,0.0189,-0.0002,-35.85,-25.35,-7.125,,adl
4.46132,0.0014,0.0051,0.0848,0.0153,-0.0102,-0.0111,-35.85,-25.35,-7.125,,adl
4.466398,0.0014,0.0051,0.0848,0.0153,-0.0102,-0.0111,-35.85,-25.35,-7.125,,adl
4.467824,-0.0175,-0.0078,0.0952,0.0153,-0.0102,-0.0111,-35.85,-25.35,-7.125,,adl
4.486862,-0.0175,-0.0078,0.0952,0.0153,-0.0102,-0.0111,-35.85,-25.35,-7.125,,adl
4.492098,0.0258,0.0123,0.087,0.0153,-0.0102,-0.0111,-35.85,-25.35,-7.125,,adl
4.494132,0.0258,0.0123,0.087,0.0153,-0.0102,-0.0111,-35.475,-24.975,-7.275,,adl
4.51079,0.0258,0.0123,0.087,0.0153,-0.0102,-0.0111,-35.475,-24.975,-7.275,,adl
4.513376,-0.0245,0.0286,0.2548,0.0153,-0.0102,-0.0111,-35.475,-24.975,-7.275,,adl
4.52392,-0.0245,0.0286,0.2548,0.0153,-0.0102,-0.0111,-35.475,-24.975,-7.275,,adl
4.525636,0.0119,0.0166,0.1282,0.0153,-0.0102,-0.0111,-35.475,-24.975,-7.275,,adl
4.529609,0.0119,0.0166,0.1282,0.0223,0.0203,-0.0116,-35.475,-24.975,-7.275,,adl
4.544525,0.0119,0.0166,0.1282,0.0223,0.0203,-0.0116,-35.475,-24.975,-7.275,,adl
4.546718,-0.006,0.0408,-0.0013,0.0223,0.0203,-0.0116,-35.475,-24.975,-7.275,,adl
4.562576,-0.006,0.0408,-0.0013,0.0223,0.0203,-0.0116,-35.175,-25.35,-7.125,,adl
4.565024,-0.006,0.0408,-0.0013,0.0223,0.0203,-0.0116,-35.175,-25.35,-7.125,,adl
4.566341,-0.0228,0.0068,0.1067,0.0223,0.0203,-0.0116,-35.175,-25.35,-7.125,,adl
4.583685,-0.0228,0.0068,0.1067,0.0223,0.0203,-0.0116,-35.175,-25.35,-7.125,,adl
4.585819,-0.0302,0.0044,0.1782,0.0223,0.0203,-0.0116,-35.175,-25.35,-7.125,,adl
4.603653,-0.0302,0.0044,0.1782,0.0162,0.0069,-0.0099,-35.175,-25.35,-7.125,,adl
4.608917,-0.0302,0.0044,0.1782,0.0162,0.0069,-0.0099,-35.175,-25.35,-7.125,,adl
4.61158,-0.0788,-0.0219,0.1589,0.0162,0.0069,-0.0099,-35.175,-25.35,-7.125,,adl
4.626639,-0.0788,-0.0219,0.1589,0.0162,0.0069,-0.0099,-35.175,-25.35,-7.125,,adl
4.629997,-0.1102,-0.0175,0.0646,0.0162,0.0069,-0.0099,-35.175,-25.35,-7.125,,adl
4.632638,-0.1102,-0.0175,0.0646,0.0162,0.0069,-0.0099,-35.7,-25.65,-7.05,,adl
4.647688,-0.1102,-0.0175,0.0646,0.0162,0.0069,-0.0099,-35.7,-25.65,-7.05,,adl
4.649587,-0.0993,-0.0184,0.0302,0.0162,0.0069,-0.0099,-35.7,-25.65,-7.05,,adl
4.666876,-0.0993,-0.0184,0.0302,0.0162,0.0069,-0.0099,-35.7,-25.65,-7.05,,adl
4.668914,-0.0333,-0.0071,0.1028,0.0162,0.0069,-0.0099,-35.7,-25.65,-7.05,,adl
4.674082,-0.0333,-0.0071,0.1028,-0.0041,-0.0211,-0.0076,-35.7,-25.65,-7.05,,adl
4.689479,-0.0333,-0.0071,0.1028,-0.0041,-0.0211,-0.0076,-35.7,-25.65,-7.05,,adl
4.691879,0.0336,0.0125,0.162,-0.0041,-0.0211,-0.0076,-35.7,-25.65,-7.05,,adl
4.696505,0.0336,0.0125,0.162,-0.0041,-0.0211,-0.0076,-35.55,-25.95,-7.725,,adl
4.707945,0.0336,0.0125,0.162,-0.0041,-0.0211,-0.0076,-35.55,-25.95,-7.725,,adl
4.709853,0.0321,0.0333,0.1504,-0.0041,-0.0211,-0.0076,-35.55,-25.95,-7.725,,adl
4.724145,0.0321,0.0333,0.1504,-0.0041,-0.0211,-0.0076,-35.55,-25.95,-7.725,,adl
4.726822,-0.0086,0.0375,0.127,-0.0041,-0.0211,-0.0076,-35.55,-25.95,-7.725,,adl
4.740422,-0.0086,0.0375,0.127,-0.0082,-0.0057,-0.0046,-35.55,-25.95,-7.725,,adl
4.744955,-0.0086,0.0375,0.127,-0.0082,-0.0057,-0.0046,-35.55,-25.95,-7.725,,adl
4.746175,-0.0313,0.0429,0.1148,-0.0082,-0.0057,-0.0046,-35.55,-25.95,-7.725,,adl
4.764889,-0.0313,0.0429,0.1148,-0.0082,-0.0057,-0.0046,-35.55,-25.95,-7.725,,adl
4.767693,-0.0316,0.0178,0.0913,-0.0082,-0.0057,-0.0046,-35.55,-25.95,-7.725,,adl
4.769403,-0.0316,0.0178,0.0913,-0.0082,-0.0057,-0.0046,-36.3,-25.35,-7.425,,adl
4.785807,-0.0316,0.0178,0.0913,-0.0082,-0.0057,-0.0046,-36.3,-25.35,-7.425,,adl
4.788612,-0.0161,0.0133,0.1708,-0.0082,-0.0057,-0.0046,-36.3,-25.35,-7.425,,adl
4.806099,-0.0161,0.0133,0.1708,-0.0082,-0.0057,-0.0046,-36.3,-25.35,-7.425,,adl
4.807806,0.0113,-0.0063,0.2047,-0.0082,-0.0057,-0.0046,-36.3,-25.35,-7.425,,adl
4.809802,0.0113,-0.0063,0.2047,-0.0055,-0.0052,-0.0008,-36.3,-25.35,-7.425,,adl
4.824347,0.0113,-0.0063,0.2047,-0.0055,-0.0052,-0.0008,-36.3,-25.35,-7.425,,adl
4.826822,-0.0045,0.0114,0.0861,-0.0055,-0.0052,-0.0008,-36.3,-25.35,-7.425,,adl
4.833379,-0.0045,0.0114,0.0861,-0.0055,-0.0052,-0.0008,-35.325,-25.425,-7.575,,adl
4.848174,-0.0045,0.0114,0.0861,-0.0055,-0.0052,-0.0008,-35.325,-25.425,-7.575,,adl
4.850561,-0.0376,0.018,0.0762,-0.0055,-0.0052,-0.0008,-35.325,-25.425,-7.575,,adl
4.867516,-0.0376,0.018,0.0762,-0.0055,-0.0052,-0.0008,-35.325,-25.425,-7.575,,adl
4.871028,-0.0355,-0.0162,0.2083,-0.0055,-0.0052,-0.0008,-35.325,-25.425,-7.575,,adl
4.882042,-0.0355,-0.0162,0.2083,0.0199,-0.0017,-0.004,-35.325,-25.425,-7.575,,adl
4.890195,-0.0355,-0.0162,0.2083,0.0199,-0.0017,-0.004,-35.325,-25.425,-7.575,,adl
4.892381,-0.0349,-0.0276,0.219,0.0199,-0.0017,-0.004,-35.325,-25.425,-7.575,,adl
4.906565,-0.0349,-0.0276,0.219,0.0199,-0.0017,-0.004,-35.325,-25.425,-7.575,,adl
4.909487,-0.0193,-0.0026,0.1797,0.0199,-0.0017,-0.004,-35.325,-25.425,-7.575,,adl
4.911391,-0.0193,-0.0026,0.1797,0.0199,-0.0017,-0.004,-34.8,-25.65,-7.125,,adl
4.924054,-0.0193,-0.0026,0.1797,0.0199,-0.0017,-0.004,-34.8,-25.65,-7.125,,adl
4.926443,-0.0032,0.0241,0.1437,0.0199,-0.0017,-0.004,-34.8,-25.65,-7.125,,adl
4.945591,-0.0032,0.0241,0.1437,0.0199,-0.0017,-0.004,-34.8,-25.65,-7.125,,adl
4.947771,-0.0058,-0.0081,0.0967,0.0199,-0.0017,-0.004,-34.8,-25.65,-7.125,,adl
4.950061,-0.0058,-0.0081,0.0967,0.0235,0.004,0.0035,-34.8,-25.65,-7.125,,adl
4.96529,-0.0058,-0.0081,0.0967,0.0235,0.004,0.0035,-34.8,-25.65,-7.125,,adl
4.96742,0.0066,-0.0895,0.0444,0.0235,0.004,0.0035,-34.8,-25.65,-7.125,,adl
4.975566,0.0066,-0.0895,0.0444,0.0235,0.004,0.0035,-35.85,-25.35,-7.35,,adl
4.98779,0.0066,-0.0895,0.0444,0.0235,0.004,0.0035,-35.85,-25.35,-7.35,,adl
4.995157,-0.0294,-0.1144,0.2069,0.0235,0.004,0.0035,-35.85,-25.35,-7.35,,adl
5.006851,-0.0294,-0.1144,0.2069,0.0235,0.004,0.0035,-35.85,-25.35,-7.35,,adl
5.008568,-0.0748,-0.0326,0.2577,0.0235,0.004,0.0035,-35.85,-25.35,-7.35,,adl
5.021845,-0.0748,-0.0326,0.2577,0.0058,-0.0098,0.0002,-35.85,-25.35,-7.35,,adl
5.024453,-0.0748,-0.0326,0.2577,0.0058,-0.0098,0.0002,-35.85,-25.35,-7.35,,adl
5.025725,-0.0627,0.099,0.0877,0.0058,-0.0098,0.0002,-35.85,-25.35,-7.35,,adl
5.043966,-0.0627,0.099,0.0877,0.0058,-0.0098,0.0002,-35.85,-25.35,-7.35,,adl
5.045045,-0.027,0.1614,-0.002,0.0058,-0.0098,0.0002,-35.85,-25.35,-7.35,,adl
5.046148,-0.027,0.1614,-0.002,0.0058,-0.0098,0.0002,-36.075,-25.275,-7.05,,adl
5.064304,-0.027,0.1614,-0.002,0.0058,-0.0098,0.0002,-36.075,-25.275,-7.05,,adl
5.065501,0.0333,0.1313,0.1006,0.0058,-0.0098,0.0002,-36.075,-25.275,-7.05,,adl
5.083749,0.0333,0.1313,0.1006,0.0058,-0.0098,0.0002,-36.075,-25.275,-7.05,,adl
5.085014,0.0458,0.0593,0.1788,0.0058,-0.0098,0.0002,-36.075,-25.275,-7.05,,adl
5.088724,0.0458,0.0593,0.1788,0.0173,-0.0102,0.0125,-36.075,-25.275,-7.05,,adl
5.108649,0.0458,0.0593,0.1788,0.0173,-0.0102,0.0125,-36.075,-25.275,-7.05,,adl
5.109699,0.0361,-0.012,0.1647,0.0173,-0.0102,0.0125,-36.075,-25.275,-7.05,,adl
5.118352,0.0361,-0.012,0.1647,0.0173,-0.0102,0.0125,-35.775,-25.275,-6.675,,adl
5.124698,0.0361,-0.012,0.1647,0.0173,-0.0102,0.0125,-35.775,-25.275,-6.675,,adl
5.127897,-0.0135,-0.0519,0.1304,0.0173,-0.0102,0.0125,-35.775,-25.275,-6.675,,adl
5.156107,-0.0135,-0.0519,0.1304,0.0173,-0.0102,0.0125,-35.775,-25.275,-6.675,,adl
5.159116,-0.0456,-0.0453,0.1003,0.0173,-0.0102,0.0125,-35.775,-25.275,-6.675,,adl
5.160873,-0.0456,-0.0453,0.1003,0.0214,-0.0041,0.002,-35.775,-25.275,-6.675,,adl
5.165312,-0.0456,-0.0453,0.1003,0.0214,-0.0041,0.002,-35.775,-25.275,-6.675,,adl
5.166696,-0.0523,-0.0227,0.0947,0.0214,-0.0041,0.002,-35.775,-25.275,-6.675,,adl
5.185458,-0.0523,-0.0227,0.0947,0.0214,-0.0041,0.002,-35.775,-25.275,-6.675,,adl
5.188264,-0.0317,0.0208,0.0849,0.0214,-0.0041,0.002,-35.775,-25.275,-6.675,,adl
5.189813,-0.0317,0.0208,0.0849,0.0214,-0.0041,0.002,-35.475,-25.05,-6.675,,adl
5.209392,-0.0317,0.0208,0.0849,0.0214,-0.0041,0.002,-35.475,-25.05,-6.675,,adl
5.212285,-0.0248,0.0403,0.1047,0.0214,-0.0041,0.002,-35.475,-25.05,-6.675,,adl
5.224793,-0.0248,0.0403,0.1047,0.0214,-0.0041,0.002,-35.475,-25.05,-6.675,,adl
5.226772,-0.0355,0.0489,0.1231,0.0214,-0.0041,0.002,-35.475,-25.05,-6.675,,adl
5.228822,-0.0355,0.0489,0.1231,0.0015,-0.006,-0.0026,-35.475,-25.05,-6.675,,adl
5.244951,-0.0355,0.0489,0.1231,0.0015,-0.006,-0.0026,-35.475,-25.05,-6.675,,adl
5.249472,-0.0223,0.039,0.1259,0.0015,-0.006,-0.0026,-35.475,-25.05,-6.675,,adl
5.256574,-0.0223,0.039,0.1259,0.0015,-0.006,-0.0026,-34.875,-25.725,-6.975,,adl
5.264047,-0.0223,0.039,0.1259,0.0015,-0.006,-0.0026,-34.875,-25.725,-6.975,,adl
5.266349,-0.0173,0.0138,0.1197,0.0015,-0.006,-0.0026,-34.875,-25.725,-6.975,,adl
5.284188,-0.0173,0.0138,0.1197,0.0015,-0.006,-0.0026,-34.875,-25.725,-6.975,,adl
5.289169,-0.0016,-0.0104,0.1076,0.0015,-0.006,-0.0026,-34.875,-25.725,-6.975,,adl
5.298328,-0.0016,-0.0104,0.1076,-0.0078,0.0026,-0.0017,-34.875,-25.725,-6.975,,adl
5.309507,-0.0016,-0.0104,0.1076,-0.0078,0.0026,-0.0017,-34.875,-25.725,-6.975,,adl
5.313557,-0.0066,-0.0267,0.1269,-0.0078,0.0026,-0.0017,-34.875,-25.725,-6.975,,adl
5.322415,-0.0066,-0.0267,0.1269,-0.0078,0.0026,-0.0017,-34.875,-25.725,-6.975,,adl
5.325151,-0.0351,-0.0142,0.1837,-0.0078,0.0026,-0.0017,-34.875,-25.725,-6.975,,adl
5.327289,-0.0351,-0.0142,0.1837,-0.0078,0.0026,-0.0017,-36.0,-25.575,-6.975,,adl
5.342254,-0.0351,-0.0142,0.1837,-0.0078,0.0026,-0.0017,-36.0,-25.575,-6.975,,adl
5.344889,-0.0389,0.02,0.1608,-0.0078,0.0026,-0.0017,-36.0,-25.575,-6.975,,adl
5.361579,-0.0389,0.02,0.1608,-0.0078,0.0026,-0.0017,-36.0,-25.575,-6.975,,adl
5.363544,-0.0252,0.0424,0.1136,-0.0078,0.0026,-0.0017,-36.0,-25.575,-6.975,,adl
5.365857,-0.0252,0.0424,0.1136,-0.0067,-0.0008,-0.0029,-36.0,-25.575,-6.975,,adl
5.380865,-0.0252,0.0424,0.1136,-0.0067,-0.0008,-0.0029,-36.0,-25.575,-6.975,,adl
5.382978,-0.0509,0.0434,0.1025,-0.0067,-0.0008,-0.0029,-36.0,-25.575,-6.975,,adl
5.392737,-0.0509,0.0434,0.1025,-0.0067,-0.0008,-0.0029,-35.7,-25.275,-7.125,,adl
5.405509,-0.0509,0.0434,0.1025,-0.0067,-0.0008,-0.0029,-35.7,-25.275,-7.125,,adl
5.408161,-0.0046,0.0657,0.068,-0.0067,-0.0008,-0.0029,-35.7,-25.275,-7.125,,adl
5.424855,-0.0046,0.0657,0.068,-0.0067,-0.0008,-0.0029,-35.7,-25.275,-7.125,,adl
5.428148,-0.0267,0.0081,0.2501,-0.0067,-0.0008,-0.0029,-35.7,-25.275,-7.125,,adl
5.43986,-0.0267,0.0081,0.2501,0.016,0.007,-0.002,-35.7,-25.275,-7.125,,adl
5.444796,-0.0267,0.0081,0.2501,0.016,0.007,-0.002,-35.7,-25.275,-7.125,,adl
5.446971,0.0242,0.0158,0.1048,0.016,0.007,-0.002,-35.7,-25.275,-7.125,,adl
5.464132,0.0242,0.0158,0.1048,0.016,0.007,-0.002,-35.7,-25.275,-7.125,,adl
5.466258,-0.0265,0.0249,0.0034,0.016,0.007,-0.002,-35.7,-25.275,-7.125,,adl
5.467717,-0.0265,0.0249,0.0034,0.016,0.007,-0.002,-35.55,-25.95,-7.425,,adl
5.48351,-0.0265,0.0249,0.0034,0.016,0.007,-0.002,-35.55,-25.95,-7.425,,adl
5.485398,-0.0227,0.0092,0.1457,0.016,0.007,-0.002,-35.55,-25.95,-7.425,,adl
5.503,-0.0227,0.0092,0.1457,0.016,0.007,-0.002,-35.55,-25.95,-7.425,,adl
5.505779,-0.0407,0.0017,0.238,0.016,0.007,-0.002,-35.55,-25.95,-7.425,,adl
5.508194,-0.0407,0.0017,0.238,0.0119,-0.0038,-0.0052,-35.55,-25.95,-7.425,,adl
5.523553,-0.0407,0.0017,0.238,0.0119,-0.0038,-0.0052,-35.55,-25.95,-7.425,,adl
5.52764,-0.047,-0.0349,0.2394,0.0119,-0.0038,-0.0052,-35.55,-25.95,-7.425,,adl
5.542324,-0.047,-0.0349,0.2394,0.0119,-0.0038,-0.0052,-35.55,-25.95,-7.425,,adl
5.545528,-0.0371,-0.0428,0.1114,0.0119,-0.0038,-0.0052,-35.55,-25.95,-7.425,,adl
5.548438,-0.0371,-0.0428,0.1114,0.0119,-0.0038,-0.0052,-35.475,-25.425,-6.825,,adl
5.561957,-0.0371,-0.0428,0.1114,0.0119,-0.0038,-0.0052,-35.475,-25.425,-6.825,,adl
5.564367,-0.0358,-0.0038,0.0269,0.0119,-0.0038,-0.0052,-35.475,-25.425,-6.825,,adl
5.576501,-0.0358,-0.0038,0.0269,0.0197,-0.0128,-0.004,-35.475,-25.425,-6.825,,adl
5.581749,-0.0358,-0.0038,0.0269,0.0197,-0.0128,-0.004,-35.475,-25.425,-6.825,,adl
5.583886,0.0048,0.0427,0.0772,0.0197,-0.0128,-0.004,-35.475,-25.425,-6.825,,adl
5.601028,0.0048,0.0427,0.0772,0.0197,-0.0128,-0.004,-35.475,-25.425,-6.825,,adl
5.603046,0.0265,0.0662,0.1294,0.0197,-0.0128,-0.004,-35.475,-25.425,-6.825,,adl
5.604907,0.0265,0.0662,0.1294,0.0197,-0.0128,-0.004,-35.25,-25.65,-7.05,,adl
5.620926,0.0265,0.0662,0.1294,0.0197,-0.0128,-0.004,-35.25,-25.65,-7.05,,adl
5.624098,0.0208,0.0903,0.119,0.0197,-0.0128,-0.004,-35.25,-25.65,-7.05,,adl
5.641109,0.0208,0.0903,0.119,0.0197,-0.0128,-0.004,-35.25,-25.65,-7.05,,adl
5.642498,-0.0205,0.0749,0.1055,0.0197,-0.0128,-0.004,-35.25,-25.65,-7.05,,adl
5.645105,-0.0205,0.0749,0.1055,0.004,-0.0023,0.0044,-35.25,-25.65,-7.05,,adl
5.660685,-0.0205,0.0749,0.1055,0.004,-0.0023,0.0044,-35.25,-25.65,-7.05,,adl
5.662603,-0.0264,0.0299,0.1361,0.004,-0.0023,0.0044,-35.25,-25.65,-7.05,,adl
5.676825,-0.0264,0.0299,0.1361,0.004,-0.0023,0.0044,-35.625,-25.425,-6.75,,adl
5.684946,-0.0264,0.0299,0.1361,0.004,-0.0023,0.0044,-35.625,-25.425,-6.75,,adl
5.685797,-0.0137,0.0053,0.0756,0.004,-0.0023,0.0044,-35.625,-25.425,-6.75,,adl
5.704784,-0.0137,0.0053,0.0756,0.004,-0.0023,0.0044,-35.625,-25.425,-6.75,,adl
5.706665,-0.0217,-0.0008,0.1128,0.004,-0.0023,0.0044,-35.625,-25.425,-6.75,,adl
5.718602,-0.0217,-0.0008,0.1128,0.0124,0.0009,0.0002,-35.625,-25.425,-6.75,,adl
5.726785,-0.0217,-0.0008,0.1128,0.0124,0.0009,0.0002,-35.625,-25.425,-6.75,,adl
5.728389,-0.0191,-0.0203,0.0928,0.0124,0.0009,0.0002,-35.625,-25.425,-6.75,,adl
5.744349,-0.0191,-0.0203,0.0928,0.0124,0.0009,0.0002,-35.625,-25.425,-6.75,,adl
5.745829,-0.0283,0.022,-0.0425,0.0124,0.0009,0.0002,-35.625,-25.425,-6.75,,adl
5.747125,-0.0283,0.022,-0.0425,0.0124,0.0009,0.0002,-35.625,-25.125,-6.75,,adl
5.763341,-0.0283,0.022,-0.0425,0.0124,0.0009,0.0002,-35.625,-25.125,-6.75,,adl
5.764925,-0.0454,0.0167,0.1507,0.0124,0.0009,0.0002,-35.625,-25.125,-6.75,,adl
5.7828,-0.0454,0.0167,0.1507,0.0124,0.0009,0.0002,-35.625,-25.125,-6.75,,adl
5.78446,-0.0525,-0.0395,0.4292,0.0124,0.0009,0.0002,-35.625,-25.125,-6.75,,adl
5.789944,-0.0525,-0.0395,0.4292,-0.0003,-0.0055,-0.0047,-35.625,-25.125,-6.75,,adl
5.808972,-0.0525,-0.0395,0.4292,-0.0003,-0.0055,-0.0047,-35.625,-25.125,-6.75,,adl
5.81287,-0.0503,-0.0806,0.4084,-0.0003,-0.0055,-0.0047,-35.625,-25.125,-6.75,,adl
5.816278,-0.0503,-0.0806,0.4084,-0.0003,-0.0055,-0.0047,-35.4,-25.425,-6.15,,adl
5.822082,-0.0503,-0.0806,0.4084,-0.0003,-0.0055,-0.0047,-35.4,-25.425,-6.15,,adl
5.825318,-0.0489,-0.0861,0.1775,-0.0003,-0.0055,-0.0047,-35.4,-25.425,-6.15,,adl
5.841364,-0.0489,-0.0861,0.1775,-0.0003,-0.0055,-0.0047,-35.4,-25.425,-6.15,,adl
5.845222,-0.0553,-0.0225,0.0459,-0.0003,-0.0055,-0.0047,-35.4,-25.425,-6.15,,adl
5.856005,-0.0553,-0.0225,0.0459,0.0589,0.0098,0.0003,-35.4,-25.425,-6.15,,adl
5.860323,-0.0553,-0.0225,0.0459,0.0589,0.0098,0.0003,-35.4,-25.425,-6.15,,adl
5.862204,-0.0414,0.0395,0.0656,0.0589,0.0098,0.0003,-35.4,-25.425,-6.15,,adl
5.879493,-0.0414,0.0395,0.0656,0.0589,0.0098,0.0003,-35.4,-25.425,-6.15,,adl
5.881403,-0.0139,0.0889,0.0899,0.0589,0.0098,0.0003,-35.4,-25.425,-6.15,,adl
5.882588,-0.0139,0.0889,0.0899,0.0589,0.0098,0.0003,-35.85,-25.725,-6.45,,adl
5.899607,-0.0139,0.0889,0.0899,0.0589,0.0098,0.0003,-35.85,-25.725,-6.45,,adl
5.903069,-0.0119,0.1085,0.1044,0.0589,0.0098,0.0003,-35.85,-25.725,-6.45,,adl
5.929852,-0.0119,0.1085,0.1044,0.0589,0.0098,0.0003,-35.85,-25.725,-6.45,,adl
5.933292,-0.0078,0.0853,0.0983,0.0589,0.0098,0.0003,-35.85,-25.725,-6.45,,adl
5.936037,-0.0078,0.0853,0.0983,0.0351,0.0008,0.009,-35.85,-25.725,-6.45,,adl
5.944532,-0.0078,0.0853,0.0983,0.0351,0.0008,0.009,-35.85,-25.725,-6.45,,adl
5.946467,0.0246,0.0422,0.1068,0.0351,0.0008,0.009,-35.85,-25.725,-6.45,,adl
5.957855,0.0246,0.0422,0.1068,0.0351,0.0008,0.009,-35.55,-25.65,-6.45,,adl
5.962965,0.0246,0.0422,0.1068,0.0351,0.0008,0.009,-35.55,-25.65,-6.45,,adl
5.964521,0.0475,0.0112,0.1754,0.0351,0.0008,0.009,-35.55,-25.65,-6.45,,adl
5.977583,0.0475,0.0112,0.1754,0.0351,0.0008,0.009,-35.55,-25.65,-6.45,,adl
5.980223,0.054,-0.0155,0.2353,0.0351,0.0008,0.009,-35.55,-25.65,-6.45,,adl
5.997375,0.054,-0.0155,0.2353,0.0299,-0.0009,0.0163,-35.55,-25.65,-6.45,,adl
6.007598,0.054,-0.0155,0.2353,0.0299,-0.0009,0.0163,-35.55,-25.65,-6.45,,adl
6.009625,0.0366,-0.0443,0.2896,0.0299,-0.0009,0.0163,-35.55,-25.65,-6.45,,adl
6.022363,0.0366,-0.0443,0.2896,0.0299,-0.0009,0.0163,-35.55,-25.65,-6.45,,adl
6.025178,-0.0129,-0.0764,0.2601,0.0299,-0.0009,0.0163,-35.55,-25.65,-6.45,,adl
6.027375,-0.0129,-0.0764,0.2601,0.0299,-0.0009,0.0163,-35.325,-25.725,-6.225,,adl
6.041778,-0.0129,-0.0764,0.2601,0.0299,-0.0009,0.0163,-35.325,-25.725,-6.225,,adl
6.044564,-0.069,-0.088,0.1415,0.0299,-0.0009,0.0163,-35.325,-25.725,-6.225,,adl
6.061095,-0.069,-0.088,0.1415,0.0299,-0.0009,0.0163,-35.325,-25.725,-6.225,,adl
6.063759,-0.101,-0.0613,0.0354,0.0299,-0.0009,0.0163,-35.325,-25.725,-6.225,,adl
6.065632,-0.101,-0.0613,0.0354,0.0735,0.0221,0.0061,-35.325,-25.725,-6.225,,adl
6.080418,-0.101,-0.0613,0.0354,0.0735,0.0221,0.0061,-35.325,-25.725,-6.225,,adl
6.081846,-0.1009,-0.0078,0.0185,0.0735,0.0221,0.0061,-35.325,-25.725,-6.225,,adl
6.092446,-0.1009,-0.0078,0.0185,0.0735,0.0221,0.0061,-35.775,-25.425,-6.525,,adl
6.099859,-0.1009,-0.0078,0.0185,0.0735,0.0221,0.0061,-35.775,-25.425,-6.525,,adl
6.101118,-0.0645,0.0562,0.0136,0.0735,0.0221,0.0061,-35.775,-25.425,-6.525,,adl
6.119405,-0.0645,0.0562,0.0136,0.0735,0.0221,0.0061,-35.775,-25.425,-6.525,,adl
6.121715,-0.0533,0.1135,0.0899,0.0735,0.0221,0.0061,-35.775,-25.425,-6.525,,adl
6.133786,-0.0533,0.1135,0.0899,0.0237,-0.0188,-0.0064,-35.775,-25.425,-6.525,,adl
6.141919,-0.0533,0.1135,0.0899,0.0237,-0.0188,-0.0064,-35.775,-25.425,-6.525,,adl
6.144359,-0.0596,0.094,0.1393,0.0237,-0.0188,-0.0064,-35.775,-25.425,-6.525,,adl
6.158593,-0.0596,0.094,0.1393,0.0237,-0.0188,-0.0064,-35.775,-25.425,-6.525,,adl
6.1615,-0.0132,0.0948,0.157,0.0237,-0.0188,-0.0064,-35.775,-25.425,-6.525,,adl
6.163331,-0.0132,0.0948,0.157,0.0237,-0.0188,-0.0064,-35.325,-25.575,-5.85,,adl
6.173657,-0.0132,0.0948,0.157,0.0237,-0.0188,-0.0064,-35.325,-25.575,-5.85,,adl
6.176056,-0.0076,0.0336,0.1637,0.0237,-0.0188,-0.0064,-35.325,-25.575,-5.85,,adl
6.197842,-0.0076,0.0336,0.1637,0.0237,-0.0188,-0.0064,-35.325,-25.575,-5.85,,adl
6.201506,0.0103,0.0217,0.1391,0.0237,-0.0188,-0.0064,-35.325,-25.575,-5.85,,adl
6.20486,0.0103,0.0217,0.1391,0.0499,0.0185,0.0148,-35.325,-25.575,-5.85,,adl
6.222173,0.0103,0.0217,0.1391,0.0499,0.0185,0.0148,-35.325,-25.575,-5.85,,adl
6.225263,-0.0246,-0.0131,0.1415,0.0499,0.0185,0.0148,-35.325,-25.575,-5.85,,adl
6.233041,-0.0246,-0.0131,0.1415,0.0499,0.0185,0.0148,-35.625,-25.65,-6.15,,adl
6.245513,-0.0246,-0.0131,0.1415,0.0499,0.0185,0.0148,-35.625,-25.65,-6.15,,adl
6.248508,-0.0304,-0.0436,0.2488,0.0499,0.0185,0.0148,-35.625,-25.65,-6.15,,adl
6.261665,-0.0304,-0.0436,0.2488,0.0499,0.0185,0.0148,-35.625,-25.65,-6.15,,adl
6.264057,-0.0143,-0.0607,0.2509,0.0499,0.0185,0.0148,-35.625,-25.65,-6.15,,adl
6.276095,-0.0143,-0.0607,0.2509,0.0797,-0.0431,0.0017,-35.625,-25.65,-6.15,,adl
6.280538,-0.0143,-0.0607,0.2509,0.0797,-0.0431,0.0017,-35.625,-25.65,-6.15,,adl
6.28195,0.0078,-0.0485,0.102,0.0797,-0.0431,0.0017,-35.625,-25.65,-6.15,,adl
6.300274,0.0078,-0.0485,0.102,0.0797,-0.0431,0.0017,-35.625,-25.65,-6.15,,adl
6.302197,0.0322,-0.0052,-0.0441,0.0797,-0.0431,0.0017,-35.625,-25.65,-6.15,,adl
6.304384,0.0322,-0.0052,-0.0441,0.0797,-0.0431,0.0017,-35.85,-25.35,-6.525,,adl
6.320149,0.0322,-0.0052,-0.0441,0.0797,-0.0431,0.0017,-35.85,-25.35,-6.525,,adl
6.322559,0.0485,0.0558,-0.0948,0.0797,-0.0431,0.0017,-35.85,-25.35,-6.525,,adl
6.340938,0.0485,0.0558,-0.0948,0.0797,-0.0431,0.0017,-35.85,-25.35,-6.525,,adl
6.343939,0.0542,0.08,-0.0423,0.0797,-0.0431,0.0017,-35.85,-25.35,-6.525,,adl
6.345858,0.0542,0.08,-0.0423,0.0336,-0.0212,-0.0038,-35.85,-25.35,-6.525,,adl
6.359712,0.0542,0.08,-0.0423,0.0336,-0.0212,-0.0038,-35.85,-25.35,-6.525,,adl
6.361817,0.0367,0.0877,0.0736,0.0336,-0.0212,-0.0038,-35.85,-25.35,-6.525,,adl
6.372681,0.0367,0.0877,0.0736,0.0336,-0.0212,-0.0038,-35.625,-25.35,-6.075,,adl
6.37459,0.0367,0.0877,0.0736,0.0336,-0.0212,-0.0038,-35.625,-25.35,-6.075,,adl
6.376334,-0.0104,0.0667,0.1586,0.0336,-0.0212,-0.0038,-35.625,-25.35,-6.075,,adl
6.398319,-0.0104,0.0667,0.1586,0.0336,-0.0212,-0.0038,-35.625,-25.35,-6.075,,adl
6.400674,-0.058,0.0408,0.177,0.0336,-0.0212,-0.0038,-35.625,-25.35,-6.075,,adl
6.4129,-0.058,0.0408,0.177,-0.022,-0.0018,-0.0067,-35.625,-25.35,-6.075,,adl
6.419361,-0.058,0.0408,0.177,-0.022,-0.0018,-0.0067,-35.625,-25.35,-6.075,,adl
6.421552,-0.0804,0.0023,0.1571,-0.022,-0.0018,-0.0067,-35.625,-25.35,-6.075,,adl
6.43979,-0.0804,0.0023,0.1571,-0.022,-0.0018,-0.0067,-35.625,-25.35,-6.075,,adl
6.442101,-0.0625,-0.0409,0.1403,-0.022,-0.0018,-0.0067,-35.625,-25.35,-6.075,,adl
6.444,-0.0625,-0.0409,0.1403,-0.022,-0.0018,-0.0067,-35.4,-25.425,-5.925,,adl
6.457118,-0.0625,-0.0409,0.1403,-0.022,-0.0018,-0.0067,-35.4,-25.425,-5.925,,adl
6.459416,-0.0532,-0.0442,0.2258,-0.022,-0.0018,-0.0067,-35.4,-25.425,-5.925,,adl
6.473891,-0.0532,-0.0442,0.2258,-0.022,-0.0018,-0.0067,-35.4,-25.425,-5.925,,adl
6.476961,-0.0238,-0.0202,0.2247,-0.022,-0.0018,-0.0067,-35.4,-25.425,-5.925,,adl
6.4814,-0.0238,-0.0202,0.2247,-0.0031,0.0021,-0.0021,-35.4,-25.425,-5.925,,adl
6.496057,-0.0238,-0.0202,0.2247,-0.0031,0.0021,-0.0021,-35.4,-25.425,-5.925,,adl
6.498261,-0.0436,0.0386,0.066,-0.0031,0.0021,-0.0021,-35.4,-25.425,-5.925,,adl
6.512508,-0.0436,0.0386,0.066,-0.0031,0.0021,-0.0021,-35.4,-25.425,-5.925,,adl
6.514441,-0.0393,0.0661,0.0367,-0.0031,0.0021,-0.0021,-35.4,-25.425,-5.925,,adl
6.516201,-0.0393,0.0661,0.0367,-0.0031,0.0021,-0.0021,-36.0,-25.65,-6.075,,adl
6.538879,-0.0393,0.0661,0.0367,-0.0031,0.0021,-0.0021,-36.0,-25.65,-6.075,,adl
6.54222,-0.0178,0.0591,0.1363,-0.0031,0.0021,-0.0021,-36.0,-25.65,-6.075,,adl
6.549724,-0.0178,0.0591,0.1363,0.0089,0.0047,-0.0024,-36.0,-25.65,-6.075,,adl
6.556731,-0.0178,0.0591,0.1363,0.0089,0.0047,-0.0024,-36.0,-25.65,-6.075,,adl
6.558355,-0.0279,0.0351,0.1803,0.0089,0.0047,-0.0024,-36.0,-25.65,-6.075,,adl
6.574464,-0.0279,0.0351,0.1803,0.0089,0.0047,-0.0024,-36.0,-25.65,-6.075,,adl
6.577213,-0.0446,0.0028,0.15,0.0089,0.0047,-0.0024,-36.0,-25.65,-6.075,,adl
6.58256,-0.0446,0.0028,0.15,0.0089,0.0047,-0.0024,-35.175,-25.35,-6.45,,adl
6.593795,-0.0446,0.0028,0.15,0.0089,0.0047,-0.0024,-35.175,-25.35,-6.45,,adl
6.596503,-0.0351,0.0017,0.1138,0.0089,0.0047,-0.0024,-35.175,-25.35,-6.45,,adl
6.619058,-0.0351,0.0017,0.1138,0.0089,0.0047,-0.0024,-35.175,-25.35,-6.45,,adl
6.622497,0.0083,0.0178,0.1111,0.0089,0.0047,-0.0024,-35.175,-25.35,-6.45,,adl
6.625517,0.0083,0.0178,0.1111,0.006,0.013,-0.0008,-35.175,-25.35,-6.45,,adl
6.642747,0.0083,0.0178,0.1111,0.006,0.013,-0.0008,-35.175,-25.35,-6.45,,adl
6.645736,0.0285,0.0259,0.1228,0.006,0.013,-0.0008,-35.175,-25.35,-6.45,,adl
6.655699,0.0285,0.0259,0.1228,0.006,0.013,-0.0008,-35.7,-25.575,-6.45,,adl
6.658001,0.0285,0.0259,0.1228,0.006,0.013,-0.0008,-35.7,-25.575,-6.45,,adl
6.659494,0.0147,0.0431,0.1391,0.006,0.013,-0.0008,-35.7,-25.575,-6.45,,adl
6.674017,0.0147,0.0431,0.1391,0.006,0.013,-0.0008,-35.7,-25.575,-6.45,,adl
6.676024,0.0083,0.048,0.1181,0.006,0.013,-0.0008,-35.7,-25.575,-6.45,,adl
6.692507,0.0083,0.048,0.1181,0.0107,0.0011,-0.0026,-35.7,-25.575,-6.45,,adl
6.69749,0.0083,0.048,0.1181,0.0107,0.0011,-0.0026,-35.7,-25.575,-6.45,,adl
6.69949,-0.0011,0.0368,0.1073,0.0107,0.0011,-0.0026,-35.7,-25.575,-6.45,,adl
6.717813,-0.0011,0.0368,0.1073,0.0107,0.0011,-0.0026,-36.075,-25.95,-6.15,,adl
6.721447,-0.0011,0.0368,0.1073,0.0107,0.0011,-0.0026,-36.075,-25.95,-6.15,,adl
6.724696,-0.0159,0.0208,0.1092,0.0107,0.0011,-0.0026,-36.075,-25.95,-6.15,,adl
6.738249,-0.0159,0.0208,0.1092,0.0107,0.0011,-0.0026,-36.075,-25.95,-6.15,,adl
6.740604,-0.0079,-0.0061,0.1155,0.0107,0.0011,-0.0026,-36.075,-25.95,-6.15,,adl
6.75518,-0.0079,-0.0061,0.1155,0.0107,0.0011,-0.0026,-36.075,-25.95,-6.15,,adl
6.757679,-0.0297,-0.0067,0.1486,0.0107,0.0011,-0.0026,-36.075,-25.95,-6.15,,adl
6.760029,-0.0297,-0.0067,0.1486,0.0133,0.0046,-0.0049,-36.075,-25.95,-6.15,,adl
6.774344,-0.0297,-0.0067,0.1486,0.0133,0.0046,-0.0049,-36.075,-25.95,-6.15,,adl
6.777206,-0.0447,-0.0142,0.1921,0.0133,0.0046,-0.0049,-36.075,-25.95,-6.15,,adl
6.786754,-0.0447,-0.0142,0.1921,0.0133,0.0046,-0.0049,-35.7,-25.875,-6.45,,adl
6.79452,-0.0447,-0.0142,0.1921,0.0133,0.0046,-0.0049,-35.7,-25.875,-6.45,,adl
6.796414,-0.0467,0.0109,0.1592,0.0133,0.0046,-0.0049,-35.7,-25.875,-6.45,,adl
6.81367,-0.0467,0.0109,0.1592,0.0133,0.0046,-0.0049,-35.7,-25.875,-6.45,,adl
6.815627,-0.0226,0.0421,0.0673,0.0133,0.0046,-0.0049,-35.7,-25.875,-6.45,,adl
6.828652,-0.0226,0.0421,0.0673,0.0231,-0.002,-0.0011,-35.7,-25.875,-6.45,,adl
6.833526,-0.0226,0.0421,0.0673,0.0231,-0.002,-0.0011,-35.7,-25.875,-6.45,,adl
6.834999,-0.0377,0.0534,0.0601,0.0231,-0.002,-0.0011,-35.7,-25.875,-6.45,,adl
6.853716,-0.0377,0.0534,0.0601,0.0231,-0.002,-0.0011,-35.7,-25.875,-6.45,,adl
6.856243,-0.0067,0.0614,0.0821,0.0231,-0.002,-0.0011,-35.7,-25.875,-6.45,,adl
6.85749,-0.0067,0.0614,0.0821,0.0231,-0.002,-0.0011,-35.25,-25.95,-6.225,,adl
6.873701,-0.0067,0.0614,0.0821,0.0231,-0.002,-0.0011,-35.25,-25.95,-6.225,,adl
6.87549,-0.0295,0.041,0.126,0.0231,-0.002,-0.0011,-35.25,-25.95,-6.225,,adl
6.898173,-0.0295,0.041,0.126,0.0231,-0.002,-0.0011,-35.25,-25.95,-6.225,,adl
6.902959,-0.0125,0.0488,0.1284,0.0231,-0.002,-0.0011,-35.25,-25.95,-6.225,,adl
6.90628,-0.0125,0.0488,0.1284,0.0151,0.0163,-0.0024,-35.25,-25.95,-6.225,,adl
6.917951,-0.0125,0.0488,0.1284,0.0151,0.0163,-0.0024,-35.25,-25.95,-6.225,,adl
6.920188,-0.0475,0.0242,0.1009,0.0151,0.0163,-0.0024,-35.25,-25.95,-6.225,,adl
6.927157,-0.0475,0.0242,0.1009,0.0151,0.0163,-0.0024,-35.175,-26.25,-6.45,,adl
6.938395,-0.0475,0.0242,0.1009,0.0151,0.0163,-0.0024,-35.175,-26.25,-6.45,,adl
6.941321,-0.0308,0.0019,0.1784,0.0151,0.0163,-0.0024,-35.175,-26.25,-6.45,,adl
6.957414,-0.0308,0.0019,0.1784,0.0151,0.0163,-0.0024,-35.175,-26.25,-6.45,,adl
6.96099,-0.0255,-0.0536,0.314,0.0151,0.0163,-0.0024,-35.175,-26.25,-6.45,,adl
6.976082,-0.0255,-0.0536,0.314,0.0377,-0.0318,-0.0015,-35.175,-26.25,-6.45,,adl
6.978298,-0.0255,-0.0536,0.314,0.0377,-0.0318,-0.0015,-35.175,-26.25,-6.45,,adl
6.980018,-0.0103,-0.0708,0.2451,0.0377,-0.0318,-0.0015,-35.175,-26.25,-6.45,,adl
6.995094,-0.0103,-0.0708,0.2451,0.0377,-0.0318,-0.0015,-35.175,-26.25,-6.45,,adl
6.997214,-0.001,-0.022,0.0635,0.0377,-0.0318,-0.0015,-35.175,-26.25,-6.45,,adl
6.99847,-0.001,-0.022,0.0635,0.0377,-0.0318,-0.0015,-36.075,-25.65,-6.45,,adl
7.014266,-0.001,-0.022,0.0635,0.0377,-0.0318,-0.0015,-36.075,-25.65,-6.45,,adl
7.017781,0.0091,0.043,-0.0647,0.0377,-0.0318,-0.0015,-36.075,-25.65,-6.45,,adl
7.033823,0.0091,0.043,-0.0647,0.0377,-0.0318,-0.0015,-36.075,-25.65,-6.45,,adl
7.035954,0.0181,0.0787,-0.0402,0.0377,-0.0318,-0.0015,-36.075,-25.65,-6.45,,adl
7.039756,0.0181,0.0787,-0.0402,0.0315,-0.0113,-0.0018,-36.075,-25.65,-6.45,,adl
7.05468,0.0181,0.0787,-0.0402,0.0315,-0.0113,-0.0018,-36.075,-25.65,-6.45,,adl
7.058253,0.0099,0.0951,0.0861,0.0315,-0.0113,-0.0018,-36.075,-25.65,-6.45,,adl
7.064166,0.0099,0.0951,0.0861,0.0315,-0.0113,-0.0018,-36.075,-25.65,-6.075,,adl
7.073763,0.0099,0.0951,0.0861,0.0315,-0.0113,-0.0018,-36.075,-25.65,-6.075,,adl
7.076366,-0.0133,0.0846,0.131,0.0315,-0.0113,-0.0018,-36.075,-25.65,-6.075,,adl
7.092676,-0.0133,0.0846,0.131,0.0315,-0.0113,-0.0018,-36.075,-25.65,-6.075,,adl
7.094815,-0.0435,0.05,0.1245,0.0315,-0.0113,-0.0018,-36.075,-25.65,-6.075,,adl
7.107132,-0.0435,0.05,0.1245,-0.0223,-0.0015,-0.0038,-36.075,-25.65,-6.075,,adl
7.112062,-0.0435,0.05,0.1245,-0.0223,-0.0015,-0.0038,-36.075,-25.65,-6.075,,adl
7.113464,-0.0545,0.0054,0.1083,-0.0223,-0.0015,-0.0038,-36.075,-25.65,-6.075,,adl
7.131906,-0.0545,0.0054,0.1083,-0.0223,-0.0015,-0.0038,-36.075,-25.65,-6.075,,adl
7.134808,-0.0405,-0.0359,0.1553,-0.0223,-0.0015,-0.0038,-36.075,-25.65,-6.075,,adl
7.137473,-0.0405,-0.0359,0.1553,-0.0223,-0.0015,-0.0038,-35.925,-25.35,-5.475,,adl
7.151686,-0.0405,-0.0359,0.1553,-0.0223,-0.0015,-0.0038,-35.925,-25.35,-5.475,,adl
7.154274,-0.036,-0.0473,0.1951,-0.0223,-0.0015,-0.0038,-35.925,-25.35,-5.475,,adl
7.171586,-0.036,-0.0473,0.1951,-0.0223,-0.0015,-0.0038,-35.925,-25.35,-5.475,,adl
7.174108,-0.0331,-0.037,0.2384,-0.0223,-0.0015,-0.0038,-35.925,-25.35,-5.475,,adl
7.176936,-0.0331,-0.037,0.2384,-0.0113,-0.0015,-0.0038,-35.925,-25.35,-5.475,,adl
7.190975,-0.0331,-0.037,0.2384,-0.0113,-0.0015,-0.0038,-35.925,-25.35,-5.475,,adl
7.195146,-0.0321,0.0041,0.108,-0.0113,-0.0015,-0.0038,-35.925,-25.35,-5.475,,adl
7.208255,-0.0321,0.0041,0.108,-0.0113,-0.0015,-0.0038,-36.0,-25.425,-4.95,,adl
7.212564,-0.0321,0.0041,0.108,-0.0113,-0.0015,-0.0038,-36.0,-25.425,-4.95,,adl
7.214766,-0.0333,0.0504,0.0595,-0.0113,-0.0015,-0.0038,-36.0,-25.425,-4.95,,adl
7.234765,-0.0333,0.0504,0.0595,-0.0113,-0.0015,-0.0038,-36.0,-25.425,-4.95,,adl
7.238055,-0.0278,0.0506,0.146,-0.0113,-0.0015,-0.0038,-36.0,-25.425,-4.95,,adl
7.249292,-0.0278,0.0506,0.146,0.011,0.0011,-0.0047,-36.0,-25.425,-4.95,,adl
7.257811,-0.0278,0.0506,0.146,0.011,0.0011,-0.0047,-36.0,-25.425,-4.95,,adl
7.259867,-0.0422,0.0408,0.1835,0.011,0.0011,-0.0047,-36.0,-25.425,-4.95,,adl
7.27394,-0.0422,0.0408,0.1835,0.011,0.0011,-0.0047,-36.0,-25.425,-4.95,,adl
7.276515,-0.0542,0.0346,0.1254,0.011,0.0011,-0.0047,-36.0,-25.425,-4.95,,adl
7.27766,-0.0542,0.0346,0.1254,0.011,0.0011,-0.0047,-35.625,-24.75,-5.55,,adl
7.292746,-0.0542,0.0346,0.1254,0.011,0.0011,-0.0047,-35.625,-24.75,-5.55,,adl
7.294616,-0.0358,0.0227,0.0998,0.011,0.0011,-0.0047,-35.625,-24.75,-5.55,,adl
7.312709,-0.0358,0.0227,0.0998,0.011,0.0011,-0.0047,-35.625,-24.75,-5.55,,adl
7.314901,0.0096,0.0252,0.0795,0.011,0.0011,-0.0047,-35.625,-24.75,-5.55,,adl
7.325839,0.0096,0.0252,0.0795,0.0012,0.0098,0.0029,-35.625,-24.75,-5.55,,adl
7.333324,0.0096,0.0252,0.0795,0.0012,0.0098,0.0029,-35.625,-24.75,-5.55,,adl
7.335965,0.0203,0.0414,0.0572,0.0012,0.0098,0.0029,-35.625,-24.75,-5.55,,adl
7.344137,0.0203,0.0414,0.0572,0.0012,0.0098,0.0029,-35.1,-25.65,-5.625,,adl
7.355982,0.0203,0.0414,0.0572,0.0012,0.0098,0.0029,-35.1,-25.65,-5.625,,adl
7.358399,-0.0071,0.0384,0.0765,0.0012,0.0098,0.0029,-35.1,-25.65,-5.625,,adl
7.372702,-0.0071,0.0384,0.0765,0.0012,0.0098,0.0029,-35.1,-25.65,-5.625,,adl
7.374826,-0.0168,0.0189,0.1709,0.0012,0.0098,0.0029,-35.1,-25.65,-5.625,,adl
7.386627,-0.0168,0.0189,0.1709,-0.0171,-0.0043,-0.0003,-35.1,-25.65,-5.625,,adl
7.391832,-0.0168,0.0189,0.1709,-0.0171,-0.0043,-0.0003,-35.1,-25.65,-5.625,,adl
7.393941,-0.0053,-0.0024,0.2195,-0.0171,-0.0043,-0.0003,-35.1,-25.65,-5.625,,adl
7.410867,-0.0053,-0.0024,0.2195,-0.0171,-0.0043,-0.0003,-35.1,-25.65,-5.625,,adl
7.412739,-0.007,-0.0128,0.1706,-0.0171,-0.0043,-0.0003,-35.1,-25.65,-5.625,,adl
7.413898,-0.007,-0.0128,0.1706,-0.0171,-0.0043,-0.0003,-35.475,-25.425,-4.95,,adl
7.431507,-0.007,-0.0128,0.1706,-0.0171,-0.0043,-0.0003,-35.475,-25.425,-4.95,,adl
7.432858,0.0067,-0.0127,0.1185,-0.0171,-0.0043,-0.0003,-35.475,-25.425,-4.95,,adl
7.450599,0.0067,-0.0127,0.1185,-0.0171,-0.0043,-0.0003,-35.475,-25.425,-4.95,,adl
7.451515,-0.0015,0.0102,0.1193,-0.0171,-0.0043,-0.0003,-35.475,-25.425,-4.95,,adl
7.456677,-0.0015,0.0102,0.1193,0.0058,0.0057,-0.0031,-35.475,-25.425,-4.95,,adl
7.470264,-0.0015,0.0102,0.1193,0.0058,0.0057,-0.0031,-35.475,-25.425,-4.95,,adl
7.471219,-0.0282,0.0369,0.1192,0.0058,0.0057,-0.0031,-35.475,-25.425,-4.95,,adl
7.483873,-0.0282,0.0369,0.1192,0.0058,0.0057,-0.0031,-35.475,-25.575,-5.85,,adl
7.488859,-0.0282,0.0369,0.1192,0.0058,0.0057,-0.0031,-35.475,-25.575,-5.85,,adl
7.490188,-0.0373,0.0619,0.0874,0.0058,0.0057,-0.0031,-35.475,-25.575,-5.85,,adl
7.513392,-0.0373,0.0619,0.0874,0.0058,0.0057,-0.0031,-35.475,-25.575,-5.85,,adl
7.517846,-0.0639,0.054,0.1162,0.0058,0.0057,-0.0031,-35.475,-25.575,-5.85,,adl
7.528667,-0.0639,0.054,0.1162,0.0053,0.0006,-0.0037,-35.475,-25.575,-5.85,,adl
7.536606,-0.0639,0.054,0.1162,0.0053,0.0006,-0.0037,-35.475,-25.575,-5.85,,adl
7.53862,-0.0402,0.0426,0.1345,0.0053,0.0006,-0.0037,-35.475,-25.575,-5.85,,adl
7.552752,-0.0402,0.0426,0.1345,0.0053,0.0006,-0.0037,-35.475,-25.575,-5.85,,adl
7.554912,0.0055,0.0499,0.0487,0.0053,0.0006,-0.0037,-35.475,-25.575,-5.85,,adl
7.556656,0.0055,0.0499,0.0487,0.0053,0.0006,-0.0037,-35.55,-25.65,-4.95,,adl
7.57344,0.0055,0.0499,0.0487,0.0053,0.0006,-0.0037,-35.55,-25.65,-4.95,,adl
7.575123,-0.0356,0.0126,0.0525,0.0053,0.0006,-0.0037,-35.55,-25.65,-4.95,,adl
7.591957,-0.0356,0.0126,0.0525,0.0053,0.0006,-0.0037,-35.55,-25.65,-4.95,,adl
7.594084,0.0097,-0.0105,0.0726,0.0053,0.0006,-0.0037,-35.55,-25.65,-4.95,,adl
7.596811,0.0097,-0.0105,0.0726,-0.0096,-0.0066,0.0011,-35.55,-25.65,-4.95,,adl
7.612592,0.0097,-0.0105,0.0726,-0.0096,-0.0066,0.0011,-35.55,-25.65,-4.95,,adl
7.615528,-0.0058,0.0107,0.1764,-0.0096,-0.0066,0.0011,-35.55,-25.65,-4.95,,adl
7.624969,-0.0058,0.0107,0.1764,-0.0096,-0.0066,0.0011,-35.775,-25.65,-5.325,,adl
7.631007,-0.0058,0.0107,0.1764,-0.0096,-0.0066,0.0011,-35.775,-25.65,-5.325,,adl
7.633652,-0.0076,0.0279,0.1161,-0.0096,-0.0066,0.0011,-35.775,-25.65,-5.325,,adl
7.650325,-0.0076,0.0279,0.1161,-0.0096,-0.0066,0.0011,-35.775,-25.65,-5.325,,adl
7.653162,-0.0362,0.0624,0.0682,-0.0096,-0.0066,0.0011,-35.775,-25.65,-5.325,,adl
7.664879,-0.0362,0.0624,0.0682,-0.0089,0.0191,-0.0011,-35.775,-25.65,-5.325,,adl
7.675114,-0.0362,0.0624,0.0682,-0.0089,0.0191,-0.0011,-35.775,-25.65,-5.325,,adl
7.678381,-0.0312,0.04,0.0205,-0.0089,0.0191,-0.0011,-35.775,-25.65,-5.325,,adl
7.68978,-0.0312,0.04,0.0205,-0.0089,0.0191,-0.0011,-35.775,-25.65,-5.325,,adl
7.692795,-0.0044,0.0061,0.1677,-0.0089,0.0191,-0.0011,-35.775,-25.65,-5.325,,adl
7.69491,-0.0044,0.0061,0.1677,-0.0089,0.0191,-0.0011,-35.85,-26.025,-6.15,,adl
7.708897,-0.0044,0.0061,0.1677,-0.0089,0.0191,-0.0011,-35.85,-26.025,-6.15,,adl
7.711109,-0.0157,-0.047,0.2962,-0.0089,0.0191,-0.0011,-35.85,-26.025,-6.15,,adl
7.724038,-0.0157,-0.047,0.2962,-0.0089,0.0191,-0.0011,-35.85,-26.025,-6.15,,adl
7.726278,-0.0239,-0.0441,0.1839,-0.0089,0.0191,-0.0011,-35.85,-26.025,-6.15,,adl
7.733106,-0.0239,-0.0441,0.1839,-0.0009,-0.0232,-0.004,-35.85,-26.025,-6.15,,adl
7.748406,-0.0239,-0.0441,0.1839,-0.0009,-0.0232,-0.004,-35.85,-26.025,-6.15,,adl
7.751252,-0.0015,0.0057,-0.0408,-0.0009,-0.0232,-0.004,-35.85,-26.025,-6.15,,adl
7.763022,-0.0015,0.0057,-0.0408,-0.0009,-0.0232,-0.004,-35.85,-25.65,-6.15,,adl
7.772224,-0.0015,0.0057,-0.0408,-0.0009,-0.0232,-0.004,-35.85,-25.65,-6.15,,adl
7.774669,0.0107,0.0632,-0.0645,-0.0009,-0.0232,-0.004,-35.85,-25.65,-6.15,,adl
7.792252,0.0107,0.0632,-0.0645,-0.0009,-0.0232,-0.004,-35.85,-25.65,-6.15,,adl
7.794174,0.0152,0.0952,0.1127,-0.0009,-0.0232,-0.004,-35.85,-25.65,-6.15,,adl
7.8082,0.0152,0.0952,0.1127,-0.0399,-0.0044,-0.0029,-35.85,-25.65,-6.15,,adl
7.813043,0.0152,0.0952,0.1127,-0.0399,-0.0044,-0.0029,-35.85,-25.65,-6.15,,adl
7.815052,0.0073,0.1101,0.2021,-0.0399,-0.0044,-0.0029,-35.85,-25.65,-6.15,,adl
7.830911,0.0073,0.1101,0.2021,-0.0399,-0.0044,-0.0029,-35.85,-25.65,-6.15,,adl
7.833422,-0.036,0.0764,0.1303,-0.0399,-0.0044,-0.0029,-35.85,-25.65,-6.15,,adl
7.83548,-0.036,0.0764,0.1303,-0.0399,-0.0044,-0.0029,-35.325,-26.175,-6.075,,adl
7.850772,-0.036,0.0764,0.1303,-0.0399,-0.0044,-0.0029,-35.325,-26.175,-6.075,,adl
7.853035,-0.0437,0.0323,0.0437,-0.0399,-0.0044,-0.0029,-35.325,-26.175,-6.075,,adl
7.870707,-0.0437,0.0323,0.0437,-0.0399,-0.0044,-0.0029,-35.325,-26.175,-6.075,,adl
7.874376,-0.0327,-0.0146,0.0546,-0.0399,-0.0044,-0.0029,-35.325,-26.175,-6.075,,adl
7.877443,-0.0327,-0.0146,0.0546,-0.055,0.0072,-0.0026,-35.325,-26.175,-6.075,,adl
7.89374,-0.0327,-0.0146,0.0546,-0.055,0.0072,-0.0026,-35.325,-26.175,-6.075,,adl
7.896937,-0.0408,-0.0542,0.1561,-0.055,0.0072,-0.0026,-35.325,-26.175,-6.075,,adl
7.90364,-0.0408,-0.0542,0.1561,-0.055,0.0072,-0.0026,-35.625,-25.425,-6.45,,adl
7.910216,-0.0408,-0.0542,0.1561,-0.055,0.0072,-0.0026,-35.625,-25.425,-6.45,,adl
7.91292,-0.0362,-0.0501,0.3248,-0.055,0.0072,-0.0026,-35.625,-25.425,-6.45,,adl
7.925302,-0.0362,-0.0501,0.3248,-0.055,0.0072,-0.0026,-35.625,-25.425,-6.45,,adl
7.928034,-0.0472,-0.0277,0.2923,-0.055,0.0072,-0.0026,-35.625,-25.425,-6.45,,adl
7.943575,-0.0472,-0.0277,0.2923,-0.0237,-0.0047,-0.0049,-35.625,-25.425,-6.45,,adl
7.958892,-0.0472,-0.0277,0.2923,-0.0237,-0.0047,-0.0049,-35.625,-25.425,-6.45,,adl
7.964587,-0.0592,0.0555,0.0997,-0.0237,-0.0047,-0.0049,-35.625,-25.425,-6.45,,adl
7.976063,-0.0592,0.0555,0.0997,-0.0237,-0.0047,-0.0049,-35.625,-25.425,-6.45,,adl
7.978552,-0.0513,0.0629,0.0503,-0.0237,-0.0047,-0.0049,-35.625,-25.425,-6.45,,adl
7.980638,-0.0513,0.0629,0.0503,-0.0237,-0.0047,-0.0049,-35.4,-25.425,-6.15,,adl
7.988114,-0.0513,0.0629,0.0503,-0.0237,-0.0047,-0.0049,-35.4,-25.425,-6.15,,adl
7.990449,-0.0191,0.0541,0.1046,-0.0237,-0.0047,-0.0049,-35.4,-25.425,-6.15,,adl
8.012245,-0.0191,0.0541,0.1046,-0.0237,-0.0047,-0.0049,-35.4,-25.425,-6.15,,adl
8.014057,-0.0256,0.0536,0.1011,-0.0237,-0.0047,-0.0049,-35.4,-25.425,-6.15,,adl
8.016658,-0.0256,0.0536,0.1011,-0.0098,0.0021,-0.0021,-35.4,-25.425,-6.15,,adl
8.031967,-0.0256,0.0536,0.1011,-0.0098,0.0021,-0.0021,-35.4,-25.425,-6.15,,adl
8.034267,-0.0109,0.0267,0.0992,-0.0098,0.0021,-0.0021,-35.4,-25.425,-6.15,,adl
8.042947,-0.0109,0.0267,0.0992,-0.0098,0.0021,-0.0021,-35.4,-25.35,-5.85,,adl
8.05351,-0.0109,0.0267,0.0992,-0.0098,0.0021,-0.0021,-35.4,-25.35,-5.85,,adl
8.056428,0.0095,0.0083,0.1111,-0.0098,0.0021,-0.0021,-35.4,-25.35,-5.85,,adl
8.073245,0.0095,0.0083,0.1111,-0.0098,0.0021,-0.0021,-35.4,-25.35,-5.85,,adl
8.074964,0.0361,0.0281,0.0897,-0.0098,0.0021,-0.0021,-35.4,-25.35,-5.85,,adl
8.088992,0.0361,0.0281,0.0897,-0.0417,0.0084,0.0006,-35.4,-25.35,-5.85,,adl
8.091985,0.0361,0.0281,0.0897,-0.0417,0.0084,0.0006,-35.4,-25.35,-5.85,,adl
8.093319,0.0237,0.0322,0.1154,-0.0417,0.0084,0.0006,-35.4,-25.35,-5.85,,adl
8.109903,0.0237,0.0322,0.1154,-0.0417,0.0084,0.0006,-35.4,-25.35,-5.85,,adl
8.111934,-0.0052,0.0205,0.132,-0.0417,0.0084,0.0006,-35.4,-25.35,-5.85,,adl
8.113656,-0.0052,0.0205,0.132,-0.0417,0.0084,0.0006,-35.625,-25.725,-6.825,,adl
8.129687,-0.0052,0.0205,0.132,-0.0417,0.0084,0.0006,-35.625,-25.725,-6.825,,adl
8.131732,-0.0159,-0.0035,0.123,-0.0417,0.0084,0.0006,-35.625,-25.725,-6.825,,adl
8.149332,-0.0159,-0.0035,0.123,-0.0417,0.0084,0.0006,-35.625,-25.725,-6.825,,adl
8.152263,-0.0215,-0.013,0.1346,-0.0417,0.0084,0.0006,-35.625,-25.725,-6.825,,adl
8.154492,-0.0215,-0.013,0.1346,-0.0463,0.0002,-0.0047,-35.625,-25.725,-6.825,,adl
8.16907,-0.0215,-0.013,0.1346,-0.0463,0.0002,-0.0047,-35.625,-25.725,-6.825,,adl
8.173829,-0.0242,-0.0014,0.1603,-0.0463,0.0002,-0.0047,-35.625,-25.725,-6.825,,adl
8.184031,-0.0242,-0.0014,0.1603,-0.0463,0.0002,-0.0047,-34.575,-25.425,-6.15,,adl
8.191542,-0.0242,-0.0014,0.1603,-0.0463,0.0002,-0.0047,-34.575,-25.425,-6.15,,adl
8.194608,-0.026,0.0141,0.1663,-0.0463,0.0002,-0.0047,-34.575,-25.425,-6.15,,adl
8.208357,-0.026,0.0141,0.1663,-0.0463,0.0002,-0.0047,-34.575,-25.425,-6.15,,adl
8.211709,-0.0327,0.04,0.1351,-0.0463,0.0002,-0.0047,-34.575,-25.425,-6.15,,adl
8.222558,-0.0327,0.04,0.1351,-0.0357,0.0035,-0.0035,-34.575,-25.425,-6.15,,adl
8.226187,-0.0327,0.04,0.1351,-0.0357,0.0035,-0.0035,-34.575,-25.425,-6.15,,adl
8.228748,-0.0331,0.0414,0.1121,-0.0357,0.0035,-0.0035,-34.575,-25.425,-6.15,,adl
8.247378,-0.0331,0.0414,0.1121,-0.0357,0.0035,-0.0035,-34.575,-25.425,-6.15,,adl
8.249965,-0.0416,0.0497,0.1057,-0.0357,0.0035,-0.0035,-34.575,-25.425,-6.15,,adl
8.254794,-0.0416,0.0497,0.1057,-0.0357,0.0035,-0.0035,-34.875,-25.65,-6.15,,adl
8.266578,-0.0416,0.0497,0.1057,-0.0357,0.0035,-0.0035,-34.875,-25.65,-6.15,,adl
8.268883,-0.0408,0.0561,0.1007,-0.0357,0.0035,-0.0035,-34.875,-25.65,-6.15,,adl
8.286276,-0.0408,0.0561,0.1007,-0.0357,0.0035,-0.0035,-34.875,-25.65,-6.15,,adl
8.289312,-0.0407,0.0583,0.0735,-0.0357,0.0035,-0.0035,-34.875,-25.65,-6.15,,adl
8.291691,-0.0407,0.0583,0.0735,-0.038,0.0131,-0.0052,-34.875,-25.65,-6.15,,adl
8.308425,-0.0407,0.0583,0.0735,-0.038,0.0131,-0.0052,-34.875,-25.65,-6.15,,adl
8.310783,-0.0194,0.0361,0.082,-0.038,0.0131,-0.0052,-34.875,-25.65,-6.15,,adl
8.323609,-0.0194,0.0361,0.082,-0.038,0.0131,-0.0052,-36.0,-25.05,-5.625,,adl
8.331492,-0.0194,0.0361,0.082,-0.038,0.0131,-0.0052,-36.0,-25.05,-5.625,,adl
8.333877,-0.0264,0.017,0.1299,-0.038,0.0131,-0.0052,-36.0,-25.05,-5.625,,adl
8.349706,-0.0264,0.017,0.1299,-0.038,0.0131,-0.0052,-36.0,-25.05,-5.625,,adl
8.352334,-0.0311,-0.0241,0.1892,-0.038,0.0131,-0.0052,-36.0,-25.05,-5.625,,adl
8.364334,-0.0311,-0.0241,0.1892,-0.0455,-0.0034,-0.0027,-36.0,-25.05,-5.625,,adl
8.373961,-0.0311,-0.0241,0.1892,-0.0455,-0.0034,-0.0027,-36.0,-25.05,-5.625,,adl
8.376001,-0.0006,-0.0192,0.1607,-0.0455,-0.0034,-0.0027,-36.0,-25.05,-5.625,,adl
8.389289,-0.0006,-0.0192,0.1607,-0.0455,-0.0034,-0.0027,-36.0,-25.05,-5.625,,adl
8.39174,-0.0193,-0.0063,0.1525,-0.0455,-0.0034,-0.0027,-36.0,-25.05,-5.625,,adl
8.393521,-0.0193,-0.0063,0.1525,-0.0455,-0.0034,-0.0027,-35.625,-25.05,-6.15,,adl
8.409174,-0.0193,-0.0063,0.1525,-0.0455,-0.0034,-0.0027,-35.625,-25.05,-6.15,,adl
8.41243,-0.0362,-0.0005,0.1557,-0.0455,-0.0034,-0.0027,-35.625,-25.05,-6.15,,adl
8.424143,-0.0362,-0.0005,0.1557,-0.0455,-0.0034,-0.0027,-35.625,-25.05,-6.15,,adl
8.427567,0.0275,0.0497,0.1734,-0.0455,-0.0034,-0.0027,-35.625,-25.05,-6.15,,adl
8.433499,0.0275,0.0497,0.1734,-0.0289,-0.0011,-0.0006,-35.625,-25.05,-6.15,,adl
8.448036,0.0275,0.0497,0.1734,-0.0289,-0.0011,-0.0006,-35.625,-25.05,-6.15,,adl
8.45427,-0.0051,0.0527,0.1424,-0.0289,-0.0011,-0.0006,-35.625,-25.05,-6.15,,adl
8.462594,-0.0051,0.0527,0.1424,-0.0289,-0.0011,-0.0006,-35.625,-25.35,-6.225,,adl
8.464317,-0.0051,0.0527,0.1424,-0.0289,-0.0011,-0.0006,-35.625,-25.35,-6.225,,adl
8.465592,0.0123,0.0774,0.085,-0.0289,-0.0011,-0.0006,-35.625,-25.35,-6.225,,adl
8.487704,0.0123,0.0774,0.085,-0.0289,-0.0011,-0.0006,-35.625,-25.35,-6.225,,adl
8.4894,-0.0305,0.0587,0.0264,-0.0289,-0.0011,-0.0006,-35.625,-25.35,-6.225,,adl
8.50505,-0.0305,0.0587,0.0264,-0.0101,0.0162,-0.002,-35.625,-25.35,-6.225,,adl
8.506501,-0.0305,0.0587,0.0264,-0.0101,0.0162,-0.002,-35.625,-25.35,-6.225,,adl
8.507558,-0.0229,0.0225,0.1821,-0.0101,0.0162,-0.002,-35.625,-25.35,-6.225,,adl
8.524246,-0.0229,0.0225,0.1821,-0.0101,0.0162,-0.002,-35.625,-25.35,-6.225,,adl
8.526317,-0.0204,-0.0283,0.2744,-0.0101,0.0162,-0.002,-35.625,-25.35,-6.225,,adl
8.5327,-0.0204,-0.0283,0.2744,-0.0101,0.0162,-0.002,-35.775,-25.95,-6.75,,adl
8.545337,-0.0204,-0.0283,0.2744,-0.0101,0.0162,-0.002,-35.775,-25.95,-6.75,,adl
8.547058,-0.0233,-0.0451,0.2086,-0.0101,0.0162,-0.002,-35.775,-25.95,-6.75,,adl
8.565867,-0.0233,-0.0451,0.2086,-0.0101,0.0162,-0.002,-35.775,-25.95,-6.75,,adl
8.567348,-0.0354,-0.0186,0.069,-0.0101,0.0162,-0.002,-35.775,-25.95,-6.75,,adl
8.570247,-0.0354,-0.0186,0.069,0.0024,-0.0183,-0.005,-35.775,-25.95,-6.75,,adl
8.590178,-0.0354,-0.0186,0.069,0.0024,-0.0183,-0.005,-35.775,-25.95,-6.75,,adl
8.592019,-0.0173,-0.003,0.0482,0.0024,-0.0183,-0.005,-35.775,-25.95,-6.75,,adl
8.603859,-0.0173,-0.003,0.0482,0.0024,-0.0183,-0.005,-35.475,-25.65,-6.375,,adl
8.609543,-0.0173,-0.003,0.0482,0.0024,-0.0183,-0.005,-35.475,-25.65,-6.375,,adl
8.612945,-0.0075,0.0351,0.1574,0.0024,-0.0183,-0.005,-35.475,-25.65,-6.375,,adl
8.626051,-0.0075,0.0351,0.1574,0.0024,-0.0183,-0.005,-35.475,-25.65,-6.375,,adl
8.629323,0.0042,0.0588,0.1692,0.0024,-0.0183,-0.005,-35.475,-25.65,-6.375,,adl
8.643006,0.0042,0.0588,0.1692,-0.0136,-0.0069,-0.0043,-35.475,-25.65,-6.375,,adl
8.648177,0.0042,0.0588,0.1692,-0.0136,-0.0069,-0.0043,-35.475,-25.65,-6.375,,adl
8.649473,-0.0144,0.0801,0.1058,-0.0136,-0.0069,-0.0043,-35.475,-25.65,-6.375,,adl
8.667516,-0.0144,0.0801,0.1058,-0.0136,-0.0069,-0.0043,-35.475,-25.65,-6.375,,adl
8.669595,-0.046,0.0689,0.0642,-0.0136,-0.0069,-0.0043,-35.475,-25.65,-6.375,,adl
8.674272,-0.046,0.0689,0.0642,-0.0136,-0.0069,-0.0043,-36.3,-25.125,-5.925,,adl
8.687635,-0.046,0.0689,0.0642,-0.0136,-0.0069,-0.0043,-36.3,-25.125,-5.925,,adl
8.690078,-0.0517,0.0345,0.0621,-0.0136,-0.0069,-0.0043,-36.3,-25.125,-5.925,,adl
8.707912,-0.0517,0.0345,0.0621,-0.0136,-0.0069,-0.0043,-36.3,-25.125,-5.925,,adl
8.710031,-0.047,-0.0161,0.1333,-0.0136,-0.0069,-0.0043,-36.3,-25.125,-5.925,,adl
8.711712,-0.047,-0.0161,0.1333,-0.0292,0.0046,-0.0031,-36.3,-25.125,-5.925,,adl
8.724209,-0.047,-0.0161,0.1333,-0.0292,0.0046,-0.0031,-36.3,-25.125,-5.925,,adl
8.726324,-0.0294,-0.0388,0.2479,-0.0292,0.0046,-0.0031,-36.3,-25.125,-5.925,,adl
8.742977,-0.0294,-0.0388,0.2479,-0.0292,0.0046,-0.0031,-36.3,-25.125,-5.925,,adl
8.745065,0.0173,-0.0424,0.1757,-0.0292,0.0046,-0.0031,-36.3,-25.125,-5.925,,adl
8.746492,0.0173,-0.0424,0.1757,-0.0292,0.0046,-0.0031,-35.925,-25.875,-6.75,,adl
8.765831,0.0173,-0.0424,0.1757,-0.0292,0.0046,-0.0031,-35.925,-25.875,-6.75,,adl
8.768095,0.0189,0.0188,0.0236,-0.0292,0.0046,-0.0031,-35.925,-25.875,-6.75,,adl
8.780382,0.0189,0.0188,0.0236,-0.0147,-0.0026,-0.0037,-35.925,-25.875,-6.75,,adl
8.786615,0.0189,0.0188,0.0236,-0.0147,-0.0026,-0.0037,-35.925,-25.875,-6.75,,adl
8.789433,-0.0289,0.0579,0.0738,-0.0147,-0.0026,-0.0037,-35.925,-25.875,-6.75,,adl
8.810435,-0.0289,0.0579,0.0738,-0.0147,-0.0026,-0.0037,-35.925,-25.875,-6.75,,adl
8.814295,-0.0179,0.0529,0.2047,-0.0147,-0.0026,-0.0037,-35.925,-25.875,-6.75,,adl
8.816715,-0.0179,0.0529,0.2047,-0.0147,-0.0026,-0.0037,-35.625,-25.05,-6.45,,adl
8.824078,-0.0179,0.0529,0.2047,-0.0147,-0.0026,-0.0037,-35.625,-25.05,-6.45,,adl
8.826167,-0.0144,0.0279,0.2247,-0.0147,-0.0026,-0.0037,-35.625,-25.05,-6.45,,adl
8.848696,-0.0144,0.0279,0.2247,-0.0147,-0.0026,-0.0037,-35.625,-25.05,-6.45,,adl
8.851493,-0.0322,-0.0197,0.1886,-0.0147,-0.0026,-0.0037,-35.625,-25.05,-6.45,,adl
8.860126,-0.0322,-0.0197,0.1886,-0.0125,0.0023,-0.0041,-35.625,-25.05,-6.45,,adl
8.86984,-0.0322,-0.0197,0.1886,-0.0125,0.0023,-0.0041,-35.625,-25.05,-6.45,,adl
8.872367,-0.0322,-0.0365,0.1129,-0.0125,0.0023,-0.0041,-35.625,-25.05,-6.45,,adl
8.882982,-0.0322,-0.0365,0.1129,-0.0125,0.0023,-0.0041,-35.625,-25.05,-6.45,,adl
8.885955,-0.0234,0.0027,0.0643,-0.0125,0.0023,-0.0041,-35.625,-25.05,-6.45,,adl
8.888594,-0.0234,0.0027,0.0643,-0.0125,0.0023,-0.0041,-35.325,-25.95,-6.675,,adl
8.907179,-0.0234,0.0027,0.0643,-0.0125,0.0023,-0.0041,-35.325,-25.95,-6.675,,adl
8.909754,-0.0195,0.0524,0.0896,-0.0125,0.0023,-0.0041,-35.325,-25.95,-6.675,,adl
8.921742,-0.0195,0.0524,0.0896,-0.0127,-0.0047,-0.0043,-35.325,-25.95,-6.675,,adl
8.924492,-0.0195,0.0524,0.0896,-0.0127,-0.0047,-0.0043,-35.325,-25.95,-6.675,,adl
8.925941,-0.0246,0.0591,0.1489,-0.0127,-0.0047,-0.0043,-35.325,-25.95,-6.675,,adl
8.946424,-0.0246,0.0591,0.1489,-0.0127,-0.0047,-0.0043,-35.325,-25.95,-6.675,,adl
8.950398,-0.0154,0.052,0.1555,-0.0127,-0.0047,-0.0043,-35.325,-25.95,-6.675,,adl
8.953049,-0.0154,0.052,0.1555,-0.0127,-0.0047,-0.0043,-35.475,-25.35,-6.45,,adl
8.966067,-0.0154,0.052,0.1555,-0.0127,-0.0047,-0.0043,-35.475,-25.35,-6.45,,adl
8.968389,-0.0185,0.0419,0.1115,-0.0127,-0.0047,-0.0043,-35.475,-25.35,-6.45,,adl
8.988014,-0.0185,0.0419,0.1115,-0.0127,-0.0047,-0.0043,-35.475,-25.35,-6.45,,adl
8.991849,-0.023,0.0257,0.089,-0.0127,-0.0047,-0.0043,-35.475,-25.35,-6.45,,adl
8.994755,-0.023,0.0257,0.089,-0.0147,-0.0052,-0.0105,-35.475,-25.35,-6.45,,adl
9.006922,-0.023,0.0257,0.089,-0.0147,-0.0052,-0.0105,-35.475,-25.35,-6.45,,adl
9.011548,-0.0126,0.0188,0.1393,-0.0147,-0.0052,-0.0105,-35.475,-25.35,-6.45,,adl
9.015651,-0.0126,0.0188,0.1393,-0.0147,-0.0052,-0.0105,-35.775,-25.95,-7.35,,adl
9.024276,-0.0126,0.0188,0.1393,-0.0147,-0.0052,-0.0105,-35.775,-25.95,-7.35,,adl
9.027414,0.0047,-0.0042,0.1883,-0.0147,-0.0052,-0.0105,-35.775,-25.95,-7.35,,adl
9.043762,0.0047,-0.0042,0.1883,-0.0147,-0.0052,-0.0105,-35.775,-25.95,-7.35,,adl
9.045436,-0.0119,-0.014,0.1773,-0.0147,-0.0052,-0.0105,-35.775,-25.95,-7.35,,adl
9.058755,-0.0119,-0.014,0.1773,-0.0107,0.0023,-0.002,-35.775,-25.95,-7.35,,adl
9.063427,-0.0119,-0.014,0.1773,-0.0107,0.0023,-0.002,-35.775,-25.95,-7.35,,adl
9.065103,-0.0126,-0.0039,0.1233,-0.0107,0.0023,-0.002,-35.775,-25.95,-7.35,,adl
9.083073,-0.0126,-0.0039,0.1233,-0.0107,0.0023,-0.002,-35.775,-25.95,-7.35,,adl
9.085485,-0.0084,0.0178,0.0956,-0.0107,0.0023,-0.002,-35.775,-25.95,-7.35,,adl
9.086905,-0.0084,0.0178,0.0956,-0.0107,0.0023,-0.002,-35.55,-26.175,-7.05,,adl
9.113499,-0.0084,0.0178,0.0956,-0.0107,0.0023,-0.002,-35.55,-26.175,-7.05,,adl
9.118091,-0.0022,0.0455,0.0765,-0.0107,0.0023,-0.002,-35.55,-26.175,-7.05,,adl
9.123655,-0.0022,0.0455,0.0765,-0.0107,0.0023,-0.002,-35.55,-26.175,-7.05,,adl
9.12626,-0.0174,0.0617,0.0761,-0.0107,0.0023,-0.002,-35.55,-26.175,-7.05,,adl
9.128551,-0.0174,0.0617,0.0761,-0.018,0.0064,-0.0005,-35.55,-26.175,-7.05,,adl
9.142422,-0.0174,0.0617,0.0761,-0.018,0.0064,-0.0005,-35.55,-26.175,-7.05,,adl
9.145117,-0.0267,0.055,0.0956,-0.018,0.0064,-0.0005,-35.55,-26.175,-7.05,,adl
9.152934,-0.0267,0.055,0.0956,-0.018,0.0064,-0.0005,-34.875,-25.275,-7.05,,adl
9.161333,-0.0267,0.055,0.0956,-0.018,0.0064,-0.0005,-34.875,-25.275,-7.05,,adl
9.162861,-0.0233,0.0359,0.1322,-0.018,0.0064,-0.0005,-34.875,-25.275,-7.05,,adl
9.181926,-0.0233,0.0359,0.1322,-0.018,0.0064,-0.0005,-34.875,-25.275,-7.05,,adl
9.186952,-0.0306,0.0189,0.1618,-0.018,0.0064,-0.0005,-34.875,-25.275,-7.05,,adl
9.196291,-0.0306,0.0189,0.1618,-0.038,-0.0029,-0.0058,-34.875,-25.275,-7.05,,adl
9.201264,-0.0306,0.0189,0.1618,-0.038,-0.0029,-0.0058,-34.875,-25.275,-7.05,,adl
9.204186,-0.0504,-0.002,0.1644,-0.038,-0.0029,-0.0058,-34.875,-25.275,-7.05,,adl
9.220217,-0.0504,-0.002,0.1644,-0.038,-0.0029,-0.0058,-34.875,-25.275,-7.05,,adl
9.223168,-0.0627,-0.0053,0.1477,-0.038,-0.0029,-0.0058,-34.875,-25.275,-7.05,,adl
9.225005,-0.0627,-0.0053,0.1477,-0.038,-0.0029,-0.0058,-35.325,-25.575,-6.975,,adl
9.245165,-0.0627,-0.0053,0.1477,-0.038,-0.0029,-0.0058,-35.325,-25.575,-6.975,,adl
9.248451,-0.0523,-0.0024,0.1182,-0.038,-0.0029,-0.0058,-35.325,-25.575,-6.975,,adl
9.264324,-0.0523,-0.0024,0.1182,-0.038,-0.0029,-0.0058,-35.325,-25.575,-6.975,,adl
9.267173,-0.0313,0.0208,0.1261,-0.038,-0.0029,-0.0058,-35.325,-25.575,-6.975,,adl
9.269577,-0.0313,0.0208,0.1261,-0.0234,-0.0153,-0.0087,-35.325,-25.575,-6.975,,adl
9.283688,-0.0313,0.0208,0.1261,-0.0234,-0.0153,-0.0087,-35.325,-25.575,-6.975,,adl
9.286053,-0.0068,0.0372,0.1354,-0.0234,-0.0153,-0.0087,-35.325,-25.575,-6.975,,adl
9.293984,-0.0068,0.0372,0.1354,-0.0234,-0.0153,-0.0087,-35.4,-25.575,-7.35,,adl
9.30347,-0.0068,0.0372,0.1354,-0.0234,-0.0153,-0.0087,-35.4,-25.575,-7.35,,adl
9.306729,0.0139,0.0369,0.1136,-0.0234,-0.0153,-0.0087,-35.4,-25.575,-7.35,,adl
9.326607,0.0139,0.0369,0.1136,-0.0234,-0.0153,-0.0087,-35.4,-25.575,-7.35,,adl
9.329417,0.0074,0.0425,0.0848,-0.0234,-0.0153,-0.0087,-35.4,-25.575,-7.35,,adl
9.338609,0.0074,0.0425,0.0848,-0.0166,0.007,-0.0084,-35.4,-25.575,-7.35,,adl
9.342163,0.0074,0.0425,0.0848,-0.0166,0.007,-0.0084,-35.4,-25.575,-7.35,,adl
9.343872,0.0065,0.0361,0.079,-0.0166,0.007,-0.0084,-35.4,-25.575,-7.35,,adl
9.361976,0.0065,0.0361,0.079,-0.0166,0.007,-0.0084,-35.4,-25.575,-7.35,,adl
9.36463,-0.0137,0.0259,0.1536,-0.0166,0.007,-0.0084,-35.4,-25.575,-7.35,,adl
9.366359,-0.0137,0.0259,0.1536,-0.0166,0.007,-0.0084,-35.4,-25.725,-6.825,,adl
9.381906,-0.0137,0.0259,0.1536,-0.0166,0.007,-0.0084,-35.4,-25.725,-6.825,,adl
9.384439,-0.0311,0.0047,0.1734,-0.0166,0.007,-0.0084,-35.4,-25.725,-6.825,,adl
9.404208,-0.0311,0.0047,0.1734,-0.0166,0.007,-0.0084,-35.4,-25.725,-6.825,,adl
9.405997,-0.0064,0.0073,0.1313,-0.0166,0.007,-0.0084,-35.4,-25.725,-6.825,,adl
9.407348,-0.0064,0.0073,0.1313,-0.0157,0.0026,-0.009,-35.4,-25.725,-6.825,,adl
9.425255,-0.0064,0.0073,0.1313,-0.0157,0.0026,-0.009,-35.4,-25.725,-6.825,,adl
9.42664,-0.0264,-0.0177,0.1175,-0.0157,0.0026,-0.009,-35.4,-25.725,-6.825,,adl
9.433456,-0.0264,-0.0177,0.1175,-0.0157,0.0026,-0.009,-35.4,-25.65,-7.425,,adl
9.442489,-0.0264,-0.0177,0.1175,-0.0157,0.0026,-0.009,-35.4,-25.65,-7.425,,adl
9.443584,0.0164,0.0044,0.1098,-0.0157,0.0026,-0.009,-35.4,-25.65,-7.425,,adl
9.461363,0.0164,0.0044,0.1098,-0.0157,0.0026,-0.009,-35.4,-25.65,-7.425,,adl
9.462614,-0.0336,0.0218,0.2291,-0.0157,0.0026,-0.009,-35.4,-25.65,-7.425,,adl
9.481138,-0.0336,0.0218,0.2291,0.0128,0.0118,-0.0008,-35.4,-25.65,-7.425,,adl
9.485298,-0.0336,0.0218,0.2291,0.0128,0.0118,-0.0008,-35.4,-25.65,-7.425,,adl
9.486446,0.0107,0.0396,0.1253,0.0128,0.0118,-0.0008,-35.4,-25.65,-7.425,,adl
9.505127,0.0107,0.0396,0.1253,0.0128,0.0118,-0.0008,-35.4,-25.65,-7.425,,adl
9.50674,-0.0162,0.0478,0.0226,0.0128,0.0118,-0.0008,-35.4,-25.65,-7.425,,adl
9.507937,-0.0162,0.0478,0.0226,0.0128,0.0118,-0.0008,-34.725,-25.65,-6.825,,adl
9.524668,-0.0162,0.0478,0.0226,0.0128,0.0118,-0.0008,-34.725,-25.65,-6.825,,adl
9.526102,-0.0228,0.045,0.0706,0.0128,0.0118,-0.0008,-34.725,-25.65,-6.825,,adl
9.544682,-0.0228,0.045,0.0706,0.0128,0.0118,-0.0008,-34.725,-25.65,-6.825,,adl
9.546397,-0.0541,0.0821,0.1164,0.0128,0.0118,-0.0008,-34.725,-25.65,-6.825,,adl
9.548541,-0.0541,0.0821,0.1164,0.0147,0.0044,-0.0046,-34.725,-25.65,-6.825,,adl
9.562689,-0.0541,0.0821,0.1164,0.0147,0.0044,-0.0046,-34.725,-25.65,-6.825,,adl
9.564903,-0.0843,0.058,0.1988,0.0147,0.0044,-0.0046,-34.725,-25.65,-6.825,,adl
9.573222,-0.0843,0.058,0.1988,0.0147,0.0044,-0.0046,-35.55,-24.975,-6.975,,adl
9.582095,-0.0843,0.058,0.1988,0.0147,0.0044,-0.0046,-35.55,-24.975,-6.975,,adl
9.584168,-0.0442,0.001,0.159,0.0147,0.0044,-0.0046,-35.55,-24.975,-6.975,,adl
9.601447,-0.0442,0.001,0.159,0.0147,0.0044,-0.0046,-35.55,-24.975,-6.975,,adl
9.60451,-0.0235,-0.0725,0.0915,0.0147,0.0044,-0.0046,-35.55,-24.975,-6.975,,adl
9.617211,-0.0235,-0.0725,0.0915,-0.0086,-0.0101,-0.0061,-35.55,-24.975,-6.975,,adl
9.629054,-0.0235,-0.0725,0.0915,-0.0086,-0.0101,-0.0061,-35.55,-24.975,-6.975,,adl
9.632303,-0.0008,-0.1076,0.1223,-0.0086,-0.0101,-0.0061,-35.55,-24.975,-6.975,,adl
9.640961,-0.0008,-0.1076,0.1223,-0.0086,-0.0101,-0.0061,-35.55,-24.975,-6.975,,adl
9.643592,0.0102,-0.0809,0.1779,-0.0086,-0.0101,-0.0061,-35.55,-24.975,-6.975,,adl
9.645048,0.0102,-0.0809,0.1779,-0.0086,-0.0101,-0.0061,-35.475,-25.275,-7.05,,adl
9.660429,0.0102,-0.0809,0.1779,-0.0086,-0.0101,-0.0061,-35.475,-25.275,-7.05,,adl
9.662185,-0.0315,0.0018,0.1556,-0.0086,-0.0101,-0.0061,-35.475,-25.275,-7.05,,adl
9.68008,-0.0315,0.0018,0.1556,-0.0086,-0.0101,-0.0061,-35.475,-25.275,-7.05,,adl
9.681816,-0.0175,0.0837,0.0976,-0.0086,-0.0101,-0.0061,-35.475,-25.275,-7.05,,adl
9.687712,-0.0175,0.0837,0.0976,-0.0064,-0.0011,-0.0046,-35.475,-25.275,-7.05,,adl
9.699345,-0.0175,0.0837,0.0976,-0.0064,-0.0011,-0.0046,-35.475,-25.275,-7.05,,adl
9.701276,-0.002,0.1096,0.0905,-0.0064,-0.0011,-0.0046,-35.475,-25.275,-7.05,,adl
9.712544,-0.002,0.1096,0.0905,-0.0064,-0.0011,-0.0046,-35.475,-25.275,-6.75,,adl
9.720503,-0.002,0.1096,0.0905,-0.0064,-0.0011,-0.0046,-35.475,-25.275,-6.75,,adl
9.723827,-0.0064,0.0756,0.0973,-0.0064,-0.0011,-0.0046,-35.475,-25.275,-6.75,,adl
9.744101,-0.0064,0.0756,0.0973,-0.0064,-0.0011,-0.0046,-35.475,-25.275,-6.75,,adl
9.748146,-0.0144,0.0052,0.1793,-0.0064,-0.0011,-0.0046,-35.475,-25.275,-6.75,,adl
9.759113,-0.0144,0.0052,0.1793,-0.0147,0.0014,-0.0026,-35.475,-25.275,-6.75,,adl
9.764067,-0.0144,0.0052,0.1793,-0.0147,0.0014,-0.0026,-35.475,-25.275,-6.75,,adl
9.766606,-0.0101,-0.0303,0.133,-0.0147,0.0014,-0.0026,-35.475,-25.275,-6.75,,adl
9.782802,-0.0101,-0.0303,0.133,-0.0147,0.0014,-0.0026,-35.475,-25.275,-6.75,,adl
9.785206,-0.0162,0.001,0.0515,-0.0147,0.0014,-0.0026,-35.475,-25.275,-6.75,,adl
9.792675,-0.0162,0.001,0.0515,-0.0147,0.0014,-0.0026,-35.55,-24.225,-7.125,,adl
9.802675,-0.0162,0.001,0.0515,-0.0147,0.0014,-0.0026,-35.55,-24.225,-7.125,,adl
9.804723,-0.0332,0.0261,0.141,-0.0147,0.0014,-0.0026,-35.55,-24.225,-7.125,,adl
9.822169,-0.0332,0.0261,0.141,-0.0147,0.0014,-0.0026,-35.55,-24.225,-7.125,,adl
9.827677,-0.0145,0.0313,0.2219,-0.0147,0.0014,-0.0026,-35.55,-24.225,-7.125,,adl
9.83014,-0.0145,0.0313,0.2219,-0.0,0.004,-0.0063,-35.55,-24.225,-7.125,,adl
9.841839,-0.0145,0.0313,0.2219,-0.0,0.004,-0.0063,-35.55,-24.225,-7.125,,adl
9.844084,-0.0267,0.0306,0.1938,-0.0,0.004,-0.0063,-35.55,-24.225,-7.125,,adl
9.854158,-0.0267,0.0306,0.1938,-0.0,0.004,-0.0063,-35.325,-25.875,-7.275,,adl
9.860984,-0.0267,0.0306,0.1938,-0.0,0.004,-0.0063,-35.325,-25.875,-7.275,,adl
9.86271,-0.0412,-0.0038,0.1507,-0.0,0.004,-0.0063,-35.325,-25.875,-7.275,,adl
9.880371,-0.0412,-0.0038,0.1507,-0.0,0.004,-0.0063,-35.325,-25.875,-7.275,,adl
9.882817,-0.0548,-0.0142,0.1247,-0.0,0.004,-0.0063,-35.325,-25.875,-7.275,,adl
9.894927,-0.0548,-0.0142,0.1247,0.0139,0.0166,-0.0009,-35.325,-25.875,-7.275,,adl
9.900329,-0.0548,-0.0142,0.1247,0.0139,0.0166,-0.0009,-35.325,-25.875,-7.275,,adl
9.901887,-0.0189,0.0145,0.0583,0.0139,0.0166,-0.0009,-35.325,-25.875,-7.275,,adl
9.921147,-0.0189,0.0145,0.0583,0.0139,0.0166,-0.0009,-35.325,-25.875,-7.275,,adl
9.923348,-0.019,0.0354,0.0479,0.0139,0.0166,-0.0009,-35.325,-25.875,-7.275,,adl
9.924617,-0.019,0.0354,0.0479,0.0139,0.0166,-0.0009,-35.475,-25.575,-7.05,,adl
9.939976,-0.019,0.0354,0.0479,0.0139,0.0166,-0.0009,-35.475,-25.575,-7.05,,adl
9.943968,-0.0273,0.0369,0.1076,0.0139,0.0166,-0.0009,-35.475,-25.575,-7.05,,adl
9.959612,-0.0273,0.0369,0.1076,0.0139,0.0166,-0.0009,-35.475,-25.575,-7.05,,adl
9.962436,-0.017,0.0323,0.1588,0.0139,0.0166,-0.0009,-35.475,-25.575,-7.05,,adl
9.964343,-0.017,0.0323,0.1588,-0.0032,0.0029,-0.0035,-35.475,-25.575,-7.05,,adl
9.973619,-0.017,0.0323,0.1588,-0.0032,0.0029,-0.0035,-35.475,-25.575,-7.05,,adl
9.975808,-0.0213,0.0157,0.1372,-0.0032,0.0029,-0.0035,-35.475,-25.575,-7.05,,adl
9.993975,-0.0213,0.0157,0.1372,-0.0032,0.0029,-0.0035,-35.85,-25.575,-7.125,,adl
9.997848,-0.0213,0.0157,0.1372,-0.0032,0.0029,-0.0035,-35.85,-25.575,-7.125,,adl
9.999819,-0.0182,0.012,0.121,-0.0032,0.0029,-0.0035,-35.85,-25.575,-7.125,,adl
10.022381,-0.0182,0.012,0.121,-0.0032,0.0029,-0.0035,-35.85,-25.575,-7.125,,adl
10.026652,-0.0063,0.0104,0.1359,-0.0032,0.0029,-0.0035,-35.85,-25.575,-7.125,,adl
10.03776,-0.0063,0.0104,0.1359,-0.0011,-0.0002,-0.0052,-35.85,-25.575,-7.125,,adl
10.042082,-0.0063,0.0104,0.1359,-0.0011,-0.0002,-0.0052,-35.85,-25.575,-7.125,,adl
10.044593,0.0023,0.0181,0.146,-0.0011,-0.0002,-0.0052,-35.85,-25.575,-7.125,,adl
10.061771,0.0023,0.0181,0.146,-0.0011,-0.0002,-0.0052,-35.85,-25.575,-7.125,,adl
10.064086,-0.0045,0.0058,0.1329,-0.0011,-0.0002,-0.0052,-35.85,-25.575,-7.125,,adl
10.066088,-0.0045,0.0058,0.1329,-0.0011,-0.0002,-0.0052,-35.025,-25.575,-7.275,,adl
10.081101,-0.0045,0.0058,0.1329,-0.0011,-0.0002,-0.0052,-35.025,-25.575,-7.275,,adl
10.084303,-0.0175,0.0191,0.1289,-0.0011,-0.0002,-0.0052,-35.025,-25.575,-7.275,,adl
10.100926,-0.0175,0.0191,0.1289,-0.0011,-0.0002,-0.0052,-35.025,-25.575,-7.275,,adl
10.104746,-0.0203,0.0303,0.1159,-0.0011,-0.0002,-0.0052,-35.025,-25.575,-7.275,,adl
10.107597,-0.0203,0.0303,0.1159,0.0055,0.0003,-0.002,-35.025,-25.575,-7.275,,adl
10.120922,-0.0203,0.0303,0.1159,0.0055,0.0003,-0.002,-35.025,-25.575,-7.275,,adl
10.124805,-0.0266,0.0398,0.1047,0.0055,0.0003,-0.002,-35.025,-25.575,-7.275,,adl
10.132965,-0.0266,0.0398,0.1047,0.0055,0.0003,-0.002,-35.175,-25.05,-7.65,,adl
10.140394,-0.0266,0.0398,0.1047,0.0055,0.0003,-0.002,-35.175,-25.05,-7.65,,adl
10.142836,-0.0265,0.0455,0.1047,0.0055,0.0003,-0.002,-35.175,-25.05,-7.65,,adl
10.159511,-0.0265,0.0455,0.1047,0.0055,0.0003,-0.002,-35.175,-25.05,-7.65,,adl
10.161848,-0.0254,0.022,0.1124,0.0055,0.0003,-0.002,-35.175,-25.05,-7.65,,adl
10.173889,-0.0254,0.022,0.1124,-0.0014,-0.0043,-0.0063,-35.175,-25.05,-7.65,,adl
10.176716,-0.0254,0.022,0.1124,-0.0014,-0.0043,-0.0063,-35.175,-25.05,-7.65,,adl
10.178346,-0.0258,-0.0015,0.1242,-0.0014,-0.0043,-0.0063,-35.175,-25.05,-7.65,,adl
10.198301,-0.0258,-0.0015,0.1242,-0.0014,-0.0043,-0.0063,-35.175,-25.05,-7.65,,adl
10.201099,-0.0228,-0.0069,0.1299,-0.0014,-0.0043,-0.0063,-35.175,-25.05,-7.65,,adl
10.202721,-0.0228,-0.0069,0.1299,-0.0014,-0.0043,-0.0063,-35.55,-25.575,-7.35,,adl
10.218052,-0.0228,-0.0069,0.1299,-0.0014,-0.0043,-0.0063,-35.55,-25.575,-7.35,,adl
10.22064,-0.0316,0.0054,0.1416,-0.0014,-0.0043,-0.0063,-35.55,-25.575,-7.35,,adl
10.24285,-0.0316,0.0054,0.1416,-0.0014,-0.0043,-0.0063,-35.55,-25.575,-7.35,,adl
10.247536,-0.0319,0.0083,0.1396,-0.0014,-0.0043,-0.0063,-35.55,-25.575,-7.35,,adl
10.251562,-0.0319,0.0083,0.1396,-0.0055,-0.0031,-0.0044,-35.55,-25.575,-7.35,,adl
10.257049,-0.0319,0.0083,0.1396,-0.0055,-0.0031,-0.0044,-35.55,-25.575,-7.35,,adl
10.259056,-0.0258,0.0206,0.1336,-0.0055,-0.0031,-0.0044,-35.55,-25.575,-7.35,,adl
10.27306,-0.0258,0.0206,0.1336,-0.0055,-0.0031,-0.0044,-35.85,-25.875,-7.425,,adl
10.276333,-0.0258,0.0206,0.1336,-0.0055,-0.0031,-0.0044,-35.85,-25.875,-7.425,,adl
10.27777,-0.0059,0.016,0.1115,-0.0055,-0.0031,-0.0044,-35.85,-25.875,-7.425,,adl
10.296416,-0.0059,0.016,0.1115,-0.0055,-0.0031,-0.0044,-35.85,-25.875,-7.425,,adl
10.298661,-0.0106,0.0343,0.093,-0.0055,-0.0031,-0.0044,-35.85,-25.875,-7.425,,adl
10.31057,-0.0106,0.0343,0.093,-0.0052,0.006,-0.0009,-35.85,-25.875,-7.425,,adl
10.315636,-0.0106,0.0343,0.093,-0.0052,0.006,-0.0009,-35.85,-25.875,-7.425,,adl
10.317417,-0.0151,0.0388,0.1369,-0.0052,0.006,-0.0009,-35.85,-25.875,-7.425,,adl
10.336498,-0.0151,0.0388,0.1369,-0.0052,0.006,-0.0009,-35.85,-25.875,-7.425,,adl
10.338754,-0.0276,0.021,0.1868,-0.0052,0.006,-0.0009,-35.85,-25.875,-7.425,,adl
10.342618,-0.0276,0.021,0.1868,-0.0052,0.006,-0.0009,-34.725,-26.625,-7.425,,adl
10.359783,-0.0276,0.021,0.1868,-0.0052,0.006,-0.0009,-34.725,-26.625,-7.425,,adl
10.3616,-0.019,0.0087,0.1449,-0.0052,0.006,-0.0009,-34.725,-26.625,-7.425,,adl
10.374538,-0.019,0.0087,0.1449,-0.0052,0.006,-0.0009,-34.725,-26.625,-7.425,,adl
10.377562,-0.0249,0.0003,0.1258,-0.0052,0.006,-0.0009,-34.725,-26.625,-7.425,,adl
10.384093,-0.0249,0.0003,0.1258,-0.0008,-0.004,-0.0018,-34.725,-26.625,-7.425,,adl
10.39889,-0.0249,0.0003,0.1258,-0.0008,-0.004,-0.0018,-34.725,-26.625,-7.425,,adl
10.401451,-0.0167,-0.0021,0.0829,-0.0008,-0.004,-0.0018,-34.725,-26.625,-7.425,,adl
10.413084,-0.0167,-0.0021,0.0829,-0.0008,-0.004,-0.0018,-35.625,-25.125,-7.575,,adl
10.419839,-0.0167,-0.0021,0.0829,-0.0008,-0.004,-0.0018,-35.625,-25.125,-7.575,,adl
10.422072,-0.0303,0.0382,0.1756,-0.0008,-0.004,-0.0018,-35.625,-25.125,-7.575,,adl
10.440965,-0.0303,0.0382,0.1756,-0.0008,-0.004,-0.0018,-35.625,-25.125,-7.575,,adl
10.443699,-0.0236,0.0347,0.184,-0.0008,-0.004,-0.0018,-35.625,-25.125,-7.575,,adl
10.457318,-0.0236,0.0347,0.184,0.0237,0.0174,0.0044,-35.625,-25.125,-7.575,,adl
10.458992,-0.0236,0.0347,0.184,0.0237,0.0174,0.0044,-35.625,-25.125,-7.575,,adl
10.459987,-0.0004,0.0663,0.0799,0.0237,0.0174,0.0044,-35.625,-25.125,-7.575,,adl
10.473708,-0.0004,0.0663,0.0799,0.0237,0.0174,0.0044,-35.625,-25.125,-7.575,,adl
10.47534,-0.026,0.0333,0.1914,0.0237,0.0174,0.0044,-35.625,-25.125,-7.575,,adl
10.482677,-0.026,0.0333,0.1914,0.0237,0.0174,0.0044,-35.85,-25.275,-7.35,,adl
10.497732,-0.026,0.0333,0.1914,0.0237,0.0174,0.0044,-35.85,-25.275,-7.35,,adl
10.501324,-0.0166,-0.0275,0.3184,0.0237,0.0174,0.0044,-35.85,-25.275,-7.35,,adl
10.517192,-0.0166,-0.0275,0.3184,0.0237,0.0174,0.0044,-35.85,-25.275,-7.35,,adl
10.519605,-0.0436,-0.043,0.2456,0.0237,0.0174,0.0044,-35.85,-25.275,-7.35,,adl
10.522807,-0.0436,-0.043,0.2456,0.0553,-0.0113,0.0006,-35.85,-25.275,-7.35,,adl
10.540311,-0.0436,-0.043,0.2456,0.0553,-0.0113,0.0006,-35.85,-25.275,-7.35,,adl
10.542538,-0.0498,-0.0622,0.1577,0.0553,-0.0113,0.0006,-35.85,-25.275,-7.35,,adl
10.553319,-0.0498,-0.0622,0.1577,0.0553,-0.0113,0.0006,-35.85,-25.275,-7.35,,adl
10.554815,-0.0535,-0.0393,0.1113,0.0553,-0.0113,0.0006,-35.85,-25.275,-7.35,,adl
10.556064,-0.0535,-0.0393,0.1113,0.0553,-0.0113,0.0006,-35.775,-25.725,-7.65,,adl
10.574094,-0.0535,-0.0393,0.1113,0.0553,-0.0113,0.0006,-35.775,-25.725,-7.65,,adl
10.575586,-0.037,-0.0007,0.0536,0.0553,-0.0113,0.0006,-35.775,-25.725,-7.65,,adl
10.589809,-0.037,-0.0007,0.0536,0.0768,-0.0195,0.0018,-35.775,-25.725,-7.65,,adl
10.594868,-0.037,-0.0007,0.0536,0.0768,-0.0195,0.0018,-35.775,-25.725,-7.65,,adl
10.596367,0.0096,0.0343,0.0233,0.0768,-0.0195,0.0018,-35.775,-25.725,-7.65,,adl
10.614813,0.0096,0.0343,0.0233,0.0768,-0.0195,0.0018,-35.775,-25.725,-7.65,,adl
10.61742,0.0372,0.0786,0.0736,0.0768,-0.0195,0.0018,-35.775,-25.725,-7.65,,adl
10.623105,0.0372,0.0786,0.0736,0.0768,-0.0195,0.0018,-35.55,-25.65,-7.05,,adl
10.639769,0.0372,0.0786,0.0736,0.0768,-0.0195,0.0018,-35.55,-25.65,-7.05,,adl
10.642316,0.012,0.0996,0.1093,0.0768,-0.0195,0.0018,-35.55,-25.65,-7.05,,adl
10.658711,0.012,0.0996,0.1093,0.0768,-0.0195,0.0018,-35.55,-25.65,-7.05,,adl
10.662211,-0.0301,0.0784,0.0872,0.0768,-0.0195,0.0018,-35.55,-25.65,-7.05,,adl
10.665484,-0.0301,0.0784,0.0872,0.0296,-0.0089,0.004,-35.55,-25.65,-7.05,,adl
10.676569,-0.0301,0.0784,0.0872,0.0296,-0.0089,0.004,-35.55,-25.65,-7.05,,adl
10.678831,-0.0399,0.0212,0.0982,0.0296,-0.0089,0.004,-35.55,-25.65,-7.05,,adl
10.687814,-0.0399,0.0212,0.0982,0.0296,-0.0089,0.004,-36.0,-25.725,-6.225,,adl
10.697356,-0.0399,0.0212,0.0982,0.0296,-0.0089,0.004,-36.0,-25.725,-6.225,,adl
10.699708,-0.0279,-0.0258,0.184,0.0296,-0.0089,0.004,-36.0,-25.725,-6.225,,adl
10.71671,-0.0279,-0.0258,0.184,0.0296,-0.0089,0.004,-36.0,-25.725,-6.225,,adl
10.719121,-0.0052,-0.062,0.2544,0.0296,-0.0089,0.004,-36.0,-25.725,-6.225,,adl
10.731411,-0.0052,-0.062,0.2544,0.0072,-0.0024,-0.0017,-36.0,-25.725,-6.225,,adl
10.736818,-0.0052,-0.062,0.2544,0.0072,-0.0024,-0.0017,-36.0,-25.725,-6.225,,adl
10.739105,-0.0076,-0.0524,0.1145,0.0072,-0.0024,-0.0017,-36.0,-25.725,-6.225,,adl
10.75659,-0.0076,-0.0524,0.1145,0.0072,-0.0024,-0.0017,-36.0,-25.725,-6.225,,adl
10.759957,-0.0405,0.0035,0.0335,0.0072,-0.0024,-0.0017,-36.0,-25.725,-6.225,,adl
10.761384,-0.0405,0.0035,0.0335,0.0072,-0.0024,-0.0017,-35.25,-25.275,-7.275,,adl
10.773919,-0.0405,0.0035,0.0335,0.0072,-0.0024,-0.0017,-35.25,-25.275,-7.275,,adl
10.777141,-0.0618,0.0263,0.1436,0.0072,-0.0024,-0.0017,-35.25,-25.275,-7.275,,adl
10.795181,-0.0618,0.0263,0.1436,0.0072,-0.0024,-0.0017,-35.25,-25.275,-7.275,,adl
10.79615,-0.0508,0.0389,0.2002,0.0072,-0.0024,-0.0017,-35.25,-25.275,-7.275,,adl
10.799856,-0.0508,0.0389,0.2002,0.0104,0.0023,-0.0055,-35.25,-25.275,-7.275,,adl
10.815001,-0.0508,0.0389,0.2002,0.0104,0.0023,-0.0055,-35.25,-25.275,-7.275,,adl
10.817513,-0.0476,0.0407,0.1362,0.0104,0.0023,-0.0055,-35.25,-25.275,-7.275,,adl
10.824619,-0.0476,0.0407,0.1362,0.0104,0.0023,-0.0055,-35.475,-25.575,-6.675,,adl
10.834452,-0.0476,0.0407,0.1362,0.0104,0.0023,-0.0055,-35.475,-25.575,-6.675,,adl
10.83582,-0.0377,0.0325,0.1286,0.0104,0.0023,-0.0055,-35.475,-25.575,-6.675,,adl
10.854601,-0.0377,0.0325,0.1286,0.0104,0.0023,-0.0055,-35.475,-25.575,-6.675,,adl
10.856434,-0.0206,0.0435,0.1301,0.0104,0.0023,-0.0055,-35.475,-25.575,-6.675,,adl
10.868681,-0.0206,0.0435,0.1301,0.0067,0.0095,0.0041,-35.475,-25.575,-6.675,,adl
10.874085,-0.0206,0.0435,0.1301,0.0067,0.0095,0.0041,-35.475,-25.575,-6.675,,adl
10.87583,0.0045,0.0275,0.0731,0.0067,0.0095,0.0041,-35.475,-25.575,-6.675,,adl
10.898441,0.0045,0.0275,0.0731,0.0067,0.0095,0.0041,-35.475,-25.575,-6.675,,adl
10.902976,-0.0044,0.0234,0.1133,0.0067,0.0095,0.0041,-35.475,-25.575,-6.675,,adl
10.906675,-0.0044,0.0234,0.1133,0.0067,0.0095,0.0041,-35.4,-26.025,-7.05,,adl
10.91882,-0.0044,0.0234,0.1133,0.0067,0.0095,0.0041,-35.4,-26.025,-7.05,,adl
10.921146,-0.0199,0.0203,0.1863,0.0067,0.0095,0.0041,-35.4,-26.025,-7.05,,adl
10.936755,-0.0199,0.0203,0.1863,0.0067,0.0095,0.0041,-35.4,-26.025,-7.05,,adl
10.938984,-0.02,0.0122,0.1628,0.0067,0.0095,0.0041,-35.4,-26.025,-7.05,,adl
10.941211,-0.02,0.0122,0.1628,0.0104,-0.0061,0.0009,-35.4,-26.025,-7.05,,adl
10.957729,-0.02,0.0122,0.1628,0.0104,-0.0061,0.0009,-35.4,-26.025,-7.05,,adl
10.960273,-0.0106,0.0169,0.1233,0.0104,-0.0061,0.0009,-35.4,-26.025,-7.05,,adl
10.966445,-0.0106,0.0169,0.1233,0.0104,-0.0061,0.0009,-35.55,-25.95,-6.75,,adl
10.974009,-0.0106,0.0169,0.1233,0.0104,-0.0061,0.0009,-35.55,-25.95,-6.75,,adl
10.976347,-0.0021,0.0108,0.1134,0.0104,-0.0061,0.0009,-35.55,-25.95,-6.75,,adl
10.996576,-0.0021,0.0108,0.1134,0.0104,-0.0061,0.0009,-35.55,-25.95,-6.75,,adl
10.999996,0.0003,0.0111,0.1376,0.0104,-0.0061,0.0009,-35.55,-25.95,-6.75,,adl
11.010392,0.0003,0.0111,0.1376,0.0139,-0.0058,-0.0003,-35.55,-25.95,-6.75,,adl
11.015589,0.0003,0.0111,0.1376,0.0139,-0.0058,-0.0003,-35.55,-25.95,-6.75,,adl
11.017137,-0.0187,0.0175,0.1348,0.0139,-0.0058,-0.0003,-35.55,-25.95,-6.75,,adl
11.03572,-0.0187,0.0175,0.1348,0.0139,-0.0058,-0.0003,-35.025,-25.65,-6.675,,adl
11.038433,-0.0187,0.0175,0.1348,0.0139,-0.0058,-0.0003,-35.025,-25.65,-6.675,,adl
11.040418,-0.0633,0.0166,0.1322,0.0139,-0.0058,-0.0003,-35.025,-25.65,-6.675,,adl
11.054848,-0.0633,0.0166,0.1322,0.0139,-0.0058,-0.0003,-35.025,-25.65,-6.675,,adl
11.057705,-0.0668,0.0355,0.1283,0.0139,-0.0058,-0.0003,-35.025,-25.65,-6.675,,adl
11.073911,-0.0668,0.0355,0.1283,0.0139,-0.0058,-0.0003,-35.025,-25.65,-6.675,,adl
11.076614,-0.0442,0.0675,0.0933,0.0139,-0.0058,-0.0003,-35.025,-25.65,-6.675,,adl
11.078378,-0.0442,0.0675,0.0933,0.0073,-0.0047,0.0026,-35.025,-25.65,-6.675,,adl
11.093338,-0.0442,0.0675,0.0933,0.0073,-0.0047,0.0026,-35.025,-25.65,-6.675,,adl
11.095878,-0.0184,0.069,0.0743,0.0073,-0.0047,0.0026,-35.025,-25.65,-6.675,,adl
11.104242,-0.0184,0.069,0.0743,0.0073,-0.0047,0.0026,-35.85,-25.575,-6.675,,adl
11.112462,-0.0184,0.069,0.0743,0.0073,-0.0047,0.0026,-35.85,-25.575,-6.675,,adl
11.113936,-0.0077,0.0509,0.0777,0.0073,-0.0047,0.0026,-35.85,-25.575,-6.675,,adl
11.132353,-0.0077,0.0509,0.0777,0.0073,-0.0047,0.0026,-35.85,-25.575,-6.675,,adl
11.134938,-0.0115,0.0331,0.0251,0.0073,-0.0047,0.0026,-35.85,-25.575,-6.675,,adl
11.147655,-0.0115,0.0331,0.0251,-0.0093,0.0005,-0.0017,-35.85,-25.575,-6.675,,adl
11.154615,-0.0115,0.0331,0.0251,-0.0093,0.0005,-0.0017,-35.85,-25.575,-6.675,,adl
11.157242,-0.0025,0.0375,-0.0144,-0.0093,0.0005,-0.0017,-35.85,-25.575,-6.675,,adl
11.176175,-0.0025,0.0375,-0.0144,-0.0093,0.0005,-0.0017,-35.85,-25.575,-6.675,,adl
11.178198,0.0002,0.038,0.0527,-0.0093,0.0005,-0.0017,-35.85,-25.575,-6.675,,adl
11.179515,0.0002,0.038,0.0527,-0.0093,0.0005,-0.0017,-36.3,-25.35,-6.45,,adl
11.196773,0.0002,0.038,0.0527,-0.0093,0.0005,-0.0017,-36.3,-25.35,-6.45,,adl
11.198791,-0.0092,0.0146,0.1639,-0.0093,0.0005,-0.0017,-36.3,-25.35,-6.45,,adl
11.215747,-0.0092,0.0146,0.1639,-0.0093,0.0005,-0.0017,-36.3,-25.35,-6.45,,adl
11.218253,-0.0265,-0.0233,0.1986,-0.0093,0.0005,-0.0017,-36.3,-25.35,-6.45,,adl
11.225927,-0.0265,-0.0233,0.1986,-0.0675,-0.0046,-0.0079,-36.3,-25.35,-6.45,,adl
11.235823,-0.0265,-0.0233,0.1986,-0.0675,-0.0046,-0.0079,-36.3,-25.35,-6.45,,adl
11.238555,-0.0126,-0.0259,0.1353,-0.0675,-0.0046,-0.0079,-36.3,-25.35,-6.45,,adl
11.245376,-0.0126,-0.0259,0.1353,-0.0675,-0.0046,-0.0079,-36.15,-25.95,-6.525,,adl
11.255903,-0.0126,-0.0259,0.1353,-0.0675,-0.0046,-0.0079,-36.15,-25.95,-6.525,,adl
11.258588,-0.0081,-0.0152,0.1658,-0.0675,-0.0046,-0.0079,-36.15,-25.95,-6.525,,adl
11.274404,-0.0081,-0.0152,0.1658,-0.0675,-0.0046,-0.0079,-36.15,-25.95,-6.525,,adl
11.277292,-0.0177,-0.0167,0.1386,-0.0675,-0.0046,-0.0079,-36.15,-25.95,-6.525,,adl
11.288765,-0.0177,-0.0167,0.1386,-0.0644,-0.0099,-0.0087,-36.15,-25.95,-6.525,,adl
11.293737,-0.0177,-0.0167,0.1386,-0.0644,-0.0099,-0.0087,-36.15,-25.95,-6.525,,adl
11.295794,-0.0297,0.0417,0.1736,-0.0644,-0.0099,-0.0087,-36.15,-25.95,-6.525,,adl
11.313063,-0.0297,0.0417,0.1736,-0.0644,-0.0099,-0.0087,-36.15,-25.95,-6.525,,adl
11.314992,-0.0299,0.0544,0.1694,-0.0644,-0.0099,-0.0087,-36.15,-25.95,-6.525,,adl
11.316727,-0.0299,0.0544,0.1694,-0.0644,-0.0099,-0.0087,-35.1,-25.575,-6.975,,adl
11.332799,-0.0299,0.0544,0.1694,-0.0644,-0.0099,-0.0087,-35.1,-25.575,-6.975,,adl
11.335892,0.0016,0.092,0.1212,-0.0644,-0.0099,-0.0087,-35.1,-25.575,-6.975,,adl
11.35299,0.0016,0.092,0.1212,-0.0644,-0.0099,-0.0087,-35.1,-25.575,-6.975,,adl
11.356219,-0.0061,0.0726,0.097,-0.0644,-0.0099,-0.0087,-35.1,-25.575,-6.975,,adl
11.358522,-0.0061,0.0726,0.097,-0.0228,0.0118,-0.0043,-35.1,-25.575,-6.975,,adl
11.376771,-0.0061,0.0726,0.097,-0.0228,0.0118,-0.0043,-35.1,-25.575,-6.975,,adl
11.379469,-0.038,0.0376,0.1768,-0.0228,0.0118,-0.0043,-35.1,-25.575,-6.975,,adl
11.382664,-0.038,0.0376,0.1768,-0.0228,0.0118,-0.0043,-35.175,-25.425,-6.75,,adl
11.392009,-0.038,0.0376,0.1768,-0.0228,0.0118,-0.0043,-35.175,-25.425,-6.75,,adl
11.394674,-0.0781,-0.0074,0.244,-0.0228,0.0118,-0.0043,-35.175,-25.425,-6.75,,adl
11.411655,-0.0781,-0.0074,0.244,-0.0228,0.0118,-0.0043,-35.175,-25.425,-6.75,,adl
11.413921,-0.0865,-0.0394,0.1952,-0.0228,0.0118,-0.0043,-35.175,-25.425,-6.75,,adl
11.42593,-0.0865,-0.0394,0.1952,-0.0073,-0.009,0.0053,-35.175,-25.425,-6.75,,adl
11.430463,-0.0865,-0.0394,0.1952,-0.0073,-0.009,0.0053,-35.175,-25.425,-6.75,,adl
11.43226,-0.0552,-0.0428,0.0824,-0.0073,-0.009,0.0053,-35.175,-25.425,-6.75,,adl
11.450324,-0.0552,-0.0428,0.0824,-0.0073,-0.009,0.0053,-35.175,-25.425,-6.75,,adl
11.453565,-0.0175,-0.0144,0.0506,-0.0073,-0.009,0.0053,-35.175,-25.425,-6.75,,adl
11.456222,-0.0175,-0.0144,0.0506,-0.0073,-0.009,0.0053,-35.1,-25.65,-6.45,,adl
11.470502,-0.0175,-0.0144,0.0506,-0.0073,-0.009,0.0053,-35.1,-25.65,-6.45,,adl
11.474272,0.0208,0.0304,0.0774,-0.0073,-0.009,0.0053,-35.1,-25.65,-6.45,,adl
11.497129,0.0208,0.0304,0.0774,-0.0073,-0.009,0.0053,-35.1,-25.65,-6.45,,adl
11.500552,0.0185,0.0604,0.1248,-0.0073,-0.009,0.0053,-35.1,-25.65,-6.45,,adl
11.50352,0.0185,0.0604,0.1248,-0.0165,-0.0148,0.0035,-35.1,-25.65,-6.45,,adl
11.515133,0.0185,0.0604,0.1248,-0.0165,-0.0148,0.0035,-35.1,-25.65,-6.45,,adl
11.518577,-0.0097,0.0794,0.109,-0.0165,-0.0148,0.0035,-35.1,-25.65,-6.45,,adl
11.532881,-0.0097,0.0794,0.109,-0.0165,-0.0148,0.0035,-35.1,-25.425,-6.525,,adl
11.535352,-0.0097,0.0794,0.109,-0.0165,-0.0148,0.0035,-35.1,-25.425,-6.525,,adl
11.536738,-0.0327,0.0663,0.1021,-0.0165,-0.0148,0.0035,-35.1,-25.425,-6.525,,adl
11.552983,-0.0327,0.0663,0.1021,-0.0165,-0.0148,0.0035,-35.1,-25.425,-6.525,,adl
11.557572,-0.0162,0.0323,0.1017,-0.0165,-0.0148,0.0035,-35.1,-25.425,-6.525,,adl
11.569813,-0.0162,0.0323,0.1017,-0.0134,-0.0038,-0.0038,-35.1,-25.425,-6.525,,adl
11.573346,-0.0162,0.0323,0.1017,-0.0134,-0.0038,-0.0038,-35.1,-25.425,-6.525,,adl
11.575055,-0.0051,0.0122,0.1181,-0.0134,-0.0038,-0.0038,-35.1,-25.425,-6.525,,adl
11.592531,-0.0051,0.0122,0.1181,-0.0134,-0.0038,-0.0038,-35.1,-25.425,-6.525,,adl
11.595023,0.0044,-0.0055,0.2131,-0.0134,-0.0038,-0.0038,-35.1,-25.425,-6.525,,adl
11.597176,0.0044,-0.0055,0.2131,-0.0134,-0.0038,-0.0038,-35.55,-25.575,-6.15,,adl
11.611718,0.0044,-0.0055,0.2131,-0.0134,-0.0038,-0.0038,-35.55,-25.575,-6.15,,adl
11.614047,0.004,-0.0159,0.1832,-0.0134,-0.0038,-0.0038,-35.55,-25.575,-6.15,,adl
11.631641,0.004,-0.0159,0.1832,-0.0134,-0.0038,-0.0038,-35.55,-25.575,-6.15,,adl
11.634987,-0.0353,0.001,0.0295,-0.0134,-0.0038,-0.0038,-35.55,-25.575,-6.15,,adl
11.645512,-0.0353,0.001,0.0295,0.0055,-0.0082,-0.009,-35.55,-25.575,-6.15,,adl
11.65353,-0.0353,0.001,0.0295,0.0055,-0.0082,-0.009,-35.55,-25.575,-6.15,,adl
11.656802,-0.0494,0.029,0.0463,0.0055,-0.0082,-0.009,-35.55,-25.575,-6.15,,adl
11.662566,-0.0494,0.029,0.0463,0.0055,-0.0082,-0.009,-35.4,-25.575,-6.45,,adl
11.670342,-0.0494,0.029,0.0463,0.0055,-0.0082,-0.009,-35.4,-25.575,-6.45,,adl
11.672688,-0.0323,0.0236,0.1581,0.0055,-0.0082,-0.009,-35.4,-25.575,-6.45,,adl
11.690327,-0.0323,0.0236,0.1581,0.0055,-0.0082,-0.009,-35.4,-25.575,-6.45,,adl
11.69353,-0.013,0.007,0.1909,0.0055,-0.0082,-0.009,-35.4,-25.575,-6.45,,adl
