time,ax,ay,az,wx,wy,wz,Bx,By,Bz,Unnamed: 10,label
0.038206,0.0,0.0,0.0,0.0,0.0,0.0,0.0,0.0,0.0,,adl
0.069968,0.0,0.0,0.0,0.0,0.0,0.0,0.0,0.0,0.0,,adl
0.071532,0.0,0.0,0.0,0.0,0.0,0.0,-35.175,-22.725,-8.925,,adl
0.085939,0.0,0.0,0.0,0.0,0.0,0.0,-35.175,-22.725,-8.925,,adl
0.087091,0.0165,0.0367,0.1364,0.0,0.0,0.0,-35.175,-22.725,-8.925,,adl
0.108255,0.0165,0.0367,0.1364,0.0,0.0,0.0,-35.175,-22.725,-8.925,,adl
0.109272,-0.0095,0.0387,0.1383,0.0,0.0,0.0,-35.175,-22.725,-8.925,,adl
0.113056,-0.0095,0.0387,0.1383,-0.0075,0.0032,0.0003,-35.175,-22.725,-8.925,,adl
0.126925,-0.0095,0.0387,0.1383,-0.0075,0.0032,0.0003,-35.175,-22.725,-8.925,,adl
0.12828,-0.0507,0.0562,0.0787,-0.0075,0.0032,0.0003,-35.175,-22.725,-8.925,,adl
0.140187,-0.0507,0.0562,0.0787,-0.0075,0.0032,0.0003,-36.9,-22.65,-8.25,,adl
0.146564,-0.0507,0.0562,0.0787,-0.0075,0.0032,0.0003,-36.9,-22.65,-8.25,,adl
0.147644,-0.038,0.0507,0.2013,-0.0075,0.0032,0.0003,-36.9,-22.65,-8.25,,adl
0.167365,-0.038,0.0507,0.2013,-0.0075,0.0032,0.0003,-36.9,-22.65,-8.25,,adl
0.169089,-0.0224,0.0536,0.2891,-0.0075,0.0032,0.0003,-36.9,-22.65,-8.25,,adl
0.18077,-0.0224,0.0536,0.2891,-0.015,0.0111,-0.0055,-36.9,-22.65,-8.25,,adl
0.190598,-0.0224,0.0536,0.2891,-0.015,0.0111,-0.0055,-36.9,-22.65,-8.25,,adl
0.191909,-0.0058,0.0347,0.2274,-0.015,0.0111,-0.0055,-36.9,-22.65,-8.25,,adl
0.205877,-0.0058,0.0347,0.2274,-0.015,0.0111,-0.0055,-36.9,-22.65,-8.25,,adl
0.207127,-0.0077,0.0331,0.1333,-0.015,0.0111,-0.0055,-36.9,-22.65,-8.25,,adl
0.210797,-0.0077,0.0331,0.1333,-0.015,0.0111,-0.0055,-37.275,-21.975,-8.55,,adl
0.224713,-0.0077,0.0331,0.1333,-0.015,0.0111,-0.0055,-37.275,-21.975,-8.55,,adl
0.225901,-0.0094,0.0316,0.1302,-0.015,0.0111,-0.0055,-37.275,-21.975,-8.55,,adl
0.24479,-0.0094,0.0316,0.1302,-0.015,0.0111,-0.0055,-37.275,-21.975,-8.55,,adl
0.246003,-0.0101,0.0577,0.1576,-0.015,0.0111,-0.0055,-37.275,-21.975,-8.55,,adl
0.250438,-0.0101,0.0577,0.1576,-0.013,0.0165,-0.0012,-37.275,-21.975,-8.55,,adl
0.26473,-0.0101,0.0577,0.1576,-0.013,0.0165,-0.0012,-37.275,-21.975,-8.55,,adl
0.266792,-0.0052,0.0566,0.153,-0.013,0.0165,-0.0012,-37.275,-21.975,-8.55,,adl
0.281127,-0.0052,0.0566,0.153,-0.013,0.0165,-0.0012,-37.275,-21.975,-8.55,,adl
0.282307,-0.0119,0.0843,0.1819,-0.013,0.0165,-0.0012,-37.275,-21.975,-8.55,,adl
0.284309,-0.0119,0.0843,0.1819,-0.013,0.0165,-0.0012,-36.6,-22.05,-7.725,,adl
0.302494,-0.0119,0.0843,0.1819,-0.013,0.0165,-0.0012,-36.6,-22.05,-7.725,,adl
0.303753,-0.0534,0.1867,0.1633,-0.013,0.0165,-0.0012,-36.6,-22.05,-7.725,,adl
0.317038,-0.0534,0.1867,0.1633,-0.0147,0.002,0.018,-36.6,-22.05,-7.725,,adl
0.322139,-0.0534,0.1867,0.1633,-0.0147,0.002,0.018,-36.6,-22.05,-7.725,,adl
0.323452,0.0176,0.134,0.112,-0.0147,0.002,0.018,-36.6,-22.05,-7.725,,adl
0.346721,0.0176,0.134,0.112,-0.0147,0.002,0.018,-36.6,-22.05,-7.725,,adl
0.347642,0.0605,0.0015,0.1908,-0.0147,0.002,0.018,-36.6,-22.05,-7.725,,adl
0.349731,0.0605,0.0015,0.1908,-0.0147,0.002,0.018,-36.75,-22.35,-8.025,,adl
0.367364,0.0605,0.0015,0.1908,-0.0147,0.002,0.018,-36.75,-22.35,-8.025,,adl
0.368548,0.0692,-0.0934,0.2536,-0.0147,0.002,0.018,-36.75,-22.35,-8.025,,adl
0.386368,0.0692,-0.0934,0.2536,-0.0147,0.002,0.018,-36.75,-22.35,-8.025,,adl
0.388279,0.0537,-0.0946,0.165,-0.0147,0.002,0.018,-36.75,-22.35,-8.025,,adl
0.391788,0.0537,-0.0946,0.165,-0.0006,0.005,-0.0021,-36.75,-22.35,-8.025,,adl
0.40594,0.0537,-0.0946,0.165,-0.0006,0.005,-0.0021,-36.75,-22.35,-8.025,,adl
0.407153,-0.1098,0.0123,0.0841,-0.0006,0.005,-0.0021,-36.75,-22.35,-8.025,,adl
0.420494,-0.1098,0.0123,0.0841,-0.0006,0.005,-0.0021,-36.75,-22.35,-8.025,,adl
0.421838,-0.1217,0.1058,0.1962,-0.0006,0.005,-0.0021,-36.75,-22.35,-8.025,,adl
0.42295,-0.1217,0.1058,0.1962,-0.0006,0.005,-0.0021,-38.175,-22.35,-8.025,,adl
0.445318,-0.1217,0.1058,0.1962,-0.0006,0.005,-0.0021,-38.175,-22.35,-8.025,,adl
0.446785,-0.0082,0.133,0.2219,-0.0006,0.005,-0.0021,-38.175,-22.35,-8.025,,adl
0.460121,-0.0082,0.133,0.2219,-0.0063,-0.0002,-0.014,-38.175,-22.35,-8.025,,adl
0.464214,-0.0082,0.133,0.2219,-0.0063,-0.0002,-0.014,-38.175,-22.35,-8.025,,adl
0.465213,0.0324,0.0923,0.1652,-0.0063,-0.0002,-0.014,-38.175,-22.35,-8.025,,adl
0.48387,0.0324,0.0923,0.1652,-0.0063,-0.0002,-0.014,-38.175,-22.35,-8.025,,adl
0.485057,-0.0001,0.0959,0.1431,-0.0063,-0.0002,-0.014,-38.175,-22.35,-8.025,,adl
0.490854,-0.0001,0.0959,0.1431,-0.0063,-0.0002,-0.014,-37.125,-22.35,-8.175,,adl
0.503191,-0.0001,0.0959,0.1431,-0.0063,-0.0002,-0.014,-37.125,-22.35,-8.175,,adl
0.50449,-0.0231,0.0774,0.1522,-0.0063,-0.0002,-0.014,-37.125,-22.35,-8.175,,adl
0.523855,-0.0231,0.0774,0.1522,-0.0063,-0.0002,-0.014,-37.125,-22.35,-8.175,,adl
0.525092,-0.0166,0.0531,0.1949,-0.0063,-0.0002,-0.014,-37.125,-22.35,-8.175,,adl
0.528605,-0.0166,0.0531,0.1949,0.0024,0.005,-0.0047,-37.125,-22.35,-8.175,,adl
0.543371,-0.0166,0.0531,0.1949,0.0024,0.005,-0.0047,-37.125,-22.35,-8.175,,adl
0.544618,-0.0195,0.0209,0.1797,0.0024,0.005,-0.0047,-37.125,-22.35,-8.175,,adl
0.560632,-0.0195,0.0209,0.1797,0.0024,0.005,-0.0047,-37.125,-22.35,-8.175,,adl
0.561884,-0.0365,0.0101,0.1287,0.0024,0.005,-0.0047,-37.125,-22.35,-8.175,,adl
0.563057,-0.0365,0.0101,0.1287,0.0024,0.005,-0.0047,-37.05,-22.65,-8.475,,adl
0.581766,-0.0365,0.0101,0.1287,0.0024,0.005,-0.0047,-37.05,-22.65,-8.475,,adl
0.583132,-0.0259,0.0222,0.1995,0.0024,0.005,-0.0047,-37.05,-22.65,-8.475,,adl
0.595888,-0.0259,0.0222,0.1995,0.0231,-0.0108,0.0055,-37.05,-22.65,-8.475,,adl
0.604036,-0.0259,0.0222,0.1995,0.0231,-0.0108,0.0055,-37.05,-22.65,-8.475,,adl
0.60519,-0.0426,0.0405,0.1735,0.0231,-0.0108,0.0055,-37.05,-22.65,-8.475,,adl
0.626174,-0.0426,0.0405,0.1735,0.0231,-0.0108,0.0055,-37.05,-22.65,-8.475,,adl
0.627499,-0.0076,0.0143,0.1605,0.0231,-0.0108,0.0055,-37.05,-22.65,-8.475,,adl
0.629563,-0.0076,0.0143,0.1605,0.0231,-0.0108,0.0055,-37.725,-21.975,-8.25,,adl
0.644748,-0.0076,0.0143,0.1605,0.0231,-0.0108,0.0055,-37.725,-21.975,-8.25,,adl
0.646004,-0.016,0.0568,0.197,0.0231,-0.0108,0.0055,-37.725,-21.975,-8.25,,adl
0.665187,-0.016,0.0568,0.197,0.0231,-0.0108,0.0055,-37.725,-21.975,-8.25,,adl
0.667492,-0.0078,0.0536,0.1127,0.0231,-0.0108,0.0055,-37.725,-21.975,-8.25,,adl
0.669076,-0.0078,0.0536,0.1127,0.0168,0.0073,0.0104,-37.725,-21.975,-8.25,,adl
0.685139,-0.0078,0.0536,0.1127,0.0168,0.0073,0.0104,-37.725,-21.975,-8.25,,adl
0.686322,0.005,0.101,0.1282,0.0168,0.0073,0.0104,-37.725,-21.975,-8.25,,adl
0.695137,0.005,0.101,0.1282,0.0168,0.0073,0.0104,-37.5,-21.825,-8.25,,adl
0.704474,0.005,0.101,0.1282,0.0168,0.0073,0.0104,-37.5,-21.825,-8.25,,adl
0.705474,-0.0108,0.0874,0.1763,0.0168,0.0073,0.0104,-37.5,-21.825,-8.25,,adl
0.723931,-0.0108,0.0874,0.1763,0.0168,0.0073,0.0104,-37.5,-21.825,-8.25,,adl
0.725123,-0.0321,0.0358,0.2786,0.0168,0.0073,0.0104,-37.5,-21.825,-8.25,,adl
0.73758,-0.0321,0.0358,0.2786,0.0247,-0.0284,0.002,-37.5,-21.825,-8.25,,adl
0.743526,-0.0321,0.0358,0.2786,0.0247,-0.0284,0.002,-37.5,-21.825,-8.25,,adl
0.744527,-0.0392,-0.0257,0.297,0.0247,-0.0284,0.002,-37.5,-21.825,-8.25,,adl
0.762996,-0.0392,-0.0257,0.297,0.0247,-0.0284,0.002,-37.5,-21.825,-8.25,,adl
0.76436,-0.0192,-0.0365,0.1892,0.0247,-0.0284,0.002,-37.5,-21.825,-8.25,,adl
0.765414,-0.0192,-0.0365,0.1892,0.0247,-0.0284,0.002,-37.275,-21.675,-8.55,,adl
0.783757,-0.0192,-0.0365,0.1892,0.0247,-0.0284,0.002,-37.275,-21.675,-8.55,,adl
0.785115,-0.0171,0.0047,0.0628,0.0247,-0.0284,0.002,-37.275,-21.675,-8.55,,adl
0.802913,-0.0171,0.0047,0.0628,0.0247,-0.0284,0.002,-37.275,-21.675,-8.55,,adl
0.804186,0.0001,0.0567,0.0762,0.0247,-0.0284,0.002,-37.275,-21.675,-8.55,,adl
0.806813,0.0001,0.0567,0.0762,0.0405,-0.0438,0.0014,-37.275,-21.675,-8.55,,adl
0.822409,0.0001,0.0567,0.0762,0.0405,-0.0438,0.0014,-37.275,-21.675,-8.55,,adl
0.823575,0.0244,0.0695,0.1831,0.0405,-0.0438,0.0014,-37.275,-21.675,-8.55,,adl
0.832273,0.0244,0.0695,0.1831,0.0405,-0.0438,0.0014,-36.975,-22.275,-7.65,,adl
0.837696,0.0244,0.0695,0.1831,0.0405,-0.0438,0.0014,-36.975,-22.275,-7.65,,adl
0.838849,0.0327,0.0864,0.1916,0.0405,-0.0438,0.0014,-36.975,-22.275,-7.65,,adl
0.866898,0.0327,0.0864,0.1916,0.0405,-0.0438,0.0014,-36.975,-22.275,-7.65,,adl
0.868411,0.0028,0.0933,0.1405,0.0405,-0.0438,0.0014,-36.975,-22.275,-7.65,,adl
0.880103,0.0028,0.0933,0.1405,0.0069,-0.0134,0.0076,-36.975,-22.275,-7.65,,adl
0.887334,0.0028,0.0933,0.1405,0.0069,-0.0134,0.0076,-36.975,-22.275,-7.65,,adl
0.888605,-0.0293,0.1011,0.1155,0.0069,-0.0134,0.0076,-36.975,-22.275,-7.65,,adl
0.90535,-0.0293,0.1011,0.1155,0.0069,-0.0134,0.0076,-37.8,-22.35,-7.65,,adl
0.906854,-0.0293,0.1011,0.1155,0.0069,-0.0134,0.0076,-37.8,-22.35,-7.65,,adl
0.907806,-0.0428,0.0734,0.131,0.0069,-0.0134,0.0076,-37.8,-22.35,-7.65,,adl
0.923733,-0.0428,0.0734,0.131,0.0069,-0.0134,0.0076,-37.8,-22.35,-7.65,,adl
0.928775,-0.0415,0.0268,0.2767,0.0069,-0.0134,0.0076,-37.8,-22.35,-7.65,,adl
0.944114,-0.0415,0.0268,0.2767,0.0069,-0.0134,0.0076,-37.8,-22.35,-7.65,,adl
0.945389,-0.0263,-0.0194,0.1948,0.0069,-0.0134,0.0076,-37.8,-22.35,-7.65,,adl
0.948725,-0.0263,-0.0194,0.1948,0.0012,-0.0018,0.0032,-37.8,-22.35,-7.65,,adl
0.963305,-0.0263,-0.0194,0.1948,0.0012,-0.0018,0.0032,-37.8,-22.35,-7.65,,adl
0.964606,-0.0088,0.0103,0.047,0.0012,-0.0018,0.0032,-37.8,-22.35,-7.65,,adl
0.973566,-0.0088,0.0103,0.047,0.0012,-0.0018,0.0032,-37.575,-22.35,-7.425,,adl
0.984335,-0.0088,0.0103,0.047,0.0012,-0.0018,0.0032,-37.575,-22.35,-7.425,,adl
0.985867,-0.0414,0.0697,0.0733,0.0012,-0.0018,0.0032,-37.575,-22.35,-7.425,,adl
1.00182,-0.0414,0.0697,0.0733,0.0012,-0.0018,0.0032,-37.575,-22.35,-7.425,,adl
1.003167,-0.0449,0.0692,0.1817,0.0012,-0.0018,0.0032,-37.575,-22.35,-7.425,,adl
1.017032,-0.0449,0.0692,0.1817,-0.0026,-0.0008,-0.0005,-37.575,-22.35,-7.425,,adl
1.022905,-0.0449,0.0692,0.1817,-0.0026,-0.0008,-0.0005,-37.575,-22.35,-7.425,,adl
1.024204,-0.0133,0.0378,0.274,-0.0026,-0.0008,-0.0005,-37.575,-22.35,-7.425,,adl
1.037398,-0.0133,0.0378,0.274,-0.0026,-0.0008,-0.0005,-37.575,-22.35,-7.425,,adl
1.038831,-0.0243,0.0168,0.1847,-0.0026,-0.0008,-0.0005,-37.575,-22.35,-7.425,,adl
1.041214,-0.0243,0.0168,0.1847,-0.0026,-0.0008,-0.0005,-37.725,-22.65,-7.95,,adl
1.060432,-0.0243,0.0168,0.1847,-0.0026,-0.0008,-0.0005,-37.725,-22.65,-7.95,,adl
1.061668,-0.0242,0.0344,0.1266,-0.0026,-0.0008,-0.0005,-37.725,-22.65,-7.95,,adl
1.080372,-0.0242,0.0344,0.1266,-0.0026,-0.0008,-0.0005,-37.725,-22.65,-7.95,,adl
1.081676,-0.01,0.0468,0.1433,-0.0026,-0.0008,-0.0005,-37.725,-22.65,-7.95,,adl
1.085638,-0.01,0.0468,0.1433,-0.0008,0.0102,0.0031,-37.725,-22.65,-7.95,,adl
1.104568,-0.01,0.0468,0.1433,-0.0008,0.0102,0.0031,-37.725,-22.65,-7.95,,adl
1.10563,-0.0064,0.0668,0.1453,-0.0008,0.0102,0.0031,-37.725,-22.65,-7.95,,adl
1.110293,-0.0064,0.0668,0.1453,-0.0008,0.0102,0.0031,-37.5,-22.35,-7.95,,adl
1.119119,-0.0064,0.0668,0.1453,-0.0008,0.0102,0.0031,-37.5,-22.35,-7.95,,adl
1.120245,0.0082,0.0627,0.1178,-0.0008,0.0102,0.0031,-37.5,-22.35,-7.95,,adl
1.137852,0.0082,0.0627,0.1178,-0.0008,0.0102,0.0031,-37.5,-22.35,-7.95,,adl
1.138995,0.0172,0.0553,0.1307,-0.0008,0.0102,0.0031,-37.5,-22.35,-7.95,,adl
1.153424,0.0172,0.0553,0.1307,-0.0057,-0.0011,0.0031,-37.5,-22.35,-7.95,,adl
1.159302,0.0172,0.0553,0.1307,-0.0057,-0.0011,0.0031,-37.5,-22.35,-7.95,,adl
1.160265,-0.0039,0.0533,0.1478,-0.0057,-0.0011,0.0031,-37.5,-22.35,-7.95,,adl
1.178819,-0.0039,0.0533,0.1478,-0.0057,-0.0011,0.0031,-37.5,-22.35,-7.95,,adl
1.180008,-0.0225,0.0621,0.159,-0.0057,-0.0011,0.0031,-37.5,-22.35,-7.95,,adl
1.181058,-0.0225,0.0621,0.159,-0.0057,-0.0011,0.0031,-37.125,-22.35,-7.65,,adl
1.197952,-0.0225,0.0621,0.159,-0.0057,-0.0011,0.0031,-37.125,-22.35,-7.65,,adl
1.200088,-0.0209,0.0611,0.154,-0.0057,-0.0011,0.0031,-37.125,-22.35,-7.65,,adl
1.217192,-0.0209,0.0611,0.154,-0.0057,-0.0011,0.0031,-37.125,-22.35,-7.65,,adl
1.218654,-0.0021,0.0404,0.1575,-0.0057,-0.0011,0.0031,-37.125,-22.35,-7.65,,adl
1.222338,-0.0021,0.0404,0.1575,-0.0057,-0.0053,-0.0005,-37.125,-22.35,-7.65,,adl
1.237144,-0.0021,0.0404,0.1575,-0.0057,-0.0053,-0.0005,-37.125,-22.35,-7.65,,adl
1.238359,0.0063,0.0273,0.1663,-0.0057,-0.0053,-0.0005,-37.125,-22.35,-7.65,,adl
1.254301,0.0063,0.0273,0.1663,-0.0057,-0.0053,-0.0005,-37.275,-21.975,-7.575,,adl
1.262163,0.0063,0.0273,0.1663,-0.0057,-0.0053,-0.0005,-37.275,-21.975,-7.575,,adl
1.263274,-0.0062,0.024,0.1583,-0.0057,-0.0053,-0.0005,-37.275,-21.975,-7.575,,adl
1.281769,-0.0062,0.024,0.1583,-0.0057,-0.0053,-0.0005,-37.275,-21.975,-7.575,,adl
1.284087,-0.0355,0.0455,0.1494,-0.0057,-0.0053,-0.0005,-37.275,-21.975,-7.575,,adl
1.296484,-0.0355,0.0455,0.1494,-0.0032,-0.0011,0.0011,-37.275,-21.975,-7.575,,adl
1.300594,-0.0355,0.0455,0.1494,-0.0032,-0.0011,0.0011,-37.275,-21.975,-7.575,,adl
1.301631,-0.0309,0.0482,0.1397,-0.0032,-0.0011,0.0011,-37.275,-21.975,-7.575,,adl
1.319815,-0.0309,0.0482,0.1397,-0.0032,-0.0011,0.0011,-37.275,-21.975,-7.575,,adl
1.32139,-0.0268,0.0625,0.1456,-0.0032,-0.0011,0.0011,-37.275,-21.975,-7.575,,adl
1.322406,-0.0268,0.0625,0.1456,-0.0032,-0.0011,0.0011,-37.65,-22.125,-7.65,,adl
1.336029,-0.0268,0.0625,0.1456,-0.0032,-0.0011,0.0011,-37.65,-22.125,-7.65,,adl
1.337267,-0.0342,0.074,0.1426,-0.0032,-0.0011,0.0011,-37.65,-22.125,-7.65,,adl
1.360034,-0.0342,0.074,0.1426,-0.0032,-0.0011,0.0011,-37.65,-22.125,-7.65,,adl
1.361241,-0.0337,0.0644,0.1229,-0.0032,-0.0011,0.0011,-37.65,-22.125,-7.65,,adl
1.363665,-0.0337,0.0644,0.1229,-0.0072,0.0052,0.0009,-37.65,-22.125,-7.65,,adl
1.379352,-0.0337,0.0644,0.1229,-0.0072,0.0052,0.0009,-37.65,-22.125,-7.65,,adl
1.380594,-0.0226,0.059,0.1556,-0.0072,0.0052,0.0009,-37.65,-22.125,-7.65,,adl
1.390925,-0.0226,0.059,0.1556,-0.0072,0.0052,0.0009,-37.65,-22.425,-8.55,,adl
1.398573,-0.0226,0.059,0.1556,-0.0072,0.0052,0.0009,-37.65,-22.425,-8.55,,adl
1.40094,-0.0243,0.0329,0.1893,-0.0072,0.0052,0.0009,-37.65,-22.425,-8.55,,adl
1.418119,-0.0243,0.0329,0.1893,-0.0072,0.0052,0.0009,-37.65,-22.425,-8.55,,adl
1.421236,-0.0367,0.0153,0.1708,-0.0072,0.0052,0.0009,-37.65,-22.425,-8.55,,adl
1.432548,-0.0367,0.0153,0.1708,-0.0026,-0.0027,0.0009,-37.65,-22.425,-8.55,,adl
1.437348,-0.0367,0.0153,0.1708,-0.0026,-0.0027,0.0009,-37.65,-22.425,-8.55,,adl
1.439313,-0.0172,0.0264,0.1602,-0.0026,-0.0027,0.0009,-37.65,-22.425,-8.55,,adl
1.457074,-0.0172,0.0264,0.1602,-0.0026,-0.0027,0.0009,-37.65,-22.425,-8.55,,adl
1.4603,0.014,0.0387,0.1354,-0.0026,-0.0027,0.0009,-37.65,-22.425,-8.55,,adl
1.461711,0.014,0.0387,0.1354,-0.0026,-0.0027,0.0009,-37.8,-21.825,-7.95,,adl
1.475973,0.014,0.0387,0.1354,-0.0026,-0.0027,0.0009,-37.8,-21.825,-7.95,,adl
1.477947,0.0049,0.0221,0.1033,-0.0026,-0.0027,0.0009,-37.8,-21.825,-7.95,,adl
1.503045,0.0049,0.0221,0.1033,-0.0026,-0.0027,0.0009,-37.8,-21.825,-7.95,,adl
1.505671,-0.012,0.0833,0.1211,-0.0026,-0.0027,0.0009,-37.8,-21.825,-7.95,,adl
1.508861,-0.012,0.0833,0.1211,-0.0035,0.0046,0.0002,-37.8,-21.825,-7.95,,adl
1.521593,-0.012,0.0833,0.1211,-0.0035,0.0046,0.0002,-37.8,-21.825,-7.95,,adl
1.52329,-0.0128,0.1063,0.1045,-0.0035,0.0046,0.0002,-37.8,-21.825,-7.95,,adl
1.531603,-0.0128,0.1063,0.1045,-0.0035,0.0046,0.0002,-37.35,-21.825,-7.35,,adl
1.536462,-0.0128,0.1063,0.1045,-0.0035,0.0046,0.0002,-37.35,-21.825,-7.35,,adl
1.538102,0.0077,0.0874,0.0898,-0.0035,0.0046,0.0002,-37.35,-21.825,-7.35,,adl
1.561067,0.0077,0.0874,0.0898,-0.0035,0.0046,0.0002,-37.35,-21.825,-7.35,,adl
1.562805,-0.0151,0.0473,0.2313,-0.0035,0.0046,0.0002,-37.35,-21.825,-7.35,,adl
1.575748,-0.0151,0.0473,0.2313,0.0079,-0.0108,-0.0014,-37.35,-21.825,-7.35,,adl
1.581115,-0.0151,0.0473,0.2313,0.0079,-0.0108,-0.0014,-37.35,-21.825,-7.35,,adl
1.582702,-0.0607,-0.0137,0.3196,0.0079,-0.0108,-0.0014,-37.35,-21.825,-7.35,,adl
1.599681,-0.0607,-0.0137,0.3196,0.0079,-0.0108,-0.0014,-37.35,-21.825,-7.35,,adl
1.603619,-0.0251,-0.056,0.2002,0.0079,-0.0108,-0.0014,-37.35,-21.825,-7.35,,adl
1.607372,-0.0251,-0.056,0.2002,0.0079,-0.0108,-0.0014,-37.05,-22.35,-8.175,,adl
1.622708,-0.0251,-0.056,0.2002,0.0079,-0.0108,-0.0014,-37.05,-22.35,-8.175,,adl
1.625456,-0.023,-0.0324,0.0807,0.0079,-0.0108,-0.0014,-37.05,-22.35,-8.175,,adl
1.636244,-0.023,-0.0324,0.0807,0.0079,-0.0108,-0.0014,-37.05,-22.35,-8.175,,adl
1.638849,-0.0316,0.0319,0.0692,0.0079,-0.0108,-0.0014,-37.05,-22.35,-8.175,,adl
1.642782,-0.0316,0.0319,0.0692,0.037,-0.0339,-0.0021,-37.05,-22.35,-8.175,,adl
1.658909,-0.0316,0.0319,0.0692,0.037,-0.0339,-0.0021,-37.05,-22.35,-8.175,,adl
1.660352,-0.0018,0.0904,0.092,0.037,-0.0339,-0.0021,-37.05,-22.35,-8.175,,adl
1.671018,-0.0018,0.0904,0.092,0.037,-0.0339,-0.0021,-37.8,-22.05,-7.575,,adl
1.678151,-0.0018,0.0904,0.092,0.037,-0.0339,-0.0021,-37.8,-22.05,-7.575,,adl
1.679856,0.0046,0.1027,0.16,0.037,-0.0339,-0.0021,-37.8,-22.05,-7.575,,adl
1.697867,0.0046,0.1027,0.16,0.037,-0.0339,-0.0021,-37.8,-22.05,-7.575,,adl
1.699598,-0.0006,0.088,0.1868,0.037,-0.0339,-0.0021,-37.8,-22.05,-7.575,,adl
1.712092,-0.0006,0.088,0.1868,-0.007,-0.0015,-0.0035,-37.8,-22.05,-7.575,,adl
1.717696,-0.0006,0.088,0.1868,-0.007,-0.0015,-0.0035,-37.8,-22.05,-7.575,,adl
1.71921,-0.0346,0.084,0.1391,-0.007,-0.0015,-0.0035,-37.8,-22.05,-7.575,,adl
1.737086,-0.0346,0.084,0.1391,-0.007,-0.0015,-0.0035,-37.8,-22.05,-7.575,,adl
1.73883,-0.0499,0.0624,0.1146,-0.007,-0.0015,-0.0035,-37.8,-22.05,-7.575,,adl
1.740479,-0.0499,0.0624,0.1146,-0.007,-0.0015,-0.0035,-36.75,-22.05,-7.575,,adl
1.760765,-0.0499,0.0624,0.1146,-0.007,-0.0015,-0.0035,-36.75,-22.05,-7.575,,adl
1.765934,-0.0394,0.0475,0.0815,-0.007,-0.0015,-0.0035,-36.75,-22.05,-7.575,,adl
1.779878,-0.0394,0.0475,0.0815,-0.007,-0.0015,-0.0035,-36.75,-22.05,-7.575,,adl
1.782153,-0.0295,0.0162,0.2324,-0.007,-0.0015,-0.0035,-36.75,-22.05,-7.575,,adl
1.787334,-0.0295,0.0162,0.2324,-0.011,0.0053,-0.0018,-36.75,-22.05,-7.575,,adl
1.799071,-0.0295,0.0162,0.2324,-0.011,0.0053,-0.0018,-36.75,-22.05,-7.575,,adl
1.801409,-0.0139,-0.0029,0.1915,-0.011,0.0053,-0.0018,-36.75,-22.05,-7.575,,adl
1.811261,-0.0139,-0.0029,0.1915,-0.011,0.0053,-0.0018,-36.75,-22.575,-7.95,,adl
1.819751,-0.0139,-0.0029,0.1915,-0.011,0.0053,-0.0018,-36.75,-22.575,-7.95,,adl
1.82243,-0.0139,0.0092,0.0865,-0.011,0.0053,-0.0018,-36.75,-22.575,-7.95,,adl
1.843261,-0.0139,0.0092,0.0865,-0.011,0.0053,-0.0018,-36.75,-22.575,-7.95,,adl
1.845485,-0.0366,0.0584,0.0843,-0.011,0.0053,-0.0018,-36.75,-22.575,-7.95,,adl
1.852792,-0.0366,0.0584,0.0843,-0.0006,-0.0009,-0.0035,-36.75,-22.575,-7.95,,adl
1.857634,-0.0366,0.0584,0.0843,-0.0006,-0.0009,-0.0035,-36.75,-22.575,-7.95,,adl
1.859173,-0.021,0.0612,0.1815,-0.0006,-0.0009,-0.0035,-36.75,-22.575,-7.95,,adl
1.87759,-0.021,0.0612,0.1815,-0.0006,-0.0009,-0.0035,-36.75,-22.575,-7.95,,adl
1.880316,-0.0055,0.0338,0.2371,-0.0006,-0.0009,-0.0035,-36.75,-22.575,-7.95,,adl
1.882226,-0.0055,0.0338,0.2371,-0.0006,-0.0009,-0.0035,-37.875,-21.825,-8.25,,adl
1.897325,-0.0055,0.0338,0.2371,-0.0006,-0.0009,-0.0035,-37.875,-21.825,-8.25,,adl
1.900193,-0.0332,0.0078,0.2004,-0.0006,-0.0009,-0.0035,-37.875,-21.825,-8.25,,adl
1.916419,-0.0332,0.0078,0.2004,-0.0006,-0.0009,-0.0035,-37.875,-21.825,-8.25,,adl
1.918772,-0.0441,0.0132,0.106,-0.0006,-0.0009,-0.0035,-37.875,-21.825,-8.25,,adl
1.923656,-0.0441,0.0132,0.106,-0.0017,0.016,-0.0017,-37.875,-21.825,-8.25,,adl
1.941614,-0.0441,0.0132,0.106,-0.0017,0.016,-0.0017,-37.875,-21.825,-8.25,,adl
1.943771,-0.02,0.0365,0.0897,-0.0017,0.016,-0.0017,-37.875,-21.825,-8.25,,adl
1.952457,-0.02,0.0365,0.0897,-0.0017,0.016,-0.0017,-38.1,-22.65,-7.65,,adl
1.955592,-0.02,0.0365,0.0897,-0.0017,0.016,-0.0017,-38.1,-22.65,-7.65,,adl
1.957221,-0.0151,0.0523,0.1399,-0.0017,0.016,-0.0017,-38.1,-22.65,-7.65,,adl
1.975442,-0.0151,0.0523,0.1399,-0.0017,0.016,-0.0017,-38.1,-22.65,-7.65,,adl
1.977523,-0.0039,0.0553,0.1278,-0.0017,0.016,-0.0017,-38.1,-22.65,-7.65,,adl
1.990916,-0.0039,0.0553,0.1278,-0.0108,0.0098,-0.0015,-38.1,-22.65,-7.65,,adl
1.998724,-0.0039,0.0553,0.1278,-0.0108,0.0098,-0.0015,-38.1,-22.65,-7.65,,adl
2.000711,0.0041,0.0528,0.1233,-0.0108,0.0098,-0.0015,-38.1,-22.65,-7.65,,adl
2.02021,0.0041,0.0528,0.1233,-0.0108,0.0098,-0.0015,-38.1,-22.65,-7.65,,adl
2.022549,0.0043,0.0546,0.14,-0.0108,0.0098,-0.0015,-38.1,-22.65,-7.65,,adl
2.024559,0.0043,0.0546,0.14,-0.0108,0.0098,-0.0015,-37.95,-22.275,-7.875,,adl
2.036962,0.0043,0.0546,0.14,-0.0108,0.0098,-0.0015,-37.95,-22.275,-7.875,,adl
2.039395,0.0111,0.0478,0.1615,-0.0108,0.0098,-0.0015,-37.95,-22.275,-7.875,,adl
2.058412,0.0111,0.0478,0.1615,-0.0108,0.0098,-0.0015,-37.95,-22.275,-7.875,,adl
2.061402,-0.0039,0.0201,0.1877,-0.0108,0.0098,-0.0015,-37.95,-22.275,-7.875,,adl
2.064898,-0.0039,0.0201,0.1877,-0.0032,0.0003,-0.0055,-37.95,-22.275,-7.875,,adl
2.078527,-0.0039,0.0201,0.1877,-0.0032,0.0003,-0.0055,-37.95,-22.275,-7.875,,adl
2.08171,-0.0086,0.0137,0.1818,-0.0032,0.0003,-0.0055,-37.95,-22.275,-7.875,,adl
2.090215,-0.0086,0.0137,0.1818,-0.0032,0.0003,-0.0055,-38.4,-22.425,-8.25,,adl
2.098118,-0.0086,0.0137,0.1818,-0.0032,0.0003,-0.0055,-38.4,-22.425,-8.25,,adl
2.100319,-0.0155,0.0055,0.1825,-0.0032,0.0003,-0.0055,-38.4,-22.425,-8.25,,adl
2.118393,-0.0155,0.0055,0.1825,-0.0032,0.0003,-0.0055,-38.4,-22.425,-8.25,,adl
2.121898,-0.0451,0.0154,0.1439,-0.0032,0.0003,-0.0055,-38.4,-22.425,-8.25,,adl
2.131991,-0.0451,0.0154,0.1439,0.0069,0.0009,-0.0058,-38.4,-22.425,-8.25,,adl
2.13803,-0.0451,0.0154,0.1439,0.0069,0.0009,-0.0058,-38.4,-22.425,-8.25,,adl
2.14017,-0.0447,0.0411,0.1334,0.0069,0.0009,-0.0058,-38.4,-22.425,-8.25,,adl
2.156289,-0.0447,0.0411,0.1334,0.0069,0.0009,-0.0058,-38.4,-22.425,-8.25,,adl
2.159398,-0.0456,0.0543,0.1484,0.0069,0.0009,-0.0058,-38.4,-22.425,-8.25,,adl
2.161097,-0.0456,0.0543,0.1484,0.0069,0.0009,-0.0058,-37.65,-22.05,-8.25,,adl
2.17625,-0.0456,0.0543,0.1484,0.0069,0.0009,-0.0058,-37.65,-22.05,-8.25,,adl
2.178801,-0.0511,0.0583,0.1383,0.0069,0.0009,-0.0058,-37.65,-22.05,-8.25,,adl
2.196595,-0.0511,0.0583,0.1383,0.0069,0.0009,-0.0058,-37.65,-22.05,-8.25,,adl
2.198151,-0.0488,0.0465,0.1197,0.0069,0.0009,-0.0058,-37.65,-22.05,-8.25,,adl
2.205445,-0.0488,0.0465,0.1197,-0.0066,0.0093,-0.0058,-37.65,-22.05,-8.25,,adl
2.216113,-0.0488,0.0465,0.1197,-0.0066,0.0093,-0.0058,-37.65,-22.05,-8.25,,adl
2.217667,-0.0345,0.0322,0.1374,-0.0066,0.0093,-0.0058,-37.65,-22.05,-8.25,,adl
2.230864,-0.0345,0.0322,0.1374,-0.0066,0.0093,-0.0058,-37.35,-22.35,-7.425,,adl
2.232508,-0.0345,0.0322,0.1374,-0.0066,0.0093,-0.0058,-37.35,-22.35,-7.425,,adl
2.233797,-0.0471,0.0098,0.1771,-0.0066,0.0093,-0.0058,-37.35,-22.35,-7.425,,adl
2.254441,-0.0471,0.0098,0.1771,-0.0066,0.0093,-0.0058,-37.35,-22.35,-7.425,,adl
2.256222,-0.0473,-0.0097,0.139,-0.0066,0.0093,-0.0058,-37.35,-22.35,-7.425,,adl
2.271646,-0.0473,-0.0097,0.139,-0.0081,0.0005,-0.0003,-37.35,-22.35,-7.425,,adl
2.273691,-0.0473,-0.0097,0.139,-0.0081,0.0005,-0.0003,-37.35,-22.35,-7.425,,adl
2.279454,-0.0079,-0.0006,0.16,-0.0081,0.0005,-0.0003,-37.35,-22.35,-7.425,,adl
2.293744,-0.0079,-0.0006,0.16,-0.0081,0.0005,-0.0003,-37.35,-22.35,-7.425,,adl
2.298283,-0.0161,0.0221,0.0802,-0.0081,0.0005,-0.0003,-37.35,-22.35,-7.425,,adl
2.301091,-0.0161,0.0221,0.0802,-0.0081,0.0005,-0.0003,-37.5,-22.725,-7.95,,adl
2.312912,-0.0161,0.0221,0.0802,-0.0081,0.0005,-0.0003,-37.5,-22.725,-7.95,,adl
2.315611,0.0046,0.0258,0.1154,-0.0081,0.0005,-0.0003,-37.5,-22.725,-7.95,,adl
2.33285,0.0046,0.0258,0.1154,-0.0081,0.0005,-0.0003,-37.5,-22.725,-7.95,,adl
2.33517,-0.0083,0.0748,0.2028,-0.0081,0.0005,-0.0003,-37.5,-22.725,-7.95,,adl
2.344352,-0.0083,0.0748,0.2028,-0.0092,0.0029,0.0021,-37.5,-22.725,-7.95,,adl
2.356656,-0.0083,0.0748,0.2028,-0.0092,0.0029,0.0021,-37.5,-22.725,-7.95,,adl
2.358673,0.0072,0.0668,0.1367,-0.0092,0.0029,0.0021,-37.5,-22.725,-7.95,,adl
2.372975,0.0072,0.0668,0.1367,-0.0092,0.0029,0.0021,-38.025,-22.35,-7.875,,adl
2.375774,0.0072,0.0668,0.1367,-0.0092,0.0029,0.0021,-38.025,-22.35,-7.875,,adl
2.377098,0.0209,0.0822,0.0684,-0.0092,0.0029,0.0021,-38.025,-22.35,-7.875,,adl
2.395575,0.0209,0.0822,0.0684,-0.0092,0.0029,0.0021,-38.025,-22.35,-7.875,,adl
2.39759,-0.0069,0.045,0.1682,-0.0092,0.0029,0.0021,-38.025,-22.35,-7.875,,adl
2.40998,-0.0069,0.045,0.1682,0.006,0.0061,-0.0023,-38.025,-22.35,-7.875,,adl
2.415114,-0.0069,0.045,0.1682,0.006,0.0061,-0.0023,-38.025,-22.35,-7.875,,adl
2.416545,-0.0288,-0.0011,0.2896,0.006,0.0061,-0.0023,-38.025,-22.35,-7.875,,adl
2.434754,-0.0288,-0.0011,0.2896,0.006,0.0061,-0.0023,-38.025,-22.35,-7.875,,adl
2.437052,-0.0134,-0.0507,0.2285,0.006,0.0061,-0.0023,-38.025,-22.35,-7.875,,adl
2.439827,-0.0134,-0.0507,0.2285,0.006,0.0061,-0.0023,-37.05,-22.35,-7.65,,adl
2.454891,-0.0134,-0.0507,0.2285,0.006,0.0061,-0.0023,-37.05,-22.35,-7.65,,adl
2.459138,-0.0413,-0.0422,0.1249,0.006,0.0061,-0.0023,-37.05,-22.35,-7.65,,adl
2.47547,-0.0413,-0.0422,0.1249,0.006,0.0061,-0.0023,-37.05,-22.35,-7.65,,adl
2.480358,-0.0357,0.0152,0.0399,0.006,0.0061,-0.0023,-37.05,-22.35,-7.65,,adl
2.48426,-0.0357,0.0152,0.0399,0.0356,-0.0308,-0.0029,-37.05,-22.35,-7.65,,adl
2.493628,-0.0357,0.0152,0.0399,0.0356,-0.0308,-0.0029,-37.05,-22.35,-7.65,,adl
2.49605,-0.0078,0.0567,0.0781,0.0356,-0.0308,-0.0029,-37.05,-22.35,-7.65,,adl
2.509759,-0.0078,0.0567,0.0781,0.0356,-0.0308,-0.0029,-37.05,-22.35,-7.65,,adl
2.512356,0.0108,0.0657,0.1777,0.0356,-0.0308,-0.0029,-37.05,-22.35,-7.65,,adl
2.513964,0.0108,0.0657,0.1777,0.0356,-0.0308,-0.0029,-37.8,-22.05,-7.725,,adl
2.532703,0.0108,0.0657,0.1777,0.0356,-0.0308,-0.0029,-37.8,-22.05,-7.725,,adl
2.53503,0.0022,0.0625,0.192,0.0356,-0.0308,-0.0029,-37.8,-22.05,-7.725,,adl
2.547809,0.0022,0.0625,0.192,-0.0041,-0.0034,-0.0035,-37.8,-22.05,-7.725,,adl
2.55336,0.0022,0.0625,0.192,-0.0041,-0.0034,-0.0035,-37.8,-22.05,-7.725,,adl
2.555279,-0.0365,0.0678,0.1378,-0.0041,-0.0034,-0.0035,-37.8,-22.05,-7.725,,adl
2.577017,-0.0365,0.0678,0.1378,-0.0041,-0.0034,-0.0035,-37.8,-22.05,-7.725,,adl
2.579905,-0.0602,0.0569,0.1145,-0.0041,-0.0034,-0.0035,-37.8,-22.05,-7.725,,adl
2.582541,-0.0602,0.0569,0.1145,-0.0041,-0.0034,-0.0035,-37.575,-22.875,-7.725,,adl
2.587675,-0.0602,0.0569,0.1145,-0.0041,-0.0034,-0.0035,-37.575,-22.875,-7.725,,adl
2.589621,-0.0419,0.0163,0.112,-0.0041,-0.0034,-0.0035,-37.575,-22.875,-7.725,,adl
2.611274,-0.0419,0.0163,0.112,-0.0041,-0.0034,-0.0035,-37.575,-22.875,-7.725,,adl
2.6137,-0.0387,-0.0108,0.1834,-0.0041,-0.0034,-0.0035,-37.575,-22.875,-7.725,,adl
2.616106,-0.0387,-0.0108,0.1834,-0.0105,0.0099,0.0027,-37.575,-22.875,-7.725,,adl
2.635652,-0.0387,-0.0108,0.1834,-0.0105,0.0099,0.0027,-37.575,-22.875,-7.725,,adl
2.638567,-0.0236,-0.0126,0.2304,-0.0105,0.0099,0.0027,-37.575,-22.875,-7.725,,adl
2.645991,-0.0236,-0.0126,0.2304,-0.0105,0.0099,0.0027,-37.5,-22.875,-7.65,,adl
2.655084,-0.0236,-0.0126,0.2304,-0.0105,0.0099,0.0027,-37.5,-22.875,-7.65,,adl
2.657168,-0.0116,0.0064,0.097,-0.0105,0.0099,0.0027,-37.5,-22.875,-7.65,,adl
2.674306,-0.0116,0.0064,0.097,-0.0105,0.0099,0.0027,-37.5,-22.875,-7.65,,adl
2.67632,-0.0331,0.0767,0.0436,-0.0105,0.0099,0.0027,-37.5,-22.875,-7.65,,adl
2.689918,-0.0331,0.0767,0.0436,0.006,-0.0079,-0.0008,-37.5,-22.875,-7.65,,adl
2.69386,-0.0331,0.0767,0.0436,0.006,-0.0079,-0.0008,-37.5,-22.875,-7.65,,adl
2.695717,-0.0359,0.0788,0.1103,0.006,-0.0079,-0.0008,-37.5,-22.875,-7.65,,adl
2.713601,-0.0359,0.0788,0.1103,0.006,-0.0079,-0.0008,-37.5,-22.875,-7.65,,adl
2.716437,-0.0054,0.0357,0.2561,0.006,-0.0079,-0.0008,-37.5,-22.875,-7.65,,adl
2.718464,-0.0054,0.0357,0.2561,0.006,-0.0079,-0.0008,-37.65,-22.725,-7.875,,adl
2.732834,-0.0054,0.0357,0.2561,0.006,-0.0079,-0.0008,-37.65,-22.725,-7.875,,adl
2.734974,-0.0323,0.0055,0.2419,0.006,-0.0079,-0.0008,-37.65,-22.725,-7.875,,adl
2.752733,-0.0323,0.0055,0.2419,0.006,-0.0079,-0.0008,-37.65,-22.725,-7.875,,adl
2.755999,-0.0473,-0.0079,0.1571,0.006,-0.0079,-0.0008,-37.65,-22.725,-7.875,,adl
2.758312,-0.0473,-0.0079,0.1571,-0.0012,0.0116,-0.0015,-37.65,-22.725,-7.875,,adl
2.775654,-0.0473,-0.0079,0.1571,-0.0012,0.0116,-0.0015,-37.65,-22.725,-7.875,,adl
2.778089,-0.0247,0.0121,0.0853,-0.0012,0.0116,-0.0015,-37.65,-22.725,-7.875,,adl
2.782425,-0.0247,0.0121,0.0853,-0.0012,0.0116,-0.0015,-37.875,-22.65,-7.95,,adl
2.79202,-0.0247,0.0121,0.0853,-0.0012,0.0116,-0.0015,-37.875,-22.65,-7.95,,adl
2.793667,0.012,0.0285,0.1187,-0.0012,0.0116,-0.0015,-37.875,-22.65,-7.95,,adl
2.812664,0.012,0.0285,0.1187,-0.0012,0.0116,-0.0015,-37.875,-22.65,-7.95,,adl
2.813856,0.0083,0.0229,0.1617,-0.0012,0.0116,-0.0015,-37.875,-22.65,-7.95,,adl
2.827142,0.0083,0.0229,0.1617,-0.0057,0.0063,0.0009,-37.875,-22.65,-7.95,,adl
2.832608,0.0083,0.0229,0.1617,-0.0057,0.0063,0.0009,-37.875,-22.65,-7.95,,adl
2.833958,-0.0224,0.0349,0.1591,-0.0057,0.0063,0.0009,-37.875,-22.65,-7.95,,adl
2.851338,-0.0224,0.0349,0.1591,-0.0057,0.0063,0.0009,-37.875,-22.65,-7.95,,adl
2.853068,-0.02,0.0464,0.1324,-0.0057,0.0063,0.0009,-37.875,-22.65,-7.95,,adl
2.85769,-0.02,0.0464,0.1324,-0.0057,0.0063,0.0009,-37.5,-22.725,-7.725,,adl
2.873974,-0.02,0.0464,0.1324,-0.0057,0.0063,0.0009,-37.5,-22.725,-7.725,,adl
2.875905,-0.0208,0.0566,0.1176,-0.0057,0.0063,0.0009,-37.5,-22.725,-7.725,,adl
2.895536,-0.0208,0.0566,0.1176,-0.0057,0.0063,0.0009,-37.5,-22.725,-7.725,,adl
2.897236,-0.0122,0.0311,0.1503,-0.0057,0.0063,0.0009,-37.5,-22.725,-7.725,,adl
2.900523,-0.0122,0.0311,0.1503,0.0008,-0.0031,0.0,-37.5,-22.725,-7.725,,adl
2.914079,-0.0122,0.0311,0.1503,0.0008,-0.0031,0.0,-37.5,-22.725,-7.725,,adl
2.916931,-0.0024,0.0083,0.1741,0.0008,-0.0031,0.0,-37.5,-22.725,-7.725,,adl
2.924411,-0.0024,0.0083,0.1741,0.0008,-0.0031,0.0,-37.275,-22.125,-8.325,,adl
2.936068,-0.0024,0.0083,0.1741,0.0008,-0.0031,0.0,-37.275,-22.125,-8.325,,adl
2.938547,-0.0167,0.0148,0.1503,0.0008,-0.0031,0.0,-37.275,-22.125,-8.325,,adl
2.953466,-0.0167,0.0148,0.1503,0.0008,-0.0031,0.0,-37.275,-22.125,-8.325,,adl
2.956031,-0.0271,0.0315,0.1139,0.0008,-0.0031,0.0,-37.275,-22.125,-8.325,,adl
2.969146,-0.0271,0.0315,0.1139,0.002,0.0032,0.0006,-37.275,-22.125,-8.325,,adl
2.972818,-0.0271,0.0315,0.1139,0.002,0.0032,0.0006,-37.275,-22.125,-8.325,,adl
2.975232,-0.0286,0.0467,0.0616,0.002,0.0032,0.0006,-37.275,-22.125,-8.325,,adl
2.992536,-0.0286,0.0467,0.0616,0.002,0.0032,0.0006,-37.275,-22.125,-8.325,,adl
2.995142,-0.0112,0.0764,0.0406,0.002,0.0032,0.0006,-37.275,-22.125,-8.325,,adl
2.996721,-0.0112,0.0764,0.0406,0.002,0.0032,0.0006,-37.95,-22.575,-8.025,,adl
3.012568,-0.0112,0.0764,0.0406,0.002,0.0032,0.0006,-37.95,-22.575,-8.025,,adl
3.013698,-0.002,0.0959,0.07,0.002,0.0032,0.0006,-37.95,-22.575,-8.025,,adl
3.032779,-0.002,0.0959,0.07,0.002,0.0032,0.0006,-37.95,-22.575,-8.025,,adl
3.034468,-0.0095,0.0941,0.1289,0.002,0.0032,0.0006,-37.95,-22.575,-8.025,,adl
3.038812,-0.0095,0.0941,0.1289,0.0009,0.0136,0.0015,-37.95,-22.575,-8.025,,adl
3.056461,-0.0095,0.0941,0.1289,0.0009,0.0136,0.0015,-37.95,-22.575,-8.025,,adl
3.05801,-0.0369,0.065,0.149,0.0009,0.0136,0.0015,-37.95,-22.575,-8.025,,adl
3.061684,-0.0369,0.065,0.149,0.0009,0.0136,0.0015,-37.65,-23.025,-7.875,,adl
3.071561,-0.0369,0.065,0.149,0.0009,0.0136,0.0015,-37.65,-23.025,-7.875,,adl
3.072973,-0.0201,0.0358,0.1532,0.0009,0.0136,0.0015,-37.65,-23.025,-7.875,,adl
3.087501,-0.0201,0.0358,0.1532,0.0009,0.0136,0.0015,-37.65,-23.025,-7.875,,adl
3.088925,-0.0127,-0.0,0.1821,0.0009,0.0136,0.0015,-37.65,-23.025,-7.875,,adl
3.109122,-0.0127,-0.0,0.1821,-0.0386,0.0252,-0.0044,-37.65,-23.025,-7.875,,adl
3.112843,-0.0127,-0.0,0.1821,-0.0386,0.0252,-0.0044,-37.65,-23.025,-7.875,,adl
3.114921,-0.0432,-0.0303,0.2053,-0.0386,0.0252,-0.0044,-37.65,-23.025,-7.875,,adl
3.129457,-0.0432,-0.0303,0.2053,-0.0386,0.0252,-0.0044,-37.65,-23.025,-7.875,,adl
3.13179,-0.0569,-0.0585,0.169,-0.0386,0.0252,-0.0044,-37.65,-23.025,-7.875,,adl
3.133683,-0.0569,-0.0585,0.169,-0.0386,0.0252,-0.0044,-37.8,-22.875,-7.95,,adl
3.148589,-0.0569,-0.0585,0.169,-0.0386,0.0252,-0.0044,-37.8,-22.875,-7.95,,adl
3.151781,-0.0338,-0.0522,0.2103,-0.0386,0.0252,-0.0044,-37.8,-22.875,-7.95,,adl
3.16926,-0.0338,-0.0522,0.2103,-0.0386,0.0252,-0.0044,-37.8,-22.875,-7.95,,adl
3.172752,-0.0439,-0.0169,0.0521,-0.0386,0.0252,-0.0044,-37.8,-22.875,-7.95,,adl
3.174835,-0.0439,-0.0169,0.0521,-0.027,-0.0055,-0.0098,-37.8,-22.875,-7.95,,adl
3.187192,-0.0439,-0.0169,0.0521,-0.027,-0.0055,-0.0098,-37.8,-22.875,-7.95,,adl
3.189525,0.0234,0.0289,0.1536,-0.027,-0.0055,-0.0098,-37.8,-22.875,-7.95,,adl
3.200365,0.0234,0.0289,0.1536,-0.027,-0.0055,-0.0098,-38.025,-23.55,-7.95,,adl
3.208021,0.0234,0.0289,0.1536,-0.027,-0.0055,-0.0098,-38.025,-23.55,-7.95,,adl
3.209546,-0.0117,0.0851,0.2316,-0.027,-0.0055,-0.0098,-38.025,-23.55,-7.95,,adl
3.226996,-0.0117,0.0851,0.2316,-0.027,-0.0055,-0.0098,-38.025,-23.55,-7.95,,adl
3.228549,0.0172,0.0788,0.1338,-0.027,-0.0055,-0.0098,-38.025,-23.55,-7.95,,adl
3.248122,0.0172,0.0788,0.1338,-0.0093,0.0278,0.0034,-38.025,-23.55,-7.95,,adl
3.252664,0.0172,0.0788,0.1338,-0.0093,0.0278,0.0034,-38.025,-23.55,-7.95,,adl
3.254966,-0.0075,0.1041,0.0363,-0.0093,0.0278,0.0034,-38.025,-23.55,-7.95,,adl
3.27205,-0.0075,0.1041,0.0363,-0.0093,0.0278,0.0034,-38.025,-23.55,-7.95,,adl
3.274773,-0.0465,0.0649,0.0744,-0.0093,0.0278,0.0034,-38.025,-23.55,-7.95,,adl
3.276731,-0.0465,0.0649,0.0744,-0.0093,0.0278,0.0034,-38.25,-22.725,-7.725,,adl
3.286132,-0.0465,0.0649,0.0744,-0.0093,0.0278,0.0034,-38.25,-22.725,-7.725,,adl
3.288095,-0.0304,0.0327,0.2423,-0.0093,0.0278,0.0034,-38.25,-22.725,-7.725,,adl
3.310602,-0.0304,0.0327,0.2423,-0.0093,0.0278,0.0034,-38.25,-22.725,-7.725,,adl
3.313453,-0.0394,-0.0193,0.3024,-0.0093,0.0278,0.0034,-38.25,-22.725,-7.725,,adl
3.315533,-0.0394,-0.0193,0.3024,-0.0089,-0.0057,0.0006,-38.25,-22.725,-7.725,,adl
3.33035,-0.0394,-0.0193,0.3024,-0.0089,-0.0057,0.0006,-38.25,-22.725,-7.725,,adl
3.333491,-0.0354,-0.039,0.2028,-0.0089,-0.0057,0.0006,-38.25,-22.725,-7.725,,adl
3.339852,-0.0354,-0.039,0.2028,-0.0089,-0.0057,0.0006,-37.725,-22.425,-7.875,,adl
3.349113,-0.0354,-0.039,0.2028,-0.0089,-0.0057,0.0006,-37.725,-22.425,-7.875,,adl
3.351185,-0.0509,-0.0236,0.0863,-0.0089,-0.0057,0.0006,-37.725,-22.425,-7.875,,adl
3.369231,-0.0509,-0.0236,0.0863,-0.0089,-0.0057,0.0006,-37.725,-22.425,-7.875,,adl
3.37256,-0.0257,-0.0219,0.1108,-0.0089,-0.0057,0.0006,-37.725,-22.425,-7.875,,adl
3.389114,-0.0257,-0.0219,0.1108,0.0052,-0.0179,-0.0093,-37.725,-22.425,-7.875,,adl
3.392665,-0.0257,-0.0219,0.1108,0.0052,-0.0179,-0.0093,-37.725,-22.425,-7.875,,adl
3.394353,-0.0016,-0.0074,0.1834,0.0052,-0.0179,-0.0093,-37.725,-22.425,-7.875,,adl
3.409489,-0.0016,-0.0074,0.1834,0.0052,-0.0179,-0.0093,-37.725,-22.425,-7.875,,adl
3.412783,0.0274,0.0173,0.1636,0.0052,-0.0179,-0.0093,-37.725,-22.425,-7.875,,adl
3.415074,0.0274,0.0173,0.1636,0.0052,-0.0179,-0.0093,-37.425,-22.65,-7.95,,adl
3.427869,0.0274,0.0173,0.1636,0.0052,-0.0179,-0.0093,-37.425,-22.65,-7.95,,adl
3.430097,0.0019,0.0451,0.1386,0.0052,-0.0179,-0.0093,-37.425,-22.65,-7.95,,adl
3.447398,0.0019,0.0451,0.1386,0.0052,-0.0179,-0.0093,-37.425,-22.65,-7.95,,adl
3.450186,-0.0421,0.0669,0.1477,0.0052,-0.0179,-0.0093,-37.425,-22.65,-7.95,,adl
3.458941,-0.0421,0.0669,0.1477,0.0003,0.0018,0.0002,-37.425,-22.65,-7.95,,adl
3.466992,-0.0421,0.0669,0.1477,0.0003,0.0018,0.0002,-37.425,-22.65,-7.95,,adl
3.468983,-0.0589,0.0594,0.1216,0.0003,0.0018,0.0002,-37.425,-22.65,-7.95,,adl
3.480221,-0.0589,0.0594,0.1216,0.0003,0.0018,0.0002,-37.05,-22.575,-7.725,,adl
3.485993,-0.0589,0.0594,0.1216,0.0003,0.0018,0.0002,-37.05,-22.575,-7.725,,adl
3.487946,-0.0351,0.0199,0.2191,0.0003,0.0018,0.0002,-37.05,-22.575,-7.725,,adl
3.505784,-0.0351,0.0199,0.2191,0.0003,0.0018,0.0002,-37.05,-22.575,-7.725,,adl
3.508615,-0.0189,-0.011,0.2005,0.0003,0.0018,0.0002,-37.05,-22.575,-7.725,,adl
3.525116,-0.0189,-0.011,0.2005,0.0032,0.0108,0.0015,-37.05,-22.575,-7.725,,adl
3.529872,-0.0189,-0.011,0.2005,0.0032,0.0108,0.0015,-37.05,-22.575,-7.725,,adl
3.53157,-0.003,0.0145,0.1108,0.0032,0.0108,0.0015,-37.05,-22.575,-7.725,,adl
3.549966,-0.003,0.0145,0.1108,0.0032,0.0108,0.0015,-37.05,-22.575,-7.725,,adl
3.55275,-0.0648,0.0564,0.0519,0.0032,0.0108,0.0015,-37.05,-22.575,-7.725,,adl
3.55489,-0.0648,0.0564,0.0519,0.0032,0.0108,0.0015,-36.45,-22.575,-7.725,,adl
3.569626,-0.0648,0.0564,0.0519,0.0032,0.0108,0.0015,-36.45,-22.575,-7.725,,adl
3.572655,-0.0667,0.0403,0.1478,0.0032,0.0108,0.0015,-36.45,-22.575,-7.725,,adl
3.587125,-0.0667,0.0403,0.1478,0.0032,0.0108,0.0015,-36.45,-22.575,-7.725,,adl
3.590596,-0.0489,0.012,0.2694,0.0032,0.0108,0.0015,-36.45,-22.575,-7.725,,adl
3.593975,-0.0489,0.012,0.2694,-0.0014,0.0055,-0.0027,-36.45,-22.575,-7.725,,adl
3.608518,-0.0489,0.012,0.2694,-0.0014,0.0055,-0.0027,-36.45,-22.575,-7.725,,adl
3.611062,-0.0467,-0.0174,0.2305,-0.0014,0.0055,-0.0027,-36.45,-22.575,-7.725,,adl
3.622914,-0.0467,-0.0174,0.2305,-0.0014,0.0055,-0.0027,-37.8,-22.35,-8.025,,adl
3.6279,-0.0467,-0.0174,0.2305,-0.0014,0.0055,-0.0027,-37.8,-22.35,-8.025,,adl
3.629747,-0.043,-0.0087,0.1471,-0.0014,0.0055,-0.0027,-37.8,-22.35,-8.025,,adl
3.647654,-0.043,-0.0087,0.1471,-0.0014,0.0055,-0.0027,-37.8,-22.35,-8.025,,adl
3.651798,-0.0127,0.017,0.1078,-0.0014,0.0055,-0.0027,-37.8,-22.35,-8.025,,adl
3.662189,-0.0127,0.017,0.1078,0.0075,0.0127,0.0002,-37.8,-22.35,-8.025,,adl
3.674529,-0.0127,0.017,0.1078,0.0075,0.0127,0.0002,-37.8,-22.35,-8.025,,adl
3.676678,0.0025,0.0457,0.1291,0.0075,0.0127,0.0002,-37.8,-22.35,-8.025,,adl
3.688539,0.0025,0.0457,0.1291,0.0075,0.0127,0.0002,-37.8,-22.35,-8.025,,adl
3.690556,0.008,0.0454,0.1298,0.0075,0.0127,0.0002,-37.8,-22.35,-8.025,,adl
3.69229,0.008,0.0454,0.1298,0.0075,0.0127,0.0002,-38.025,-22.05,-8.25,,adl
3.707265,0.008,0.0454,0.1298,0.0075,0.0127,0.0002,-38.025,-22.05,-8.25,,adl
3.708624,0.0165,0.0322,0.1452,0.0075,0.0127,0.0002,-38.025,-22.05,-8.25,,adl
3.726959,0.0165,0.0322,0.1452,0.0075,0.0127,0.0002,-38.025,-22.05,-8.25,,adl
3.728717,-0.0092,0.034,0.1751,0.0075,0.0127,0.0002,-38.025,-22.05,-8.25,,adl
3.731855,-0.0092,0.034,0.1751,-0.0005,0.0018,0.0047,-38.025,-22.05,-8.25,,adl
3.747095,-0.0092,0.034,0.1751,-0.0005,0.0018,0.0047,-38.025,-22.05,-8.25,,adl
3.748714,-0.0268,0.0304,0.1537,-0.0005,0.0018,0.0047,-38.025,-22.05,-8.25,,adl
3.761167,-0.0268,0.0304,0.1537,-0.0005,0.0018,0.0047,-37.425,-22.875,-8.25,,adl
3.769829,-0.0268,0.0304,0.1537,-0.0005,0.0018,0.0047,-37.425,-22.875,-8.25,,adl
3.772553,-0.0124,0.0124,0.153,-0.0005,0.0018,0.0047,-37.425,-22.875,-8.25,,adl
3.786792,-0.0124,0.0124,0.153,-0.0005,0.0018,0.0047,-37.425,-22.875,-8.25,,adl
3.790845,0.0129,-0.0002,0.1768,-0.0005,0.0018,0.0047,-37.425,-22.875,-8.25,,adl
3.806097,0.0129,-0.0002,0.1768,0.0009,0.0002,0.0009,-37.425,-22.875,-8.25,,adl
3.808537,0.0129,-0.0002,0.1768,0.0009,0.0002,0.0009,-37.425,-22.875,-8.25,,adl
3.809938,-0.012,0.0102,0.1733,0.0009,0.0002,0.0009,-37.425,-22.875,-8.25,,adl
3.829067,-0.012,0.0102,0.1733,0.0009,0.0002,0.0009,-37.425,-22.875,-8.25,,adl
3.831897,-0.034,0.0215,0.1537,0.0009,0.0002,0.0009,-37.425,-22.875,-8.25,,adl
3.833752,-0.034,0.0215,0.1537,0.0009,0.0002,0.0009,-37.725,-22.05,-8.025,,adl
3.848298,-0.034,0.0215,0.1537,0.0009,0.0002,0.0009,-37.725,-22.05,-8.025,,adl
3.850593,-0.0395,0.0309,0.1371,0.0009,0.0002,0.0009,-37.725,-22.05,-8.025,,adl
3.867768,-0.0395,0.0309,0.1371,0.0009,0.0002,0.0009,-37.725,-22.05,-8.025,,adl
3.87033,-0.0468,0.039,0.1439,0.0009,0.0002,0.0009,-37.725,-22.05,-8.025,,adl
3.873987,-0.0468,0.039,0.1439,0.0029,0.0034,0.0008,-37.725,-22.05,-8.025,,adl
3.887071,-0.0468,0.039,0.1439,0.0029,0.0034,0.0008,-37.725,-22.05,-8.025,,adl
3.891313,-0.048,0.0344,0.141,0.0029,0.0034,0.0008,-37.725,-22.05,-8.025,,adl
3.902396,-0.048,0.0344,0.141,0.0029,0.0034,0.0008,-37.725,-22.275,-7.95,,adl
3.907686,-0.048,0.0344,0.141,0.0029,0.0034,0.0008,-37.725,-22.275,-7.95,,adl
3.909894,-0.041,0.0289,0.151,0.0029,0.0034,0.0008,-37.725,-22.275,-7.95,,adl
3.926529,-0.041,0.0289,0.151,0.0029,0.0034,0.0008,-37.725,-22.275,-7.95,,adl
3.930121,-0.0422,0.03,0.1665,0.0029,0.0034,0.0008,-37.725,-22.275,-7.95,,adl
3.941232,-0.0422,0.03,0.1665,-0.0014,-0.0006,-0.0012,-37.725,-22.275,-7.95,,adl
3.946245,-0.0422,0.03,0.1665,-0.0014,-0.0006,-0.0012,-37.725,-22.275,-7.95,,adl
3.948786,-0.0373,0.0292,0.1523,-0.0014,-0.0006,-0.0012,-37.725,-22.275,-7.95,,adl
3.966129,-0.0373,0.0292,0.1523,-0.0014,-0.0006,-0.0012,-37.725,-22.275,-7.95,,adl
3.970151,-0.0219,0.0188,0.1286,-0.0014,-0.0006,-0.0012,-37.725,-22.275,-7.95,,adl
3.972713,-0.0219,0.0188,0.1286,-0.0014,-0.0006,-0.0012,-38.025,-22.425,-8.175,,adl
3.987692,-0.0219,0.0188,0.1286,-0.0014,-0.0006,-0.0012,-38.025,-22.425,-8.175,,adl
3.990846,-0.0103,0.0132,0.1922,-0.0014,-0.0006,-0.0012,-38.025,-22.425,-8.175,,adl
4.00499,-0.0103,0.0132,0.1922,-0.0014,-0.0006,-0.0012,-38.025,-22.425,-8.175,,adl
4.008535,-0.0339,-0.0019,0.199,-0.0014,-0.0006,-0.0012,-38.025,-22.425,-8.175,,adl
4.014663,-0.0339,-0.0019,0.199,0.0115,-0.0026,0.0009,-38.025,-22.425,-8.175,,adl
4.035878,-0.0339,-0.0019,0.199,0.0115,-0.0026,0.0009,-38.025,-22.425,-8.175,,adl
4.040359,-0.0469,0.0011,0.1509,0.0115,-0.0026,0.0009,-38.025,-22.425,-8.175,,adl
4.042986,-0.0469,0.0011,0.1509,0.0115,-0.0026,0.0009,-37.575,-22.125,-7.95,,adl
4.049792,-0.0469,0.0011,0.1509,0.0115,-0.0026,0.0009,-37.575,-22.125,-7.95,,adl
4.052062,-0.0431,0.028,0.17,0.0115,-0.0026,0.0009,-37.575,-22.125,-7.95,,adl
4.068457,-0.0431,0.028,0.17,0.0115,-0.0026,0.0009,-37.575,-22.125,-7.95,,adl
4.071435,-0.0377,0.0089,0.0692,0.0115,-0.0026,0.0009,-37.575,-22.125,-7.95,,adl
4.082889,-0.0377,0.0089,0.0692,0.0258,-0.0156,0.0061,-37.575,-22.125,-7.95,,adl
4.093091,-0.0377,0.0089,0.0692,0.0258,-0.0156,0.0061,-37.575,-22.125,-7.95,,adl
4.095282,-0.0072,0.0238,0.2108,0.0258,-0.0156,0.0061,-37.575,-22.125,-7.95,,adl
4.107485,-0.0072,0.0238,0.2108,0.0258,-0.0156,0.0061,-37.575,-22.125,-7.95,,adl
4.10994,-0.0322,0.0315,0.1785,0.0258,-0.0156,0.0061,-37.575,-22.125,-7.95,,adl
4.112468,-0.0322,0.0315,0.1785,0.0258,-0.0156,0.0061,-37.35,-22.35,-8.025,,adl
4.126993,-0.0322,0.0315,0.1785,0.0258,-0.0156,0.0061,-37.35,-22.35,-8.025,,adl
4.129754,0.0064,0.048,0.1028,0.0258,-0.0156,0.0061,-37.35,-22.35,-8.025,,adl
4.146247,0.0064,0.048,0.1028,0.0258,-0.0156,0.0061,-37.35,-22.35,-8.025,,adl
4.148144,0.0027,0.0859,0.0813,0.0258,-0.0156,0.0061,-37.35,-22.35,-8.025,,adl
4.151957,0.0027,0.0859,0.0813,0.0272,0.0069,0.0104,-37.35,-22.35,-8.025,,adl
4.165821,0.0027,0.0859,0.0813,0.0272,0.0069,0.0104,-37.35,-22.35,-8.025,,adl
4.168073,-0.0374,0.0457,0.1775,0.0272,0.0069,0.0104,-37.35,-22.35,-8.025,,adl
4.180052,-0.0374,0.0457,0.1775,0.0272,0.0069,0.0104,-37.875,-22.875,-7.875,,adl
4.186689,-0.0374,0.0457,0.1775,0.0272,0.0069,0.0104,-37.875,-22.875,-7.875,,adl
4.188802,-0.0807,-0.0135,0.3182,0.0272,0.0069,0.0104,-37.875,-22.875,-7.875,,adl
4.207834,-0.0807,-0.0135,0.3182,0.0272,0.0069,0.0104,-37.875,-22.875,-7.875,,adl
4.210263,-0.0733,-0.0764,0.2937,0.0272,0.0069,0.0104,-37.875,-22.875,-7.875,,adl
4.219403,-0.0733,-0.0764,0.2937,0.0444,-0.0567,-0.0005,-37.875,-22.875,-7.875,,adl
4.224458,-0.0733,-0.0764,0.2937,0.0444,-0.0567,-0.0005,-37.875,-22.875,-7.875,,adl
4.226161,-0.0589,-0.0661,0.1352,0.0444,-0.0567,-0.0005,-37.875,-22.875,-7.875,,adl
4.244978,-0.0589,-0.0661,0.1352,0.0444,-0.0567,-0.0005,-37.875,-22.875,-7.875,,adl
4.247726,-0.0362,-0.0086,0.0291,0.0444,-0.0567,-0.0005,-37.875,-22.875,-7.875,,adl
4.24974,-0.0362,-0.0086,0.0291,0.0444,-0.0567,-0.0005,-37.95,-22.35,-8.025,,adl
4.264343,-0.0362,-0.0086,0.0291,0.0444,-0.0567,-0.0005,-37.95,-22.35,-8.025,,adl
4.267296,0.0246,0.0387,0.1009,0.0444,-0.0567,-0.0005,-37.95,-22.35,-8.025,,adl
4.283642,0.0246,0.0387,0.1009,0.0444,-0.0567,-0.0005,-37.95,-22.35,-8.025,,adl
4.286061,0.0607,0.0649,0.1847,0.0444,-0.0567,-0.0005,-37.95,-22.35,-8.025,,adl
4.288564,0.0607,0.0649,0.1847,0.0217,-0.0336,0.0061,-37.95,-22.35,-8.025,,adl
4.304058,0.0607,0.0649,0.1847,0.0217,-0.0336,0.0061,-37.95,-22.35,-8.025,,adl
4.30689,0.0463,0.0761,0.1753,0.0217,-0.0336,0.0061,-37.95,-22.35,-8.025,,adl
4.32012,0.0463,0.0761,0.1753,0.0217,-0.0336,0.0061,-38.025,-22.35,-7.65,,adl
4.322385,0.0463,0.0761,0.1753,0.0217,-0.0336,0.0061,-38.025,-22.35,-7.65,,adl
4.323753,-0.0009,0.0879,0.1248,0.0217,-0.0336,0.0061,-38.025,-22.35,-7.65,,adl
4.342935,-0.0009,0.0879,0.1248,0.0217,-0.0336,0.0061,-38.025,-22.35,-7.65,,adl
4.345549,-0.0457,0.0761,0.1012,0.0217,-0.0336,0.0061,-38.025,-22.35,-7.65,,adl
4.356663,-0.0457,0.0761,0.1012,0.0014,-0.0043,0.0058,-38.025,-22.35,-7.65,,adl
4.361497,-0.0457,0.0761,0.1012,0.0014,-0.0043,0.0058,-38.025,-22.35,-7.65,,adl
4.362887,-0.0491,0.044,0.1152,0.0014,-0.0043,0.0058,-38.025,-22.35,-7.65,,adl
4.381234,-0.0491,0.044,0.1152,0.0014,-0.0043,0.0058,-38.025,-22.35,-7.65,,adl
4.383662,-0.0475,-0.0104,0.3027,0.0014,-0.0043,0.0058,-38.025,-22.35,-7.65,,adl
4.391565,-0.0475,-0.0104,0.3027,0.0014,-0.0043,0.0058,-37.725,-23.025,-8.25,,adl
4.406065,-0.0475,-0.0104,0.3027,0.0014,-0.0043,0.0058,-37.725,-23.025,-8.25,,adl
4.409398,-0.0116,-0.0447,0.173,0.0014,-0.0043,0.0058,-37.725,-23.025,-8.25,,adl
4.425087,-0.0116,-0.0447,0.173,0.0014,-0.0043,0.0058,-37.725,-23.025,-8.25,,adl
4.427628,-0.0124,0.0015,0.052,0.0014,-0.0043,0.0058,-37.725,-23.025,-8.25,,adl
4.429698,-0.0124,0.0015,0.052,0.0044,-0.0012,0.0002,-37.725,-23.025,-8.25,,adl
4.444855,-0.0124,0.0015,0.052,0.0044,-0.0012,0.0002,-37.725,-23.025,-8.25,,adl
4.447303,-0.0603,0.0472,0.0991,0.0044,-0.0012,0.0002,-37.725,-23.025,-8.25,,adl
4.460177,-0.0603,0.0472,0.0991,0.0044,-0.0012,0.0002,-37.125,-22.875,-7.95,,adl
4.463511,-0.0603,0.0472,0.0991,0.0044,-0.0012,0.0002,-37.125,-22.875,-7.95,,adl
4.465211,-0.0606,0.0332,0.2028,0.0044,-0.0012,0.0002,-37.125,-22.875,-7.95,,adl
4.483952,-0.0606,0.0332,0.2028,0.0044,-0.0012,0.0002,-37.125,-22.875,-7.95,,adl
4.48857,-0.0471,0.0162,0.2288,0.0044,-0.0012,0.0002,-37.125,-22.875,-7.95,,adl
4.498435,-0.0471,0.0162,0.2288,-0.0049,0.0069,0.0018,-37.125,-22.875,-7.95,,adl
4.509822,-0.0471,0.0162,0.2288,-0.0049,0.0069,0.0018,-37.125,-22.875,-7.95,,adl
4.512157,-0.0532,0.0106,0.1589,-0.0049,0.0069,0.0018,-37.125,-22.875,-7.95,,adl
4.523292,-0.0532,0.0106,0.1589,-0.0049,0.0069,0.0018,-37.125,-22.875,-7.95,,adl
4.525604,-0.0356,0.0106,0.1699,-0.0049,0.0069,0.0018,-37.125,-22.875,-7.95,,adl
4.529405,-0.0356,0.0106,0.1699,-0.0049,0.0069,0.0018,-37.275,-21.975,-7.35,,adl
4.542874,-0.0356,0.0106,0.1699,-0.0049,0.0069,0.0018,-37.275,-21.975,-7.35,,adl
4.545617,-0.0185,0.031,0.1615,-0.0049,0.0069,0.0018,-37.275,-21.975,-7.35,,adl
4.562519,-0.0185,0.031,0.1615,-0.0049,0.0069,0.0018,-37.275,-21.975,-7.35,,adl
4.565283,-0.0053,0.0426,0.1078,-0.0049,0.0069,0.0018,-37.275,-21.975,-7.35,,adl
4.569577,-0.0053,0.0426,0.1078,-0.0043,0.0058,0.0049,-37.275,-21.975,-7.35,,adl
4.582061,-0.0053,0.0426,0.1078,-0.0043,0.0058,0.0049,-37.275,-21.975,-7.35,,adl
4.584585,0.0059,0.0406,0.1095,-0.0043,0.0058,0.0049,-37.275,-21.975,-7.35,,adl
4.593393,0.0059,0.0406,0.1095,-0.0043,0.0058,0.0049,-37.725,-21.825,-7.65,,adl
4.603111,0.0059,0.0406,0.1095,-0.0043,0.0058,0.0049,-37.725,-21.825,-7.65,,adl
4.60566,-0.0033,0.0484,0.1478,-0.0043,0.0058,0.0049,-37.725,-21.825,-7.65,,adl
4.625348,-0.0033,0.0484,0.1478,-0.0043,0.0058,0.0049,-37.725,-21.825,-7.65,,adl
4.627807,-0.009,0.043,0.1542,-0.0043,0.0058,0.0049,-37.725,-21.825,-7.65,,adl
4.637596,-0.009,0.043,0.1542,-0.0099,-0.0055,0.0005,-37.725,-21.825,-7.65,,adl
4.640185,-0.009,0.043,0.1542,-0.0099,-0.0055,0.0005,-37.725,-21.825,-7.65,,adl
4.641451,-0.0102,0.0362,0.1486,-0.0099,-0.0055,0.0005,-37.725,-21.825,-7.65,,adl
4.664982,-0.0102,0.0362,0.1486,-0.0099,-0.0055,0.0005,-37.725,-21.825,-7.65,,adl
4.668063,-0.0165,0.0261,0.144,-0.0099,-0.0055,0.0005,-37.725,-21.825,-7.65,,adl
4.670399,-0.0165,0.0261,0.144,-0.0099,-0.0055,0.0005,-37.875,-21.975,-8.25,,adl
4.687782,-0.0165,0.0261,0.144,-0.0099,-0.0055,0.0005,-37.875,-21.975,-8.25,,adl
4.692494,0.0042,-0.0055,0.1596,-0.0099,-0.0055,0.0005,-37.875,-21.975,-8.25,,adl
4.705493,0.0042,-0.0055,0.1596,-0.0099,-0.0055,0.0005,-37.875,-21.975,-8.25,,adl
4.708063,-0.0036,0.0022,0.1755,-0.0099,-0.0055,0.0005,-37.875,-21.975,-8.25,,adl
4.710257,-0.0036,0.0022,0.1755,-0.0084,-0.0023,-0.002,-37.875,-21.975,-8.25,,adl
4.723479,-0.0036,0.0022,0.1755,-0.0084,-0.0023,-0.002,-37.875,-21.975,-8.25,,adl
4.726083,-0.0262,0.0216,0.1628,-0.0084,-0.0023,-0.002,-37.875,-21.975,-8.25,,adl
4.736181,-0.0262,0.0216,0.1628,-0.0084,-0.0023,-0.002,-38.25,-22.275,-7.875,,adl
4.742961,-0.0262,0.0216,0.1628,-0.0084,-0.0023,-0.002,-38.25,-22.275,-7.875,,adl
4.744923,-0.0368,0.0335,0.1388,-0.0084,-0.0023,-0.002,-38.25,-22.275,-7.875,,adl
4.763174,-0.0368,0.0335,0.1388,-0.0084,-0.0023,-0.002,-38.25,-22.275,-7.875,,adl
4.766076,-0.0448,0.0427,0.1316,-0.0084,-0.0023,-0.002,-38.25,-22.275,-7.875,,adl
4.779567,-0.0448,0.0427,0.1316,-0.007,0.0087,0.0008,-38.25,-22.275,-7.875,,adl
4.785988,-0.0448,0.0427,0.1316,-0.007,0.0087,0.0008,-38.25,-22.275,-7.875,,adl
4.787974,-0.0293,0.0481,0.1387,-0.007,0.0087,0.0008,-38.25,-22.275,-7.875,,adl
4.804085,-0.0293,0.0481,0.1387,-0.007,0.0087,0.0008,-38.25,-22.275,-7.875,,adl
4.807998,-0.0167,0.0583,0.1754,-0.007,0.0087,0.0008,-38.25,-22.275,-7.875,,adl
4.809309,-0.0167,0.0583,0.1754,-0.007,0.0087,0.0008,-38.325,-22.35,-7.65,,adl
4.821677,-0.0167,0.0583,0.1754,-0.007,0.0087,0.0008,-38.325,-22.35,-7.65,,adl
4.823296,-0.0398,0.0322,0.1948,-0.007,0.0087,0.0008,-38.325,-22.35,-7.65,,adl
4.836699,-0.0398,0.0322,0.1948,-0.007,0.0087,0.0008,-38.325,-22.35,-7.65,,adl
4.838505,-0.0667,0.0174,0.1471,-0.007,0.0087,0.0008,-38.325,-22.35,-7.65,,adl
4.845875,-0.0667,0.0174,0.1471,-0.0066,-0.0003,-0.0021,-38.325,-22.35,-7.65,,adl
4.861213,-0.0667,0.0174,0.1471,-0.0066,-0.0003,-0.0021,-38.325,-22.35,-7.65,,adl
4.863123,-0.0498,0.0091,0.1649,-0.0066,-0.0003,-0.0021,-38.325,-22.35,-7.65,,adl
4.871321,-0.0498,0.0091,0.1649,-0.0066,-0.0003,-0.0021,-37.95,-21.975,-7.95,,adl
4.88057,-0.0498,0.0091,0.1649,-0.0066,-0.0003,-0.0021,-37.95,-21.975,-7.95,,adl
4.883904,-0.026,-0.0071,0.0847,-0.0066,-0.0003,-0.0021,-37.95,-21.975,-7.95,,adl
4.899041,-0.026,-0.0071,0.0847,-0.0066,-0.0003,-0.0021,-37.95,-21.975,-7.95,,adl
4.901494,-0.0164,-0.0088,0.1487,-0.0066,-0.0003,-0.0021,-37.95,-21.975,-7.95,,adl
4.913786,-0.0164,-0.0088,0.1487,-0.0128,0.0012,0.0015,-37.95,-21.975,-7.95,,adl
4.923967,-0.0164,-0.0088,0.1487,-0.0128,0.0012,0.0015,-37.95,-21.975,-7.95,,adl
4.926426,-0.0289,0.052,0.1302,-0.0128,0.0012,0.0015,-37.95,-21.975,-7.95,,adl
4.938294,-0.0289,0.052,0.1302,-0.0128,0.0012,0.0015,-37.95,-21.975,-7.95,,adl
4.940319,-0.0224,0.0875,0.1252,-0.0128,0.0012,0.0015,-37.95,-21.975,-7.95,,adl
4.941681,-0.0224,0.0875,0.1252,-0.0128,0.0012,0.0015,-37.875,-22.35,-8.175,,adl
4.958038,-0.0224,0.0875,0.1252,-0.0128,0.0012,0.0015,-37.875,-22.35,-8.175,,adl
4.960327,-0.0083,0.0835,0.1019,-0.0128,0.0012,0.0015,-37.875,-22.35,-8.175,,adl
4.977715,-0.0083,0.0835,0.1019,-0.0128,0.0012,0.0015,-37.875,-22.35,-8.175,,adl
4.979749,-0.0135,0.0435,0.2054,-0.0128,0.0012,0.0015,-37.875,-22.35,-8.175,,adl
4.982509,-0.0135,0.0435,0.2054,-0.0047,-0.0046,0.0012,-37.875,-22.35,-8.175,,adl
4.997143,-0.0135,0.0435,0.2054,-0.0047,-0.0046,0.0012,-37.875,-22.35,-8.175,,adl
4.999087,-0.0581,-0.0132,0.2679,-0.0047,-0.0046,0.0012,-37.875,-22.35,-8.175,,adl
5.009388,-0.0581,-0.0132,0.2679,-0.0047,-0.0046,0.0012,-37.725,-22.05,-7.725,,adl
5.019078,-0.0581,-0.0132,0.2679,-0.0047,-0.0046,0.0012,-37.725,-22.05,-7.725,,adl
5.021591,-0.0285,-0.0575,0.1575,-0.0047,-0.0046,0.0012,-37.725,-22.05,-7.725,,adl
5.036731,-0.0285,-0.0575,0.1575,-0.0047,-0.0046,0.0012,-37.725,-22.05,-7.725,,adl
5.039913,-0.0237,-0.0487,0.1589,-0.0047,-0.0046,0.0012,-37.725,-22.05,-7.725,,adl
5.056073,-0.0237,-0.0487,0.1589,0.0125,-0.0571,-0.0041,-37.725,-22.05,-7.725,,adl
5.072841,-0.0237,-0.0487,0.1589,0.0125,-0.0571,-0.0041,-37.725,-22.05,-7.725,,adl
5.075641,-0.0216,-0.004,0.169,0.0125,-0.0571,-0.0041,-37.725,-22.05,-7.725,,adl
5.085883,-0.0216,-0.004,0.169,0.0125,-0.0571,-0.0041,-37.725,-22.05,-7.725,,adl
5.088547,0.0146,0.0384,0.127,0.0125,-0.0571,-0.0041,-37.725,-22.05,-7.725,,adl
5.091393,0.0146,0.0384,0.127,0.0125,-0.0571,-0.0041,-38.1,-21.75,-7.875,,adl
5.107314,0.0146,0.0384,0.127,0.0125,-0.0571,-0.0041,-38.1,-21.75,-7.875,,adl
5.108629,0.0193,0.0561,0.172,0.0125,-0.0571,-0.0041,-38.1,-21.75,-7.875,,adl
5.119803,0.0193,0.0561,0.172,0.0125,-0.0571,-0.0041,-38.1,-21.75,-7.875,,adl
5.121727,0.0034,0.0574,0.202,0.0125,-0.0571,-0.0041,-38.1,-21.75,-7.875,,adl
5.12417,0.0034,0.0574,0.202,-0.0163,-0.0093,-0.0038,-38.1,-21.75,-7.875,,adl
5.140523,0.0034,0.0574,0.202,-0.0163,-0.0093,-0.0038,-38.1,-21.75,-7.875,,adl
5.142155,-0.0149,0.0792,0.1696,-0.0163,-0.0093,-0.0038,-38.1,-21.75,-7.875,,adl
5.149413,-0.0149,0.0792,0.1696,-0.0163,-0.0093,-0.0038,-37.125,-22.35,-8.025,,adl
5.15857,-0.0149,0.0792,0.1696,-0.0163,-0.0093,-0.0038,-37.125,-22.35,-8.025,,adl
5.160227,-0.0408,0.086,0.114,-0.0163,-0.0093,-0.0038,-37.125,-22.35,-8.025,,adl
5.178377,-0.0408,0.086,0.114,-0.0163,-0.0093,-0.0038,-37.125,-22.35,-8.025,,adl
5.181277,-0.0673,0.0617,0.0508,-0.0163,-0.0093,-0.0038,-37.125,-22.35,-8.025,,adl
5.192785,-0.0673,0.0617,0.0508,-0.0145,0.0055,-0.0017,-37.125,-22.35,-8.025,,adl
5.197642,-0.0673,0.0617,0.0508,-0.0145,0.0055,-0.0017,-37.125,-22.35,-8.025,,adl
5.199097,-0.0757,0.0197,0.2478,-0.0145,0.0055,-0.0017,-37.125,-22.35,-8.025,,adl
5.217303,-0.0757,0.0197,0.2478,-0.0145,0.0055,-0.0017,-37.125,-22.35,-8.025,,adl
5.22045,-0.0644,-0.0141,0.1776,-0.0145,0.0055,-0.0017,-37.125,-22.35,-8.025,,adl
5.22337,-0.0644,-0.0141,0.1776,-0.0145,0.0055,-0.0017,-37.725,-22.125,-8.175,,adl
5.242311,-0.0644,-0.0141,0.1776,-0.0145,0.0055,-0.0017,-37.725,-22.125,-8.175,,adl
5.245924,-0.0366,0.0063,0.0551,-0.0145,0.0055,-0.0017,-37.725,-22.125,-8.175,,adl
5.256899,-0.0366,0.0063,0.0551,-0.0145,0.0055,-0.0017,-37.725,-22.125,-8.175,,adl
5.259683,-0.04,0.0534,0.0964,-0.0145,0.0055,-0.0017,-37.725,-22.125,-8.175,,adl
5.26239,-0.04,0.0534,0.0964,-0.0041,0.0003,-0.0003,-37.725,-22.125,-8.175,,adl
5.276416,-0.04,0.0534,0.0964,-0.0041,0.0003,-0.0003,-37.725,-22.125,-8.175,,adl
5.2791,-0.0167,0.042,0.2235,-0.0041,0.0003,-0.0003,-37.725,-22.125,-8.175,,adl
5.2899,-0.0167,0.042,0.2235,-0.0041,0.0003,-0.0003,-37.425,-22.05,-7.575,,adl
5.304055,-0.0167,0.042,0.2235,-0.0041,0.0003,-0.0003,-37.425,-22.05,-7.575,,adl
5.30728,-0.0173,0.004,0.2436,-0.0041,0.0003,-0.0003,-37.425,-22.05,-7.575,,adl
5.320817,-0.0173,0.004,0.2436,-0.0041,0.0003,-0.0003,-37.425,-22.05,-7.575,,adl
5.325252,-0.0443,-0.0179,0.1458,-0.0041,0.0003,-0.0003,-37.425,-22.05,-7.575,,adl
5.339828,-0.0443,-0.0179,0.1458,0.0057,0.0079,0.0023,-37.425,-22.05,-7.575,,adl
5.342222,-0.0443,-0.0179,0.1458,0.0057,0.0079,0.0023,-37.425,-22.05,-7.575,,adl
5.343907,-0.0452,-0.0086,0.0711,0.0057,0.0079,0.0023,-37.425,-22.05,-7.575,,adl
5.359156,-0.0452,-0.0086,0.0711,0.0057,0.0079,0.0023,-37.425,-22.05,-7.575,,adl
5.361929,0.0002,0.029,0.1333,0.0057,0.0079,0.0023,-37.425,-22.05,-7.575,,adl
5.363724,0.0002,0.029,0.1333,0.0057,0.0079,0.0023,-37.8,-22.35,-7.35,,adl
5.378779,0.0002,0.029,0.1333,0.0057,0.0079,0.0023,-37.8,-22.35,-7.35,,adl
5.380575,0.0231,0.0598,0.1555,0.0057,0.0079,0.0023,-37.8,-22.35,-7.35,,adl
5.398502,0.0231,0.0598,0.1555,0.0057,0.0079,0.0023,-37.8,-22.35,-7.35,,adl
5.401042,0.0406,0.0574,0.1404,0.0057,0.0079,0.0023,-37.8,-22.35,-7.35,,adl
5.403573,0.0406,0.0574,0.1404,-0.0047,0.0073,0.0061,-37.8,-22.35,-7.35,,adl
5.428365,0.0406,0.0574,0.1404,-0.0047,0.0073,0.0061,-37.8,-22.35,-7.35,,adl
5.431288,0.0291,0.0472,0.1463,-0.0047,0.0073,0.0061,-37.8,-22.35,-7.35,,adl
5.432973,0.0291,0.0472,0.1463,-0.0047,0.0073,0.0061,-37.725,-22.35,-7.65,,adl
5.436933,0.0291,0.0472,0.1463,-0.0047,0.0073,0.0061,-37.725,-22.35,-7.65,,adl
5.438476,0.0064,0.0614,0.1368,-0.0047,0.0073,0.0061,-37.725,-22.35,-7.65,,adl
5.457064,0.0064,0.0614,0.1368,-0.0047,0.0073,0.0061,-37.725,-22.35,-7.65,,adl
5.459951,-0.0193,0.051,0.1309,-0.0047,0.0073,0.0061,-37.725,-22.35,-7.65,,adl
5.473183,-0.0193,0.051,0.1309,-0.0017,-0.0003,-0.0002,-37.725,-22.35,-7.65,,adl
5.476487,-0.0193,0.051,0.1309,-0.0017,-0.0003,-0.0002,-37.725,-22.35,-7.65,,adl
5.478015,-0.0321,0.0299,0.1368,-0.0017,-0.0003,-0.0002,-37.725,-22.35,-7.65,,adl
5.496016,-0.0321,0.0299,0.1368,-0.0017,-0.0003,-0.0002,-37.725,-22.35,-7.65,,adl
5.498213,-0.0263,0.0102,0.154,-0.0017,-0.0003,-0.0002,-37.725,-22.35,-7.65,,adl
5.499597,-0.0263,0.0102,0.154,-0.0017,-0.0003,-0.0002,-37.725,-22.65,-7.65,,adl
5.516229,-0.0263,0.0102,0.154,-0.0017,-0.0003,-0.0002,-37.725,-22.65,-7.65,,adl
5.520817,-0.0396,0.0011,0.1343,-0.0017,-0.0003,-0.0002,-37.725,-22.65,-7.65,,adl
5.536907,-0.0396,0.0011,0.1343,-0.0017,-0.0003,-0.0002,-37.725,-22.65,-7.65,,adl
5.538156,-0.0525,0.0164,0.1267,-0.0017,-0.0003,-0.0002,-37.725,-22.65,-7.65,,adl
5.540786,-0.0525,0.0164,0.1267,0.0014,0.0009,-0.0053,-37.725,-22.65,-7.65,,adl
5.55897,-0.0525,0.0164,0.1267,0.0014,0.0009,-0.0053,-37.725,-22.65,-7.65,,adl
5.561268,-0.0675,0.0178,0.1431,0.0014,0.0009,-0.0053,-37.725,-22.65,-7.65,,adl
5.572787,-0.0675,0.0178,0.1431,0.0014,0.0009,-0.0053,-38.025,-21.45,-7.65,,adl
5.58053,-0.0675,0.0178,0.1431,0.0014,0.0009,-0.0053,-38.025,-21.45,-7.65,,adl
5.581269,-0.0547,0.043,0.1396,0.0014,0.0009,-0.0053,-38.025,-21.45,-7.65,,adl
5.600383,-0.0547,0.043,0.1396,0.0014,0.0009,-0.0053,-38.025,-21.45,-7.65,,adl
5.602931,-0.0293,0.0513,0.1227,0.0014,0.0009,-0.0053,-38.025,-21.45,-7.65,,adl
5.614399,-0.0293,0.0513,0.1227,0.0144,-0.0057,-0.0005,-38.025,-21.45,-7.65,,adl
5.619116,-0.0293,0.0513,0.1227,0.0144,-0.0057,-0.0005,-38.025,-21.45,-7.65,,adl
5.620488,-0.014,0.0401,0.0979,0.0144,-0.0057,-0.0005,-38.025,-21.45,-7.65,,adl
5.637843,-0.014,0.0401,0.0979,0.0144,-0.0057,-0.0005,-38.025,-21.45,-7.65,,adl
5.639735,-0.0157,0.0387,0.163,0.0144,-0.0057,-0.0005,-38.025,-21.45,-7.65,,adl
5.641026,-0.0157,0.0387,0.163,0.0144,-0.0057,-0.0005,-37.2,-21.825,-6.975,,adl
5.658102,-0.0157,0.0387,0.163,0.0144,-0.0057,-0.0005,-37.2,-21.825,-6.975,,adl
5.659877,-0.0319,0.0301,0.0995,0.0144,-0.0057,-0.0005,-37.2,-21.825,-6.975,,adl
5.678388,-0.0319,0.0301,0.0995,0.0144,-0.0057,-0.0005,-37.2,-21.825,-6.975,,adl
5.68018,-0.0006,-0.0038,0.1754,0.0144,-0.0057,-0.0005,-37.2,-21.825,-6.975,,adl
5.682796,-0.0006,-0.0038,0.1754,-0.0122,-0.0027,-0.0037,-37.2,-21.825,-6.975,,adl
5.696873,-0.0006,-0.0038,0.1754,-0.0122,-0.0027,-0.0037,-37.2,-21.825,-6.975,,adl
5.699145,-0.0241,0.0413,0.1198,-0.0122,-0.0027,-0.0037,-37.2,-21.825,-6.975,,adl
5.709536,-0.0241,0.0413,0.1198,-0.0122,-0.0027,-0.0037,-37.05,-22.65,-7.875,,adl
5.716042,-0.0241,0.0413,0.1198,-0.0122,-0.0027,-0.0037,-37.05,-22.65,-7.875,,adl
5.717578,-0.0183,0.051,0.1348,-0.0122,-0.0027,-0.0037,-37.05,-22.65,-7.875,,adl
5.737278,-0.0183,0.051,0.1348,-0.0122,-0.0027,-0.0037,-37.05,-22.65,-7.875,,adl
5.742051,-0.0171,0.0397,0.0895,-0.0122,-0.0027,-0.0037,-37.05,-22.65,-7.875,,adl
5.763497,-0.0171,0.0397,0.0895,0.0009,0.0119,-0.0011,-37.05,-22.65,-7.875,,adl
5.769159,-0.0171,0.0397,0.0895,0.0009,0.0119,-0.0011,-37.05,-22.65,-7.875,,adl
5.772305,-0.0123,0.0158,0.1833,0.0009,0.0119,-0.0011,-37.05,-22.65,-7.875,,adl
5.775109,-0.0123,0.0158,0.1833,0.0009,0.0119,-0.0011,-37.05,-22.65,-7.875,,adl
5.776569,-0.0459,-0.0245,0.2821,0.0009,0.0119,-0.0011,-37.05,-22.65,-7.875,,adl
5.784088,-0.0459,-0.0245,0.2821,0.0009,0.0119,-0.0011,-38.55,-22.35,-7.725,,adl
5.794261,-0.0459,-0.0245,0.2821,0.0009,0.0119,-0.0011,-38.55,-22.35,-7.725,,adl
5.796361,-0.0368,-0.0518,0.152,0.0009,0.0119,-0.0011,-38.55,-22.35,-7.725,,adl
5.813902,-0.0368,-0.0518,0.152,0.0009,0.0119,-0.0011,-38.55,-22.35,-7.725,,adl
5.81775,-0.0293,-0.0055,0.0457,0.0009,0.0119,-0.0011,-38.55,-22.35,-7.725,,adl
5.820471,-0.0293,-0.0055,0.0457,0.0333,-0.0359,-0.0011,-38.55,-22.35,-7.725,,adl
5.835001,-0.0293,-0.0055,0.0457,0.0333,-0.0359,-0.0011,-38.55,-22.35,-7.725,,adl
5.837791,-0.0337,0.0584,0.0549,0.0333,-0.0359,-0.0011,-38.55,-22.35,-7.725,,adl
5.859166,-0.0337,0.0584,0.0549,0.0333,-0.0359,-0.0011,-37.8,-22.65,-7.425,,adl
5.861927,-0.0337,0.0584,0.0549,0.0333,-0.0359,-0.0011,-37.8,-22.65,-7.425,,adl
5.864756,0.0082,0.0881,0.0967,0.0333,-0.0359,-0.0011,-37.8,-22.65,-7.425,,adl
5.87473,0.0082,0.0881,0.0967,0.0333,-0.0359,-0.0011,-37.8,-22.65,-7.425,,adl
5.876832,0.002,0.0638,0.1548,0.0333,-0.0359,-0.0011,-37.8,-22.65,-7.425,,adl
5.887151,0.002,0.0638,0.1548,-0.0119,-0.0024,-0.0005,-37.8,-22.65,-7.425,,adl
5.892101,0.002,0.0638,0.1548,-0.0119,-0.0024,-0.0005,-37.8,-22.65,-7.425,,adl
5.893353,-0.0168,0.0575,0.1671,-0.0119,-0.0024,-0.0005,-37.8,-22.65,-7.425,,adl
5.912178,-0.0168,0.0575,0.1671,-0.0119,-0.0024,-0.0005,-37.8,-22.65,-7.425,,adl
5.91474,-0.0319,0.0565,0.1155,-0.0119,-0.0024,-0.0005,-37.8,-22.65,-7.425,,adl
5.920398,-0.0319,0.0565,0.1155,-0.0119,-0.0024,-0.0005,-37.95,-22.425,-7.35,,adl
5.931359,-0.0319,0.0565,0.1155,-0.0119,-0.0024,-0.0005,-37.95,-22.425,-7.35,,adl
5.933663,-0.0309,0.0473,0.0924,-0.0119,-0.0024,-0.0005,-37.95,-22.425,-7.35,,adl
5.951078,-0.0309,0.0473,0.0924,-0.0119,-0.0024,-0.0005,-37.95,-22.425,-7.35,,adl
5.953907,-0.0371,0.0111,0.102,-0.0119,-0.0024,-0.0005,-37.95,-22.425,-7.35,,adl
5.956031,-0.0371,0.0111,0.102,-0.0159,0.0037,-0.0017,-37.95,-22.425,-7.35,,adl
5.975561,-0.0371,0.0111,0.102,-0.0159,0.0037,-0.0017,-37.95,-22.425,-7.35,,adl
5.977949,-0.0362,-0.0218,0.1576,-0.0159,0.0037,-0.0017,-37.95,-22.425,-7.35,,adl
5.991799,-0.0362,-0.0218,0.1576,-0.0159,0.0037,-0.0017,-37.575,-22.95,-7.425,,adl
5.994584,-0.0362,-0.0218,0.1576,-0.0159,0.0037,-0.0017,-37.575,-22.95,-7.425,,adl
5.996387,-0.0307,-0.0315,0.1867,-0.0159,0.0037,-0.0017,-37.575,-22.95,-7.425,,adl
6.014784,-0.0307,-0.0315,0.1867,-0.0159,0.0037,-0.0017,-37.575,-22.95,-7.425,,adl
6.018135,-0.0114,0.016,0.0183,-0.0159,0.0037,-0.0017,-37.575,-22.95,-7.425,,adl
6.02885,-0.0114,0.016,0.0183,-0.0021,0.0005,-0.002,-37.575,-22.95,-7.425,,adl
6.034498,-0.0114,0.016,0.0183,-0.0021,0.0005,-0.002,-37.575,-22.95,-7.425,,adl
6.036195,-0.0219,0.0685,0.0806,-0.0021,0.0005,-0.002,-37.575,-22.95,-7.425,,adl
6.058821,-0.0219,0.0685,0.0806,-0.0021,0.0005,-0.002,-37.575,-22.95,-7.425,,adl
6.061973,-0.0116,0.0608,0.1777,-0.0021,0.0005,-0.002,-37.575,-22.95,-7.425,,adl
6.064896,-0.0116,0.0608,0.1777,-0.0021,0.0005,-0.002,-37.425,-22.425,-7.65,,adl
6.074132,-0.0116,0.0608,0.1777,-0.0021,0.0005,-0.002,-37.425,-22.425,-7.65,,adl
6.07613,0.0034,0.0276,0.2078,-0.0021,0.0005,-0.002,-37.425,-22.425,-7.65,,adl
6.092749,0.0034,0.0276,0.2078,-0.0021,0.0005,-0.002,-37.425,-22.425,-7.65,,adl
6.095424,-0.0367,0.0172,0.143,-0.0021,0.0005,-0.002,-37.425,-22.425,-7.65,,adl
6.097259,-0.0367,0.0172,0.143,-0.0024,0.0093,-0.0017,-37.425,-22.425,-7.65,,adl
6.113034,-0.0367,0.0172,0.143,-0.0024,0.0093,-0.0017,-37.425,-22.425,-7.65,,adl
6.115821,-0.0408,0.0167,0.1068,-0.0024,0.0093,-0.0017,-37.425,-22.425,-7.65,,adl
6.122535,-0.0408,0.0167,0.1068,-0.0024,0.0093,-0.0017,-37.725,-22.35,-7.35,,adl
6.132112,-0.0408,0.0167,0.1068,-0.0024,0.0093,-0.0017,-37.725,-22.35,-7.35,,adl
6.133934,-0.0312,0.0081,0.0933,-0.0024,0.0093,-0.0017,-37.725,-22.35,-7.35,,adl
6.151753,-0.0312,0.0081,0.0933,-0.0024,0.0093,-0.0017,-37.725,-22.35,-7.35,,adl
6.155102,-0.0112,0.0218,0.114,-0.0024,0.0093,-0.0017,-37.725,-22.35,-7.35,,adl
6.165577,-0.0112,0.0218,0.114,-0.0159,0.0127,0.0003,-37.725,-22.35,-7.35,,adl
6.174321,-0.0112,0.0218,0.114,-0.0159,0.0127,0.0003,-37.725,-22.35,-7.35,,adl
6.176052,-0.0153,0.0401,0.1017,-0.0159,0.0127,0.0003,-37.725,-22.35,-7.35,,adl
6.189052,-0.0153,0.0401,0.1017,-0.0159,0.0127,0.0003,-37.725,-22.35,-7.35,,adl
6.191188,-0.0003,0.0349,0.0849,-0.0159,0.0127,0.0003,-37.725,-22.35,-7.35,,adl
6.192679,-0.0003,0.0349,0.0849,-0.0159,0.0127,0.0003,-37.5,-22.275,-8.025,,adl
6.210033,-0.0003,0.0349,0.0849,-0.0159,0.0127,0.0003,-37.5,-22.275,-8.025,,adl
6.212507,-0.0069,0.0454,0.1273,-0.0159,0.0127,0.0003,-37.5,-22.275,-8.025,,adl
6.229312,-0.0069,0.0454,0.1273,-0.0159,0.0127,0.0003,-37.5,-22.275,-8.025,,adl
6.231743,-0.0097,0.0325,0.1357,-0.0159,0.0127,0.0003,-37.5,-22.275,-8.025,,adl
6.23504,-0.0097,0.0325,0.1357,-0.0243,0.0026,-0.0024,-37.5,-22.275,-8.025,,adl
6.258095,-0.0097,0.0325,0.1357,-0.0243,0.0026,-0.0024,-37.5,-22.275,-8.025,,adl
6.261137,-0.0085,0.0041,0.1601,-0.0243,0.0026,-0.0024,-37.5,-22.275,-8.025,,adl
6.264654,-0.0085,0.0041,0.1601,-0.0243,0.0026,-0.0024,-37.575,-22.125,-8.25,,adl
6.273423,-0.0085,0.0041,0.1601,-0.0243,0.0026,-0.0024,-37.575,-22.125,-8.25,,adl
6.275832,-0.0054,0.0009,0.1525,-0.0243,0.0026,-0.0024,-37.575,-22.125,-8.25,,adl
6.29356,-0.0054,0.0009,0.1525,-0.0243,0.0026,-0.0024,-37.575,-22.125,-8.25,,adl
6.296191,-0.0282,0.0145,0.0823,-0.0243,0.0026,-0.0024,-37.575,-22.125,-8.25,,adl
6.307505,-0.0282,0.0145,0.0823,-0.0157,0.0144,-0.0037,-37.575,-22.125,-8.25,,adl
6.31291,-0.0282,0.0145,0.0823,-0.0157,0.0144,-0.0037,-37.575,-22.125,-8.25,,adl
6.315891,-0.0362,0.0491,0.0683,-0.0157,0.0144,-0.0037,-37.575,-22.125,-8.25,,adl
6.332188,-0.0362,0.0491,0.0683,-0.0157,0.0144,-0.0037,-37.575,-22.125,-8.25,,adl
6.334207,-0.0243,0.0355,0.1463,-0.0157,0.0144,-0.0037,-37.575,-22.125,-8.25,,adl
6.336122,-0.0243,0.0355,0.1463,-0.0157,0.0144,-0.0037,-37.575,-22.05,-7.95,,adl
6.353265,-0.0243,0.0355,0.1463,-0.0157,0.0144,-0.0037,-37.575,-22.05,-7.95,,adl
6.356489,-0.0514,0.0304,0.1499,-0.0157,0.0144,-0.0037,-37.575,-22.05,-7.95,,adl
6.371958,-0.0514,0.0304,0.1499,-0.0157,0.0144,-0.0037,-37.575,-22.05,-7.95,,adl
6.374974,-0.0263,0.019,0.09,-0.0157,0.0144,-0.0037,-37.575,-22.05,-7.95,,adl
6.376987,-0.0263,0.019,0.09,-0.0124,-0.0009,-0.0034,-37.575,-22.05,-7.95,,adl
6.389649,-0.0263,0.019,0.09,-0.0124,-0.0009,-0.0034,-37.575,-22.05,-7.95,,adl
6.3925,-0.0147,0.0305,0.1378,-0.0124,-0.0009,-0.0034,-37.575,-22.05,-7.95,,adl
6.401322,-0.0147,0.0305,0.1378,-0.0124,-0.0009,-0.0034,-37.425,-22.35,-7.95,,adl
6.410531,-0.0147,0.0305,0.1378,-0.0124,-0.0009,-0.0034,-37.425,-22.35,-7.95,,adl
6.412779,-0.032,0.0257,0.041,-0.0124,-0.0009,-0.0034,-37.425,-22.35,-7.95,,adl
6.429952,-0.032,0.0257,0.041,-0.0124,-0.0009,-0.0034,-37.425,-22.35,-7.95,,adl
6.433179,0.0132,0.0062,0.1712,-0.0124,-0.0009,-0.0034,-37.425,-22.35,-7.95,,adl
6.444733,0.0132,0.0062,0.1712,-0.018,0.0061,-0.0015,-37.425,-22.35,-7.95,,adl
6.449065,0.0132,0.0062,0.1712,-0.018,0.0061,-0.0015,-37.425,-22.35,-7.95,,adl
6.450366,-0.0201,0.0465,0.1119,-0.018,0.0061,-0.0015,-37.425,-22.35,-7.95,,adl
6.46983,-0.0201,0.0465,0.1119,-0.018,0.0061,-0.0015,-37.425,-22.35,-7.95,,adl
6.473401,-0.0223,0.0468,0.0722,-0.018,0.0061,-0.0015,-37.425,-22.35,-7.95,,adl
6.475794,-0.0223,0.0468,0.0722,-0.018,0.0061,-0.0015,-37.425,-22.35,-7.725,,adl
6.487396,-0.0223,0.0468,0.0722,-0.018,0.0061,-0.0015,-37.425,-22.35,-7.725,,adl
6.490248,-0.0309,0.0686,-0.0045,-0.018,0.0061,-0.0015,-37.425,-22.35,-7.725,,adl
6.5085,-0.0309,0.0686,-0.0045,-0.018,0.0061,-0.0015,-37.425,-22.35,-7.725,,adl
6.510822,-0.0237,0.0488,0.1059,-0.018,0.0061,-0.0015,-37.425,-22.35,-7.725,,adl
6.513224,-0.0237,0.0488,0.1059,-0.0136,0.0139,-0.0015,-37.425,-22.35,-7.725,,adl
6.527938,-0.0237,0.0488,0.1059,-0.0136,0.0139,-0.0015,-37.425,-22.35,-7.725,,adl
6.530826,-0.0481,-0.0234,0.2727,-0.0136,0.0139,-0.0015,-37.425,-22.35,-7.725,,adl
6.539801,-0.0481,-0.0234,0.2727,-0.0136,0.0139,-0.0015,-37.5,-22.35,-8.25,,adl
6.547502,-0.0481,-0.0234,0.2727,-0.0136,0.0139,-0.0015,-37.5,-22.35,-8.25,,adl
6.549348,-0.0131,-0.0789,0.1945,-0.0136,0.0139,-0.0015,-37.5,-22.35,-8.25,,adl
6.567753,-0.0131,-0.0789,0.1945,-0.0136,0.0139,-0.0015,-37.5,-22.35,-8.25,,adl
6.570415,-0.0179,-0.0552,0.1022,-0.0136,0.0139,-0.0015,-37.5,-22.35,-8.25,,adl
6.582154,-0.0179,-0.0552,0.1022,0.0011,-0.0211,-0.0029,-37.5,-22.35,-8.25,,adl
6.591096,-0.0179,-0.0552,0.1022,0.0011,-0.0211,-0.0029,-37.5,-22.35,-8.25,,adl
6.593143,-0.0231,-0.0004,0.0989,0.0011,-0.0211,-0.0029,-37.5,-22.35,-8.25,,adl
6.610945,-0.0231,-0.0004,0.0989,0.0011,-0.0211,-0.0029,-37.5,-22.35,-8.25,,adl
6.613952,0.0152,0.0531,0.1307,0.0011,-0.0211,-0.0029,-37.5,-22.35,-8.25,,adl
6.616336,0.0152,0.0531,0.1307,0.0011,-0.0211,-0.0029,-37.875,-22.35,-8.25,,adl
6.631673,0.0152,0.0531,0.1307,0.0011,-0.0211,-0.0029,-37.875,-22.35,-8.25,,adl
6.632791,0.0059,0.0593,0.1412,0.0011,-0.0211,-0.0029,-37.875,-22.35,-8.25,,adl
6.651304,0.0059,0.0593,0.1412,0.0011,-0.0211,-0.0029,-37.875,-22.35,-8.25,,adl
6.653197,0.0008,0.069,0.0987,0.0011,-0.0211,-0.0029,-37.875,-22.35,-8.25,,adl
6.657198,0.0008,0.069,0.0987,-0.0125,0.0024,-0.0017,-37.875,-22.35,-8.25,,adl
6.672002,0.0008,0.069,0.0987,-0.0125,0.0024,-0.0017,-37.875,-22.35,-8.25,,adl
6.673443,-0.0154,0.0711,0.074,-0.0125,0.0024,-0.0017,-37.875,-22.35,-8.25,,adl
6.680879,-0.0154,0.0711,0.074,-0.0125,0.0024,-0.0017,-37.05,-22.425,-7.725,,adl
6.688444,-0.0154,0.0711,0.074,-0.0125,0.0024,-0.0017,-37.05,-22.425,-7.725,,adl
6.690044,-0.0385,0.0563,0.0858,-0.0125,0.0024,-0.0017,-37.05,-22.425,-7.725,,adl
6.709731,-0.0385,0.0563,0.0858,-0.0125,0.0024,-0.0017,-37.05,-22.425,-7.725,,adl
6.711747,-0.037,0.0357,0.0787,-0.0125,0.0024,-0.0017,-37.05,-22.425,-7.725,,adl
6.724217,-0.037,0.0357,0.0787,-0.0218,0.0119,-0.0034,-37.05,-22.425,-7.725,,adl
6.730425,-0.037,0.0357,0.0787,-0.0218,0.0119,-0.0034,-37.05,-22.425,-7.725,,adl
6.731975,-0.0391,-0.0067,0.1707,-0.0218,0.0119,-0.0034,-37.05,-22.425,-7.725,,adl
6.74903,-0.0391,-0.0067,0.1707,-0.0218,0.0119,-0.0034,-37.05,-22.425,-7.725,,adl
6.752331,-0.0304,-0.0351,0.2152,-0.0218,0.0119,-0.0034,-37.05,-22.425,-7.725,,adl
6.754594,-0.0304,-0.0351,0.2152,-0.0218,0.0119,-0.0034,-37.5,-22.35,-7.875,,adl
6.767664,-0.0304,-0.0351,0.2152,-0.0218,0.0119,-0.0034,-37.5,-22.35,-7.875,,adl
6.770273,-0.0211,-0.0376,0.0593,-0.0218,0.0119,-0.0034,-37.5,-22.35,-7.875,,adl
6.789051,-0.0211,-0.0376,0.0593,-0.0218,0.0119,-0.0034,-37.5,-22.35,-7.875,,adl
6.791441,-0.0415,0.0342,0.0238,-0.0218,0.0119,-0.0034,-37.5,-22.35,-7.875,,adl
6.79321,-0.0415,0.0342,0.0238,0.0003,-0.0008,-0.0031,-37.5,-22.35,-7.875,,adl
6.806962,-0.0415,0.0342,0.0238,0.0003,-0.0008,-0.0031,-37.5,-22.35,-7.875,,adl
6.80904,-0.0214,0.0617,0.0628,0.0003,-0.0008,-0.0031,-37.5,-22.35,-7.875,,adl
6.819672,-0.0214,0.0617,0.0628,0.0003,-0.0008,-0.0031,-37.35,-22.05,-8.175,,adl
6.826925,-0.0214,0.0617,0.0628,0.0003,-0.0008,-0.0031,-37.35,-22.05,-8.175,,adl
6.82847,0.0096,0.0358,0.194,0.0003,-0.0008,-0.0031,-37.35,-22.05,-8.175,,adl
6.846108,0.0096,0.0358,0.194,0.0003,-0.0008,-0.0031,-37.35,-22.05,-8.175,,adl
6.848174,-0.0122,0.0177,0.2036,0.0003,-0.0008,-0.0031,-37.35,-22.05,-8.175,,adl
6.865488,-0.0122,0.0177,0.2036,-0.0148,0.0186,-0.0011,-37.35,-22.05,-8.175,,adl
6.87587,-0.0122,0.0177,0.2036,-0.0148,0.0186,-0.0011,-37.35,-22.05,-8.175,,adl
6.877683,-0.0248,-0.0037,0.1389,-0.0148,0.0186,-0.0011,-37.35,-22.05,-8.175,,adl
6.888683,-0.0248,-0.0037,0.1389,-0.0148,0.0186,-0.0011,-37.35,-22.05,-8.175,,adl
6.890963,-0.0241,0.0088,0.0584,-0.0148,0.0186,-0.0011,-37.35,-22.05,-8.175,,adl
6.905991,-0.0241,0.0088,0.0584,-0.0148,0.0186,-0.0011,-37.575,-22.05,-7.95,,adl
6.908725,-0.0241,0.0088,0.0584,-0.0148,0.0186,-0.0011,-37.575,-22.05,-7.95,,adl
6.909948,0.0202,0.0146,0.0833,-0.0148,0.0186,-0.0011,-37.575,-22.05,-7.95,,adl
6.929375,0.0202,0.0146,0.0833,-0.0148,0.0186,-0.0011,-37.575,-22.05,-7.95,,adl
6.932606,-0.0038,0.0152,0.0876,-0.0148,0.0186,-0.0011,-37.575,-22.05,-7.95,,adl
6.934777,-0.0038,0.0152,0.0876,-0.0179,0.018,0.0015,-37.575,-22.05,-7.95,,adl
6.949615,-0.0038,0.0152,0.0876,-0.0179,0.018,0.0015,-37.575,-22.05,-7.95,,adl
6.952984,-0.0137,0.01,0.0938,-0.0179,0.018,0.0015,-37.575,-22.05,-7.95,,adl
6.959858,-0.0137,0.01,0.0938,-0.0179,0.018,0.0015,-38.4,-22.575,-8.175,,adl
6.969618,-0.0137,0.01,0.0938,-0.0179,0.018,0.0015,-38.4,-22.575,-8.175,,adl
6.972459,-0.0297,0.0244,0.1162,-0.0179,0.018,0.0015,-38.4,-22.575,-8.175,,adl
6.986877,-0.0297,0.0244,0.1162,-0.0179,0.018,0.0015,-38.4,-22.575,-8.175,,adl
6.990335,-0.0451,0.0469,0.113,-0.0179,0.018,0.0015,-38.4,-22.575,-8.175,,adl
7.005865,-0.0451,0.0469,0.113,-0.0139,0.0008,-0.0072,-38.4,-22.575,-8.175,,adl
7.010449,-0.0451,0.0469,0.113,-0.0139,0.0008,-0.0072,-38.4,-22.575,-8.175,,adl
7.012867,-0.0277,0.0343,0.1138,-0.0139,0.0008,-0.0072,-38.4,-22.575,-8.175,,adl
7.027278,-0.0277,0.0343,0.1138,-0.0139,0.0008,-0.0072,-38.4,-22.575,-8.175,,adl
7.030411,-0.004,0.028,0.1327,-0.0139,0.0008,-0.0072,-38.4,-22.575,-8.175,,adl
7.033343,-0.004,0.028,0.1327,-0.0139,0.0008,-0.0072,-37.8,-22.35,-8.025,,adl
7.046166,-0.004,0.028,0.1327,-0.0139,0.0008,-0.0072,-37.8,-22.35,-8.025,,adl
7.048712,-0.0012,0.017,0.1297,-0.0139,0.0008,-0.0072,-37.8,-22.35,-8.025,,adl
7.065738,-0.0012,0.017,0.1297,-0.0139,0.0008,-0.0072,-37.8,-22.35,-8.025,,adl
7.068846,-0.013,0.0074,0.1023,-0.0139,0.0008,-0.0072,-37.8,-22.35,-8.025,,adl
7.070469,-0.013,0.0074,0.1023,0.0,-0.0017,-0.0064,-37.8,-22.35,-8.025,,adl
7.08567,-0.013,0.0074,0.1023,0.0,-0.0017,-0.0064,-37.8,-22.35,-8.025,,adl
7.088144,-0.0359,0.0107,0.0815,0.0,-0.0017,-0.0064,-37.8,-22.35,-8.025,,adl
7.103931,-0.0359,0.0107,0.0815,0.0,-0.0017,-0.0064,-36.9,-22.35,-9.15,,adl
7.107098,-0.0359,0.0107,0.0815,0.0,-0.0017,-0.0064,-36.9,-22.35,-9.15,,adl
7.108453,-0.0357,0.026,0.0846,0.0,-0.0017,-0.0064,-36.9,-22.35,-9.15,,adl
7.129104,-0.0357,0.026,0.0846,0.0,-0.0017,-0.0064,-36.9,-22.35,-9.15,,adl
7.131218,-0.0278,0.0326,0.1061,0.0,-0.0017,-0.0064,-36.9,-22.35,-9.15,,adl
7.143719,-0.0278,0.0326,0.1061,-0.006,0.0142,-0.0041,-36.9,-22.35,-9.15,,adl
7.156957,-0.0278,0.0326,0.1061,-0.006,0.0142,-0.0041,-36.9,-22.35,-9.15,,adl
7.159159,-0.0188,0.0371,0.1151,-0.006,0.0142,-0.0041,-36.9,-22.35,-9.15,,adl
7.169347,-0.0188,0.0371,0.1151,-0.006,0.0142,-0.0041,-36.9,-22.35,-9.15,,adl
7.171659,-0.001,0.0163,0.1163,-0.006,0.0142,-0.0041,-36.9,-22.35,-9.15,,adl
7.173019,-0.001,0.0163,0.1163,-0.006,0.0142,-0.0041,-37.2,-22.35,-8.625,,adl
7.186121,-0.001,0.0163,0.1163,-0.006,0.0142,-0.0041,-37.2,-22.35,-8.625,,adl
7.187935,-0.0197,0.0072,0.1449,-0.006,0.0142,-0.0041,-37.2,-22.35,-8.625,,adl
7.207519,-0.0197,0.0072,0.1449,-0.006,0.0142,-0.0041,-37.2,-22.35,-8.625,,adl
7.20958,-0.057,0.0015,0.1001,-0.006,0.0142,-0.0041,-37.2,-22.35,-8.625,,adl
7.212338,-0.057,0.0015,0.1001,-0.002,0.0076,-0.0058,-37.2,-22.35,-8.625,,adl
7.227766,-0.057,0.0015,0.1001,-0.002,0.0076,-0.0058,-37.2,-22.35,-8.625,,adl
7.230894,-0.0199,-0.0093,0.101,-0.002,0.0076,-0.0058,-37.2,-22.35,-8.625,,adl
7.240118,-0.0199,-0.0093,0.101,-0.002,0.0076,-0.0058,-37.65,-22.05,-8.25,,adl
7.246997,-0.0199,-0.0093,0.101,-0.002,0.0076,-0.0058,-37.65,-22.05,-8.25,,adl
7.248709,-0.0024,0.0173,0.0984,-0.002,0.0076,-0.0058,-37.65,-22.05,-8.25,,adl
7.266243,-0.0024,0.0173,0.0984,-0.002,0.0076,-0.0058,-37.65,-22.05,-8.25,,adl
7.268608,0.0047,0.0121,0.0069,-0.002,0.0076,-0.0058,-37.65,-22.05,-8.25,,adl
7.281068,0.0047,0.0121,0.0069,0.004,0.0075,0.0018,-37.65,-22.05,-8.25,,adl
7.290025,0.0047,0.0121,0.0069,0.004,0.0075,0.0018,-37.65,-22.05,-8.25,,adl
7.291862,0.013,0.0618,0.1458,0.004,0.0075,0.0018,-37.65,-22.05,-8.25,,adl
7.30555,0.013,0.0618,0.1458,0.004,0.0075,0.0018,-37.65,-22.05,-8.25,,adl
7.30739,-0.0188,0.0779,0.1568,0.004,0.0075,0.0018,-37.65,-22.05,-8.25,,adl
7.309474,-0.0188,0.0779,0.1568,0.004,0.0075,0.0018,-38.025,-22.35,-8.25,,adl
7.325119,-0.0188,0.0779,0.1568,0.004,0.0075,0.0018,-38.025,-22.35,-8.25,,adl
7.327964,0.013,0.0635,0.0667,0.004,0.0075,0.0018,-38.025,-22.35,-8.25,,adl
7.344498,0.013,0.0635,0.0667,0.004,0.0075,0.0018,-38.025,-22.35,-8.25,,adl
7.346943,-0.0199,0.0489,0.0151,0.004,0.0075,0.0018,-38.025,-22.35,-8.25,,adl
7.349325,-0.0199,0.0489,0.0151,-0.0017,0.0261,0.0027,-38.025,-22.35,-8.25,,adl
7.364877,-0.0199,0.0489,0.0151,-0.0017,0.0261,0.0027,-38.025,-22.35,-8.25,,adl
7.366526,-0.0435,-0.0059,0.1239,-0.0017,0.0261,0.0027,-38.025,-22.35,-8.25,,adl
7.380316,-0.0435,-0.0059,0.1239,-0.0017,0.0261,0.0027,-38.025,-22.35,-8.25,,adl
7.383162,-0.0459,-0.0353,0.2216,-0.0017,0.0261,0.0027,-38.025,-22.35,-8.25,,adl
7.384808,-0.0459,-0.0353,0.2216,-0.0017,0.0261,0.0027,-37.95,-22.725,-8.25,,adl
7.403856,-0.0459,-0.0353,0.2216,-0.0017,0.0261,0.0027,-37.95,-22.725,-8.25,,adl
7.408029,-0.0396,-0.0644,0.2127,-0.0017,0.0261,0.0027,-37.95,-22.725,-8.25,,adl
7.420433,-0.0396,-0.0644,0.2127,0.0087,-0.0226,-0.0098,-37.95,-22.725,-8.25,,adl
7.426391,-0.0396,-0.0644,0.2127,0.0087,-0.0226,-0.0098,-37.95,-22.725,-8.25,,adl
7.429453,-0.0496,-0.0451,0.1321,0.0087,-0.0226,-0.0098,-37.95,-22.725,-8.25,,adl
7.44299,-0.0496,-0.0451,0.1321,0.0087,-0.0226,-0.0098,-37.95,-22.725,-8.25,,adl
7.445766,-0.0455,-0.0177,0.0719,0.0087,-0.0226,-0.0098,-37.95,-22.725,-8.25,,adl
7.452172,-0.0455,-0.0177,0.0719,0.0087,-0.0226,-0.0098,-37.125,-22.35,-8.85,,adl
7.461988,-0.0455,-0.0177,0.0719,0.0087,-0.0226,-0.0098,-37.125,-22.35,-8.85,,adl
7.463681,-0.0048,-0.013,0.088,0.0087,-0.0226,-0.0098,-37.125,-22.35,-8.85,,adl
7.481837,-0.0048,-0.013,0.088,0.0087,-0.0226,-0.0098,-37.125,-22.35,-8.85,,adl
7.485506,0.0153,0.0278,0.0959,0.0087,-0.0226,-0.0098,-37.125,-22.35,-8.85,,adl
7.492299,0.0153,0.0278,0.0959,0.0086,-0.0078,0.0002,-37.125,-22.35,-8.85,,adl
7.509322,0.0153,0.0278,0.0959,0.0086,-0.0078,0.0002,-37.125,-22.35,-8.85,,adl
7.512086,0.0179,0.0739,0.0687,0.0086,-0.0078,0.0002,-37.125,-22.35,-8.85,,adl
7.520547,0.0179,0.0739,0.0687,0.0086,-0.0078,0.0002,-37.425,-22.95,-8.25,,adl
7.52739,0.0179,0.0739,0.0687,0.0086,-0.0078,0.0002,-37.425,-22.95,-8.25,,adl
7.531182,-0.023,0.0976,0.0756,0.0086,-0.0078,0.0002,-37.425,-22.95,-8.25,,adl
7.545437,-0.023,0.0976,0.0756,0.0086,-0.0078,0.0002,-37.425,-22.95,-8.25,,adl
7.548297,-0.0409,0.0809,0.0798,0.0086,-0.0078,0.0002,-37.425,-22.95,-8.25,,adl
7.559828,-0.0409,0.0809,0.0798,-0.0066,0.0078,-0.0032,-37.425,-22.95,-8.25,,adl
7.564781,-0.0409,0.0809,0.0798,-0.0066,0.0078,-0.0032,-37.425,-22.95,-8.25,,adl
7.566247,-0.0364,0.0333,0.0897,-0.0066,0.0078,-0.0032,-37.425,-22.95,-8.25,,adl
7.584344,-0.0364,0.0333,0.0897,-0.0066,0.0078,-0.0032,-37.425,-22.95,-8.25,,adl
7.587789,-0.0283,-0.0142,0.2322,-0.0066,0.0078,-0.0032,-37.425,-22.95,-8.25,,adl
7.589766,-0.0283,-0.0142,0.2322,-0.0066,0.0078,-0.0032,-37.2,-22.725,-7.425,,adl
7.606773,-0.0283,-0.0142,0.2322,-0.0066,0.0078,-0.0032,-37.2,-22.725,-7.425,,adl
7.609107,-0.0005,-0.048,0.1351,-0.0066,0.0078,-0.0032,-37.2,-22.725,-7.425,,adl
7.623612,-0.0005,-0.048,0.1351,-0.0066,0.0078,-0.0032,-37.2,-22.725,-7.425,,adl
7.626978,-0.0036,-0.0205,0.0565,-0.0066,0.0078,-0.0032,-37.2,-22.725,-7.425,,adl
7.629364,-0.0036,-0.0205,0.0565,0.002,-0.0031,-0.002,-37.2,-22.725,-7.425,,adl
7.643863,-0.0036,-0.0205,0.0565,0.002,-0.0031,-0.002,-37.2,-22.725,-7.425,,adl
7.646673,-0.0201,0.0406,0.0014,0.002,-0.0031,-0.002,-37.2,-22.725,-7.425,,adl
7.659635,-0.0201,0.0406,0.0014,0.002,-0.0031,-0.002,-37.875,-22.125,-8.025,,adl
7.661924,-0.0201,0.0406,0.0014,0.002,-0.0031,-0.002,-37.875,-22.125,-8.025,,adl
7.663584,-0.0157,0.0242,0.1304,0.002,-0.0031,-0.002,-37.875,-22.125,-8.025,,adl
7.68239,-0.0157,0.0242,0.1304,0.002,-0.0031,-0.002,-37.875,-22.125,-8.025,,adl
7.686054,-0.0155,0.0133,0.2293,0.002,-0.0031,-0.002,-37.875,-22.125,-8.025,,adl
7.697231,-0.0155,0.0133,0.2293,-0.0008,0.0101,0.0006,-37.875,-22.125,-8.025,,adl
7.709458,-0.0155,0.0133,0.2293,-0.0008,0.0101,0.0006,-37.875,-22.125,-8.025,,adl
7.712265,-0.0245,-0.0098,0.1742,-0.0008,0.0101,0.0006,-37.875,-22.125,-8.025,,adl
7.72546,-0.0245,-0.0098,0.1742,-0.0008,0.0101,0.0006,-37.875,-22.125,-8.025,,adl
7.728798,-0.0367,-0.0144,0.1045,-0.0008,0.0101,0.0006,-37.875,-22.125,-8.025,,adl
7.73157,-0.0367,-0.0144,0.1045,-0.0008,0.0101,0.0006,-37.425,-21.825,-7.875,,adl
7.736525,-0.0367,-0.0144,0.1045,-0.0008,0.0101,0.0006,-37.425,-21.825,-7.875,,adl
7.739504,-0.0338,0.0076,0.0342,-0.0008,0.0101,0.0006,-37.425,-21.825,-7.875,,adl
7.76544,-0.0338,0.0076,0.0342,-0.0008,0.0101,0.0006,-37.425,-21.825,-7.875,,adl
7.767465,-0.0197,0.0435,0.0279,-0.0008,0.0101,0.0006,-37.425,-21.825,-7.875,,adl
7.771115,-0.0197,0.0435,0.0279,0.0009,0.015,-0.0005,-37.425,-21.825,-7.875,,adl
7.786088,-0.0197,0.0435,0.0279,0.0009,0.015,-0.0005,-37.425,-21.825,-7.875,,adl
7.789279,-0.0224,0.0492,0.0532,0.0009,0.015,-0.0005,-37.425,-21.825,-7.875,,adl
7.795106,-0.0224,0.0492,0.0532,0.0009,0.015,-0.0005,-37.275,-22.575,-7.875,,adl
7.805656,-0.0224,0.0492,0.0532,0.0009,0.015,-0.0005,-37.275,-22.575,-7.875,,adl
7.808402,-0.0111,0.0457,0.1655,0.0009,0.015,-0.0005,-37.275,-22.575,-7.875,,adl
7.82411,-0.0111,0.0457,0.1655,0.0009,0.015,-0.0005,-37.275,-22.575,-7.875,,adl
7.826111,-0.0177,0.0149,0.1688,0.0009,0.015,-0.0005,-37.275,-22.575,-7.875,,adl
7.840516,-0.0177,0.0149,0.1688,-0.0151,-0.0064,-0.0046,-37.275,-22.575,-7.875,,adl
7.844149,-0.0177,0.0149,0.1688,-0.0151,-0.0064,-0.0046,-37.275,-22.575,-7.875,,adl
7.845825,-0.0087,0.0057,0.0239,-0.0151,-0.0064,-0.0046,-37.275,-22.575,-7.875,,adl
7.863404,-0.0087,0.0057,0.0239,-0.0151,-0.0064,-0.0046,-37.275,-22.575,-7.875,,adl
7.865476,0.0092,0.0169,-0.0587,-0.0151,-0.0064,-0.0046,-37.275,-22.575,-7.875,,adl
7.867055,0.0092,0.0169,-0.0587,-0.0151,-0.0064,-0.0046,-37.35,-22.35,-8.325,,adl
7.882928,0.0092,0.0169,-0.0587,-0.0151,-0.0064,-0.0046,-37.35,-22.35,-8.325,,adl
7.885487,-0.0204,0.0355,0.033,-0.0151,-0.0064,-0.0046,-37.35,-22.35,-8.325,,adl
7.90226,-0.0204,0.0355,0.033,-0.0151,-0.0064,-0.0046,-37.35,-22.35,-8.325,,adl
7.904556,-0.0509,0.0576,0.3177,-0.0151,-0.0064,-0.0046,-37.35,-22.35,-8.325,,adl
7.907119,-0.0509,0.0576,0.3177,-0.0231,-0.0104,0.0035,-37.35,-22.35,-8.325,,adl
7.922601,-0.0509,0.0576,0.3177,-0.0231,-0.0104,0.0035,-37.35,-22.35,-8.325,,adl
7.925075,-0.0014,0.1428,0.8126,-0.0231,-0.0104,0.0035,-37.35,-22.35,-8.325,,adl
7.932227,-0.0014,0.1428,0.8126,-0.0231,-0.0104,0.0035,-37.425,-22.875,-8.475,,adl
7.936454,-0.0014,0.1428,0.8126,-0.0231,-0.0104,0.0035,-37.425,-22.875,-8.475,,adl
7.938907,0.094,0.0136,0.1315,-0.0231,-0.0104,0.0035,-37.425,-22.875,-8.475,,adl
7.961322,0.094,0.0136,0.1315,-0.0231,-0.0104,0.0035,-37.425,-22.875,-8.475,,adl
7.963822,0.2127,-0.205,-1.111,-0.0231,-0.0104,0.0035,-37.425,-22.875,-8.475,,adl
7.975319,0.2127,-0.205,-1.111,0.1156,0.0264,0.0046,-37.425,-22.875,-8.475,,adl
7.988525,0.2127,-0.205,-1.111,0.1156,0.0264,0.0046,-37.425,-22.875,-8.475,,adl
7.990071,-0.1655,-0.0385,-0.8169,0.1156,0.0264,0.0046,-37.425,-22.875,-8.475,,adl
8.000031,-0.1655,-0.0385,-0.8169,0.1156,0.0264,0.0046,-37.425,-22.875,-8.475,,adl
8.002136,-0.8286,0.2589,-0.0075,0.1156,0.0264,0.0046,-37.425,-22.875,-8.475,,adl
8.00425,-0.8286,0.2589,-0.0075,0.1156,0.0264,0.0046,-37.65,-22.35,-7.65,,adl
8.019288,-0.8286,0.2589,-0.0075,0.1156,0.0264,0.0046,-37.65,-22.35,-7.65,,adl
8.021654,-0.3284,0.3223,0.6357,0.1156,0.0264,0.0046,-37.65,-22.35,-7.65,,adl
8.041441,-0.3284,0.3223,0.6357,0.1156,0.0264,0.0046,-37.65,-22.35,-7.65,,adl
8.045613,0.2817,0.2268,1.2668,0.1156,0.0264,0.0046,-37.65,-22.35,-7.65,,adl
8.047709,0.2817,0.2268,1.2668,-0.0915,-0.0192,0.0761,-37.65,-22.35,-7.65,,adl
8.059127,0.2817,0.2268,1.2668,-0.0915,-0.0192,0.0761,-37.65,-22.35,-7.65,,adl
8.060714,0.3208,0.1856,0.3035,-0.0915,-0.0192,0.0761,-37.65,-22.35,-7.65,,adl
8.069995,0.3208,0.1856,0.3035,-0.0915,-0.0192,0.0761,-37.8,-22.875,-8.25,,adl
8.078269,0.3208,0.1856,0.3035,-0.0915,-0.0192,0.0761,-37.8,-22.875,-8.25,,adl
8.079839,0.3048,0.0646,-0.8713,-0.0915,-0.0192,0.0761,-37.8,-22.875,-8.25,,adl
8.097727,0.3048,0.0646,-0.8713,-0.0915,-0.0192,0.0761,-37.8,-22.875,-8.25,,adl
8.099792,0.0514,-0.0762,-0.3534,-0.0915,-0.0192,0.0761,-37.8,-22.875,-8.25,,adl
8.112213,0.0514,-0.0762,-0.3534,-0.0307,0.0586,-0.0211,-37.8,-22.875,-8.25,,adl
8.122135,0.0514,-0.0762,-0.3534,-0.0307,0.0586,-0.0211,-37.8,-22.875,-8.25,,adl
8.12455,-0.3861,-0.3306,0.2642,-0.0307,0.0586,-0.0211,-37.8,-22.875,-8.25,,adl
8.138874,-0.3861,-0.3306,0.2642,-0.0307,0.0586,-0.0211,-37.8,-22.875,-8.25,,adl
8.141029,-0.2276,-0.5689,0.652,-0.0307,0.0586,-0.0211,-37.8,-22.875,-8.25,,adl
8.149828,-0.2276,-0.5689,0.652,-0.0307,0.0586,-0.0211,-38.025,-22.425,-8.55,,adl
8.161497,-0.2276,-0.5689,0.652,-0.0307,0.0586,-0.0211,-38.025,-22.425,-8.55,,adl
8.164021,-0.0722,-0.5634,1.1448,-0.0307,0.0586,-0.0211,-38.025,-22.425,-8.55,,adl
8.181705,-0.0722,-0.5634,1.1448,-0.0307,0.0586,-0.0211,-38.025,-22.425,-8.55,,adl
8.186564,0.06,-0.2071,0.2663,-0.0307,0.0586,-0.0211,-38.025,-22.425,-8.55,,adl
8.188802,0.06,-0.2071,0.2663,0.0438,-0.0221,0.0675,-38.025,-22.425,-8.55,,adl
8.207252,0.06,-0.2071,0.2663,0.0438,-0.0221,0.0675,-38.025,-22.425,-8.55,,adl
8.209379,0.2899,0.1624,-0.8302,0.0438,-0.0221,0.0675,-38.025,-22.425,-8.55,,adl
8.21167,0.2899,0.1624,-0.8302,0.0438,-0.0221,0.0675,-37.575,-21.825,-8.55,,adl
8.221967,0.2899,0.1624,-0.8302,0.0438,-0.0221,0.0675,-37.575,-21.825,-8.55,,adl
8.224514,0.4791,0.5242,-0.5281,0.0438,-0.0221,0.0675,-37.575,-21.825,-8.55,,adl
8.236532,0.4791,0.5242,-0.5281,0.0438,-0.0221,0.0675,-37.575,-21.825,-8.55,,adl
8.239313,0.268,0.783,-0.1487,0.0438,-0.0221,0.0675,-37.575,-21.825,-8.55,,adl
8.254845,0.268,0.783,-0.1487,-0.0206,0.1017,-0.0024,-37.575,-21.825,-8.55,,adl
8.259229,0.268,0.783,-0.1487,-0.0206,0.1017,-0.0024,-37.575,-21.825,-8.55,,adl
8.260938,-0.073,0.5233,-0.0079,-0.0206,0.1017,-0.0024,-37.575,-21.825,-8.55,,adl
8.278677,-0.073,0.5233,-0.0079,-0.0206,0.1017,-0.0024,-37.575,-21.825,-8.55,,adl
8.280879,-0.3429,0.026,1.1577,-0.0206,0.1017,-0.0024,-37.575,-21.825,-8.55,,adl
8.282462,-0.3429,0.026,1.1577,-0.0206,0.1017,-0.0024,-37.275,-22.125,-9.075,,adl
8.298036,-0.3429,0.026,1.1577,-0.0206,0.1017,-0.0024,-37.275,-22.125,-9.075,,adl
8.300184,-0.4214,-0.4887,1.5968,-0.0206,0.1017,-0.0024,-37.275,-22.125,-9.075,,adl
8.31829,-0.4214,-0.4887,1.5968,-0.0206,0.1017,-0.0024,-37.275,-22.125,-9.075,,adl
8.321669,-0.0573,-0.6392,-0.0178,-0.0206,0.1017,-0.0024,-37.275,-22.125,-9.075,,adl
8.324013,-0.0573,-0.6392,-0.0178,0.111,-0.0156,0.0423,-37.275,-22.125,-9.075,,adl
8.342827,-0.0573,-0.6392,-0.0178,0.111,-0.0156,0.0423,-37.275,-22.125,-9.075,,adl
8.345791,0.389,-0.2744,-1.0823,0.111,-0.0156,0.0423,-37.275,-22.125,-9.075,,adl
8.356836,0.389,-0.2744,-1.0823,0.111,-0.0156,0.0423,-37.875,-22.125,-8.55,,adl
8.358732,0.389,-0.2744,-1.0823,0.111,-0.0156,0.0423,-37.875,-22.125,-8.55,,adl
8.360338,0.3297,0.4353,-0.4283,0.111,-0.0156,0.0423,-37.875,-22.125,-8.55,,adl
8.37624,0.3297,0.4353,-0.4283,0.111,-0.0156,0.0423,-37.875,-22.125,-8.55,,adl
8.377915,-0.1391,0.7363,-0.2585,0.111,-0.0156,0.0423,-37.875,-22.125,-8.55,,adl
8.391573,-0.1391,0.7363,-0.2585,0.0449,0.0596,-0.0136,-37.875,-22.125,-8.55,,adl
8.396046,-0.1391,0.7363,-0.2585,0.0449,0.0596,-0.0136,-37.875,-22.125,-8.55,,adl
8.397563,-0.4013,0.2556,0.1873,0.0449,0.0596,-0.0136,-37.875,-22.125,-8.55,,adl
8.415968,-0.4013,0.2556,0.1873,0.0449,0.0596,-0.0136,-37.875,-22.125,-8.55,,adl
8.418812,-0.3585,-0.4607,1.3611,0.0449,0.0596,-0.0136,-37.875,-22.125,-8.55,,adl
8.421495,-0.3585,-0.4607,1.3611,0.0449,0.0596,-0.0136,-37.875,-22.35,-8.625,,adl
8.435907,-0.3585,-0.4607,1.3611,0.0449,0.0596,-0.0136,-37.875,-22.35,-8.625,,adl
8.438429,-0.0403,-0.9034,0.7944,0.0449,0.0596,-0.0136,-37.875,-22.35,-8.625,,adl
8.459531,-0.0403,-0.9034,0.7944,0.0449,0.0596,-0.0136,-37.875,-22.35,-8.625,,adl
8.462175,0.084,-0.7422,-0.5575,0.0449,0.0596,-0.0136,-37.875,-22.35,-8.625,,adl
8.464584,0.084,-0.7422,-0.5575,0.0623,-0.0283,0.035,-37.875,-22.35,-8.625,,adl
8.479845,0.084,-0.7422,-0.5575,0.0623,-0.0283,0.035,-37.875,-22.35,-8.625,,adl
8.482485,0.3212,-0.1834,-0.5558,0.0623,-0.0283,0.035,-37.875,-22.35,-8.625,,adl
8.489712,0.3212,-0.1834,-0.5558,0.0623,-0.0283,0.035,-37.125,-22.125,-8.025,,adl
8.498925,0.3212,-0.1834,-0.5558,0.0623,-0.0283,0.035,-37.125,-22.125,-8.025,,adl
8.500795,0.3167,0.6303,-0.1834,0.0623,-0.0283,0.035,-37.125,-22.125,-8.025,,adl
8.519896,0.3167,0.6303,-0.1834,0.0623,-0.0283,0.035,-37.125,-22.125,-8.025,,adl
8.522405,0.038,1.0162,0.0032,0.0623,-0.0283,0.035,-37.125,-22.125,-8.025,,adl
8.532691,0.038,1.0162,0.0032,0.0082,0.0606,-0.0079,-37.125,-22.125,-8.025,,adl
8.538564,0.038,1.0162,0.0032,0.0082,0.0606,-0.0079,-37.125,-22.125,-8.025,,adl
8.539866,-0.0737,0.6717,-0.0112,0.0082,0.0606,-0.0079,-37.125,-22.125,-8.025,,adl
8.558146,-0.0737,0.6717,-0.0112,0.0082,0.0606,-0.0079,-37.125,-22.125,-8.025,,adl
8.560528,-0.0745,-0.0638,0.8289,0.0082,0.0606,-0.0079,-37.125,-22.125,-8.025,,adl
8.562889,-0.0745,-0.0638,0.8289,0.0082,0.0606,-0.0079,-37.35,-21.75,-8.25,,adl
8.578032,-0.0745,-0.0638,0.8289,0.0082,0.0606,-0.0079,-37.35,-21.75,-8.25,,adl
8.579551,-0.2128,-0.7057,0.5747,0.0082,0.0606,-0.0079,-37.35,-21.75,-8.25,,adl
8.5967,-0.2128,-0.7057,0.5747,0.0082,0.0606,-0.0079,-37.35,-21.75,-8.25,,adl
8.599438,-0.2878,-0.8675,0.2636,0.0082,0.0606,-0.0079,-37.35,-21.75,-8.25,,adl
8.60382,-0.2878,-0.8675,0.2636,-0.0667,0.0261,0.0121,-37.35,-21.75,-8.25,,adl
8.616351,-0.2878,-0.8675,0.2636,-0.0667,0.0261,0.0121,-37.35,-21.75,-8.25,,adl
8.618176,-0.2442,-0.793,-0.0452,-0.0667,0.0261,0.0121,-37.35,-21.75,-8.25,,adl
8.629852,-0.2442,-0.793,-0.0452,-0.0667,0.0261,0.0121,-37.65,-22.35,-8.55,,adl
8.636388,-0.2442,-0.793,-0.0452,-0.0667,0.0261,0.0121,-37.65,-22.35,-8.55,,adl
8.638562,-0.3475,-0.4384,0.6838,-0.0667,0.0261,0.0121,-37.65,-22.35,-8.55,,adl
8.656167,-0.3475,-0.4384,0.6838,-0.0667,0.0261,0.0121,-37.65,-22.35,-8.55,,adl
8.658206,0.1022,0.269,-0.6075,-0.0667,0.0261,0.0121,-37.65,-22.35,-8.55,,adl
8.674994,0.1022,0.269,-0.6075,0.0461,-0.0945,-0.0864,-37.65,-22.35,-8.55,,adl
8.679408,0.1022,0.269,-0.6075,0.0461,-0.0945,-0.0864,-37.65,-22.35,-8.55,,adl
8.680721,0.6233,0.9696,-1.0053,0.0461,-0.0945,-0.0864,-37.65,-22.35,-8.55,,adl
8.699332,0.6233,0.9696,-1.0053,0.0461,-0.0945,-0.0864,-37.65,-22.35,-8.55,,adl
8.702144,0.4918,1.0545,-0.1596,0.0461,-0.0945,-0.0864,-37.65,-22.35,-8.55,,adl
8.704371,0.4918,1.0545,-0.1596,0.0461,-0.0945,-0.0864,-37.125,-21.825,-8.325,,adl
8.718816,0.4918,1.0545,-0.1596,0.0461,-0.0945,-0.0864,-37.125,-21.825,-8.325,,adl
8.721281,-0.0416,0.3837,0.6394,0.0461,-0.0945,-0.0864,-37.125,-21.825,-8.325,,adl
8.739517,-0.0416,0.3837,0.6394,0.0461,-0.0945,-0.0864,-37.125,-21.825,-8.325,,adl
8.741515,-0.6,-0.3477,1.3744,0.0461,-0.0945,-0.0864,-37.125,-21.825,-8.325,,adl
8.743819,-0.6,-0.3477,1.3744,-0.1029,0.1338,0.0316,-37.125,-21.825,-8.325,,adl
8.757996,-0.6,-0.3477,1.3744,-0.1029,0.1338,0.0316,-37.125,-21.825,-8.325,,adl
8.759617,-0.7844,-0.8323,0.68,-0.1029,0.1338,0.0316,-37.125,-21.825,-8.325,,adl
8.77194,-0.7844,-0.8323,0.68,-0.1029,0.1338,0.0316,-36.9,-22.05,-8.85,,adl
8.777519,-0.7844,-0.8323,0.68,-0.1029,0.1338,0.0316,-36.9,-22.05,-8.85,,adl
8.779116,-0.5971,-0.7799,-0.0424,-0.1029,0.1338,0.0316,-36.9,-22.05,-8.85,,adl
8.797152,-0.5971,-0.7799,-0.0424,-0.1029,0.1338,0.0316,-36.9,-22.05,-8.85,,adl
8.799604,-0.1829,-0.2841,-0.324,-0.1029,0.1338,0.0316,-36.9,-22.05,-8.85,,adl
8.81246,-0.1829,-0.2841,-0.324,0.0235,-0.1425,0.0267,-36.9,-22.05,-8.85,,adl
8.826245,-0.1829,-0.2841,-0.324,0.0235,-0.1425,0.0267,-36.9,-22.05,-8.85,,adl
8.829384,0.3117,-0.0614,-0.5861,0.0235,-0.1425,0.0267,-36.9,-22.05,-8.85,,adl
8.839198,0.3117,-0.0614,-0.5861,0.0235,-0.1425,0.0267,-36.9,-22.05,-8.85,,adl
8.841104,0.9089,0.1222,-0.0737,0.0235,-0.1425,0.0267,-36.9,-22.05,-8.85,,adl
8.842737,0.9089,0.1222,-0.0737,0.0235,-0.1425,0.0267,-37.275,-22.35,-8.475,,adl
8.855798,0.9089,0.1222,-0.0737,0.0235,-0.1425,0.0267,-37.275,-22.35,-8.475,,adl
8.857674,0.7081,0.3003,0.1655,0.0235,-0.1425,0.0267,-37.275,-22.35,-8.475,,adl
8.875683,0.7081,0.3003,0.1655,0.0235,-0.1425,0.0267,-37.275,-22.35,-8.475,,adl
8.87893,0.2103,0.1901,0.0364,0.0235,-0.1425,0.0267,-37.275,-22.35,-8.475,,adl
8.881398,0.2103,0.1901,0.0364,0.0027,0.0884,-0.0793,-37.275,-22.35,-8.475,,adl
8.894968,0.2103,0.1901,0.0364,0.0027,0.0884,-0.0793,-37.275,-22.35,-8.475,,adl
8.89709,-0.481,0.0476,0.7702,0.0027,0.0884,-0.0793,-37.275,-22.35,-8.475,,adl
8.90982,-0.481,0.0476,0.7702,0.0027,0.0884,-0.0793,-37.275,-22.35,-8.475,,adl
8.912186,-0.7393,-0.0309,0.9728,0.0027,0.0884,-0.0793,-37.275,-22.35,-8.475,,adl
8.914119,-0.7393,-0.0309,0.9728,0.0027,0.0884,-0.0793,-37.05,-22.05,-8.625,,adl
8.934235,-0.7393,-0.0309,0.9728,0.0027,0.0884,-0.0793,-37.05,-22.05,-8.625,,adl
8.937377,-0.5631,-0.1715,0.3407,0.0027,0.0884,-0.0793,-37.05,-22.05,-8.625,,adl
8.948607,-0.5631,-0.1715,0.3407,0.055,0.0313,0.0918,-37.05,-22.05,-8.625,,adl
8.957021,-0.5631,-0.1715,0.3407,0.055,0.0313,0.0918,-37.05,-22.05,-8.625,,adl
8.958922,-0.2966,-0.1099,-0.3818,0.055,0.0313,0.0918,-37.05,-22.05,-8.625,,adl
8.973069,-0.2966,-0.1099,-0.3818,0.055,0.0313,0.0918,-37.05,-22.05,-8.625,,adl
8.975042,0.1728,-0.1534,-0.7783,0.055,0.0313,0.0918,-37.05,-22.05,-8.625,,adl
8.979264,0.1728,-0.1534,-0.7783,0.055,0.0313,0.0918,-37.275,-22.575,-9.225,,adl
8.994556,0.1728,-0.1534,-0.7783,0.055,0.0313,0.0918,-37.275,-22.575,-9.225,,adl
8.996227,0.6799,-0.052,-0.1776,0.055,0.0313,0.0918,-37.275,-22.575,-9.225,,adl
9.012255,0.6799,-0.052,-0.1776,0.055,0.0313,0.0918,-37.275,-22.575,-9.225,,adl
9.014538,0.5964,0.2877,0.2042,0.055,0.0313,0.0918,-37.275,-22.575,-9.225,,adl
9.021755,0.5964,0.2877,0.2042,-0.0385,-0.0127,-0.0591,-37.275,-22.575,-9.225,,adl
9.031827,0.5964,0.2877,0.2042,-0.0385,-0.0127,-0.0591,-37.275,-22.575,-9.225,,adl
9.033708,0.2195,0.3016,0.1848,-0.0385,-0.0127,-0.0591,-37.275,-22.575,-9.225,,adl
9.049771,0.2195,0.3016,0.1848,-0.0385,-0.0127,-0.0591,-38.25,-21.825,-8.325,,adl
9.055951,0.2195,0.3016,0.1848,-0.0385,-0.0127,-0.0591,-38.25,-21.825,-8.325,,adl
9.057232,-0.501,-0.0821,0.8873,-0.0385,-0.0127,-0.0591,-38.25,-21.825,-8.325,,adl
9.075732,-0.501,-0.0821,0.8873,-0.0385,-0.0127,-0.0591,-38.25,-21.825,-8.325,,adl
9.077948,-0.5946,-0.3927,0.9755,-0.0385,-0.0127,-0.0591,-38.25,-21.825,-8.325,,adl
9.090039,-0.5946,-0.3927,0.9755,0.0383,0.0866,0.062,-38.25,-21.825,-8.325,,adl
9.094883,-0.5946,-0.3927,0.9755,0.0383,0.0866,0.062,-38.25,-21.825,-8.325,,adl
9.096459,-0.5008,-0.3809,-0.025,0.0383,0.0866,0.062,-38.25,-21.825,-8.325,,adl
9.115229,-0.5008,-0.3809,-0.025,0.0383,0.0866,0.062,-38.25,-21.825,-8.325,,adl
9.11763,-0.3767,-0.1806,-0.5161,0.0383,0.0866,0.062,-38.25,-21.825,-8.325,,adl
9.120436,-0.3767,-0.1806,-0.5161,0.0383,0.0866,0.062,-36.975,-22.05,-8.85,,adl
9.134425,-0.3767,-0.1806,-0.5161,0.0383,0.0866,0.062,-36.975,-22.05,-8.85,,adl
9.137254,-0.1434,-0.0535,0.0834,0.0383,0.0866,0.062,-36.975,-22.05,-8.85,,adl
9.154816,-0.1434,-0.0535,0.0834,0.0383,0.0866,0.062,-36.975,-22.05,-8.85,,adl
9.159653,0.2324,0.0731,-0.5152,0.0383,0.0866,0.062,-36.975,-22.05,-8.85,,adl
9.162112,0.2324,0.0731,-0.5152,-0.0203,-0.1206,-0.0249,-36.975,-22.05,-8.85,,adl
9.173815,0.2324,0.0731,-0.5152,-0.0203,-0.1206,-0.0249,-36.975,-22.05,-8.85,,adl
9.175806,0.7787,0.3483,-0.4444,-0.0203,-0.1206,-0.0249,-36.975,-22.05,-8.85,,adl
9.189704,0.7787,0.3483,-0.4444,-0.0203,-0.1206,-0.0249,-37.425,-22.125,-8.25,,adl
9.192192,0.7787,0.3483,-0.4444,-0.0203,-0.1206,-0.0249,-37.425,-22.125,-8.25,,adl
9.193514,0.6843,0.4601,0.2566,-0.0203,-0.1206,-0.0249,-37.425,-22.125,-8.25,,adl
9.212899,0.6843,0.4601,0.2566,-0.0203,-0.1206,-0.0249,-37.425,-22.125,-8.25,,adl
9.215089,0.1138,0.2074,0.389,-0.0203,-0.1206,-0.0249,-37.425,-22.125,-8.25,,adl
9.227234,0.1138,0.2074,0.389,-0.0403,0.1168,-0.0628,-37.425,-22.125,-8.25,,adl
9.232565,0.1138,0.2074,0.389,-0.0403,0.1168,-0.0628,-37.425,-22.125,-8.25,,adl
9.235292,-0.5417,-0.178,0.7545,-0.0403,0.1168,-0.0628,-37.425,-22.125,-8.25,,adl
9.253572,-0.5417,-0.178,0.7545,-0.0403,0.1168,-0.0628,-37.425,-22.125,-8.25,,adl
9.258001,-0.8632,-0.3063,0.8801,-0.0403,0.1168,-0.0628,-37.425,-22.125,-8.25,,adl
9.260525,-0.8632,-0.3063,0.8801,-0.0403,0.1168,-0.0628,-36.675,-22.125,-8.175,,adl
9.271502,-0.8632,-0.3063,0.8801,-0.0403,0.1168,-0.0628,-36.675,-22.125,-8.175,,adl
9.274071,-0.7112,-0.2267,0.0226,-0.0403,0.1168,-0.0628,-36.675,-22.125,-8.175,,adl
9.298147,-0.7112,-0.2267,0.0226,-0.0403,0.1168,-0.0628,-36.675,-22.125,-8.175,,adl
9.299128,-0.2076,0.2132,-0.5478,-0.0403,0.1168,-0.0628,-36.675,-22.125,-8.175,,adl
9.302328,-0.2076,0.2132,-0.5478,0.0936,-0.1032,0.1,-36.675,-22.125,-8.175,,adl
9.31647,-0.2076,0.2132,-0.5478,0.0936,-0.1032,0.1,-36.675,-22.125,-8.175,,adl
9.317642,0.0683,0.5234,0.1776,0.0936,-0.1032,0.1,-36.675,-22.125,-8.175,,adl
9.330278,0.0683,0.5234,0.1776,0.0936,-0.1032,0.1,-37.5,-21.45,-8.925,,adl
9.335819,0.0683,0.5234,0.1776,0.0936,-0.1032,0.1,-37.5,-21.45,-8.925,,adl
9.337061,0.6882,0.0519,-0.004,0.0936,-0.1032,0.1,-37.5,-21.45,-8.925,,adl
9.356679,0.6882,0.0519,-0.004,0.0936,-0.1032,0.1,-37.5,-21.45,-8.925,,adl
9.3582,0.9615,-0.63,-0.3669,0.0936,-0.1032,0.1,-37.5,-21.45,-8.925,,adl
9.372909,0.9615,-0.63,-0.3669,-0.1125,-0.0137,-0.0968,-37.5,-21.45,-8.925,,adl
9.374897,0.9615,-0.63,-0.3669,-0.1125,-0.0137,-0.0968,-37.5,-21.45,-8.925,,adl
9.376299,0.3553,-0.7736,-0.0002,-0.1125,-0.0137,-0.0968,-37.5,-21.45,-8.925,,adl
9.394398,0.3553,-0.7736,-0.0002,-0.1125,-0.0137,-0.0968,-37.5,-21.45,-8.925,,adl
9.395936,-0.3924,-0.4326,0.3057,-0.1125,-0.0137,-0.0968,-37.5,-21.45,-8.925,,adl
9.400238,-0.3924,-0.4326,0.3057,-0.1125,-0.0137,-0.0968,-38.25,-22.05,-8.925,,adl
9.413637,-0.3924,-0.4326,0.3057,-0.1125,-0.0137,-0.0968,-38.25,-22.05,-8.925,,adl
9.416174,-0.875,0.0867,0.2285,-0.1125,-0.0137,-0.0968,-38.25,-22.05,-8.925,,adl
9.432808,-0.875,0.0867,0.2285,-0.1125,-0.0137,-0.0968,-38.25,-22.05,-8.925,,adl
9.435116,-0.8497,0.5678,1.1289,-0.1125,-0.0137,-0.0968,-38.25,-22.05,-8.925,,adl
9.439222,-0.8497,0.5678,1.1289,0.0084,0.0647,0.093,-38.25,-22.05,-8.925,,adl
9.452551,-0.8497,0.5678,1.1289,0.0084,0.0647,0.093,-38.25,-22.05,-8.925,,adl
9.455304,-0.4491,0.6419,0.7705,0.0084,0.0647,0.093,-38.25,-22.05,-8.925,,adl
9.472437,-0.4491,0.6419,0.7705,0.0084,0.0647,0.093,-37.95,-22.575,-9.45,,adl
9.475703,-0.4491,0.6419,0.7705,0.0084,0.0647,0.093,-37.95,-22.575,-9.45,,adl
9.477766,-0.0258,0.3431,-0.2192,0.0084,0.0647,0.093,-37.95,-22.575,-9.45,,adl
9.491583,-0.0258,0.3431,-0.2192,0.0084,0.0647,0.093,-37.95,-22.575,-9.45,,adl
9.493639,0.1201,-0.0408,-0.2059,0.0084,0.0647,0.093,-37.95,-22.575,-9.45,,adl
9.505921,0.1201,-0.0408,-0.2059,0.0764,-0.1561,-0.0232,-37.95,-22.575,-9.45,,adl
9.511338,0.1201,-0.0408,-0.2059,0.0764,-0.1561,-0.0232,-37.95,-22.575,-9.45,,adl
9.513074,0.1119,-0.4205,0.4737,0.0764,-0.1561,-0.0232,-37.95,-22.575,-9.45,,adl
9.530498,0.1119,-0.4205,0.4737,0.0764,-0.1561,-0.0232,-37.95,-22.575,-9.45,,adl
9.532939,0.2608,-0.5992,0.5215,0.0764,-0.1561,-0.0232,-37.95,-22.575,-9.45,,adl
9.534904,0.2608,-0.5992,0.5215,0.0764,-0.1561,-0.0232,-37.275,-22.05,-8.25,,adl
9.555462,0.2608,-0.5992,0.5215,0.0764,-0.1561,-0.0232,-37.275,-22.05,-8.25,,adl
9.558562,0.4928,-0.5146,-0.972,0.0764,-0.1561,-0.0232,-37.275,-22.05,-8.25,,adl
9.575172,0.4928,-0.5146,-0.972,0.0764,-0.1561,-0.0232,-37.275,-22.05,-8.25,,adl
9.57792,0.5321,-0.1686,-0.7326,0.0764,-0.1561,-0.0232,-37.275,-22.05,-8.25,,adl
9.580234,0.5321,-0.1686,-0.7326,-0.0224,0.0296,-0.0919,-37.275,-22.05,-8.25,,adl
9.593967,0.5321,-0.1686,-0.7326,-0.0224,0.0296,-0.0919,-37.275,-22.05,-8.25,,adl
9.59683,-0.236,0.2605,0.3229,-0.0224,0.0296,-0.0919,-37.275,-22.05,-8.25,,adl
9.605884,-0.236,0.2605,0.3229,-0.0224,0.0296,-0.0919,-37.65,-22.35,-7.875,,adl
9.61359,-0.236,0.2605,0.3229,-0.0224,0.0296,-0.0919,-37.65,-22.35,-7.875,,adl
9.615242,-0.7461,0.5807,0.3008,-0.0224,0.0296,-0.0919,-37.65,-22.35,-7.875,,adl
9.633677,-0.7461,0.5807,0.3008,-0.0224,0.0296,-0.0919,-37.65,-22.35,-7.875,,adl
9.637268,-0.7671,0.6861,0.4818,-0.0224,0.0296,-0.0919,-37.65,-22.35,-7.875,,adl
9.649113,-0.7671,0.6861,0.4818,-0.0414,0.0524,0.1219,-37.65,-22.35,-7.875,,adl
9.654129,-0.7671,0.6861,0.4818,-0.0414,0.0524,0.1219,-37.65,-22.35,-7.875,,adl
9.657629,-0.4555,0.5058,1.1399,-0.0414,0.0524,0.1219,-37.65,-22.35,-7.875,,adl
9.672524,-0.4555,0.5058,1.1399,-0.0414,0.0524,0.1219,-37.65,-22.35,-7.875,,adl
9.674822,-0.0532,0.0531,0.8064,-0.0414,0.0524,0.1219,-37.65,-22.35,-7.875,,adl
9.676592,-0.0532,0.0531,0.8064,-0.0414,0.0524,0.1219,-37.5,-21.75,-8.55,,adl
9.692004,-0.0532,0.0531,0.8064,-0.0414,0.0524,0.1219,-37.5,-21.75,-8.55,,adl
9.694602,0.4572,-0.3079,0.0064,-0.0414,0.0524,0.1219,-37.5,-21.75,-8.55,,adl
9.711737,0.4572,-0.3079,0.0064,-0.0414,0.0524,0.1219,-37.5,-21.75,-8.55,,adl
9.714109,0.4323,-0.5984,-0.2794,-0.0414,0.0524,0.1219,-37.5,-21.75,-8.55,,adl
9.723976,0.4323,-0.5984,-0.2794,0.12,-0.1431,-0.0541,-37.5,-21.75,-8.55,,adl
9.731584,0.4323,-0.5984,-0.2794,0.12,-0.1431,-0.0541,-37.5,-21.75,-8.55,,adl
9.733141,-0.0722,-0.7276,0.3133,0.12,-0.1431,-0.0541,-37.5,-21.75,-8.55,,adl
9.741358,-0.0722,-0.7276,0.3133,0.12,-0.1431,-0.0541,-37.725,-22.05,-7.65,,adl
9.752038,-0.0722,-0.7276,0.3133,0.12,-0.1431,-0.0541,-37.725,-22.05,-7.65,,adl
9.754765,-0.4002,-0.4973,-0.1939,0.12,-0.1431,-0.0541,-37.725,-22.05,-7.65,,adl
9.774748,-0.4002,-0.4973,-0.1939,0.12,-0.1431,-0.0541,-37.725,-22.05,-7.65,,adl
9.777352,0.2303,-0.1252,-1.2831,0.12,-0.1431,-0.0541,-37.725,-22.05,-7.65,,adl
9.791213,0.2303,-0.1252,-1.2831,-0.0657,0.0443,-0.0455,-37.725,-22.05,-7.65,,adl
9.793582,0.2303,-0.1252,-1.2831,-0.0657,0.0443,-0.0455,-37.725,-22.05,-7.65,,adl
9.794982,0.5216,0.2787,-0.5723,-0.0657,0.0443,-0.0455,-37.725,-22.05,-7.65,,adl
9.809828,0.5216,0.2787,-0.5723,-0.0657,0.0443,-0.0455,-37.725,-22.05,-7.65,,adl
9.812018,-0.1794,0.7903,0.4773,-0.0657,0.0443,-0.0455,-37.725,-22.05,-7.65,,adl
9.813916,-0.1794,0.7903,0.4773,-0.0657,0.0443,-0.0455,-37.725,-22.575,-7.575,,adl
9.829126,-0.1794,0.7903,0.4773,-0.0657,0.0443,-0.0455,-37.725,-22.575,-7.575,,adl
9.831473,-0.4334,0.9306,0.3999,-0.0657,0.0443,-0.0455,-37.725,-22.575,-7.575,,adl
9.849531,-0.4334,0.9306,0.3999,-0.0657,0.0443,-0.0455,-37.725,-22.575,-7.575,,adl
9.851585,-0.4455,0.5907,0.5876,-0.0657,0.0443,-0.0455,-37.725,-22.575,-7.575,,adl
9.855021,-0.4455,0.5907,0.5876,-0.0545,0.0826,0.0669,-37.725,-22.575,-7.575,,adl
9.869807,-0.4455,0.5907,0.5876,-0.0545,0.0826,0.0669,-37.725,-22.575,-7.575,,adl
9.872027,-0.3685,0.0493,1.2991,-0.0545,0.0826,0.0669,-37.725,-22.575,-7.575,,adl
9.880818,-0.3685,0.0493,1.2991,-0.0545,0.0826,0.0669,-37.8,-22.275,-8.025,,adl
9.888567,-0.3685,0.0493,1.2991,-0.0545,0.0826,0.0669,-37.8,-22.275,-8.025,,adl
9.890461,-0.2519,-0.3666,0.7936,-0.0545,0.0826,0.0669,-37.8,-22.275,-8.025,,adl
9.908137,-0.2519,-0.3666,0.7936,-0.0545,0.0826,0.0669,-37.8,-22.275,-8.025,,adl
9.910998,-0.0692,-0.4573,-0.2627,-0.0545,0.0826,0.0669,-37.8,-22.275,-8.025,,adl
9.92673,-0.0692,-0.4573,-0.2627,0.0848,-0.1119,-0.0069,-37.8,-22.275,-8.025,,adl
9.931202,-0.0692,-0.4573,-0.2627,0.0848,-0.1119,-0.0069,-37.8,-22.275,-8.025,,adl
9.933183,0.1873,-0.6149,-0.1309,0.0848,-0.1119,-0.0069,-37.8,-22.275,-8.025,,adl
9.952343,0.1873,-0.6149,-0.1309,0.0848,-0.1119,-0.0069,-37.8,-22.275,-8.025,,adl
9.955527,0.3773,-0.737,0.5071,0.0848,-0.1119,-0.0069,-37.8,-22.275,-8.025,,adl
9.9575,0.3773,-0.737,0.5071,0.0848,-0.1119,-0.0069,-38.25,-22.35,-8.55,,adl
9.973087,0.3773,-0.737,0.5071,0.0848,-0.1119,-0.0069,-38.25,-22.35,-8.55,,adl
9.975209,0.2798,-0.3873,-0.2072,0.0848,-0.1119,-0.0069,-38.25,-22.35,-8.55,,adl
9.990149,0.2798,-0.3873,-0.2072,0.0848,-0.1119,-0.0069,-38.25,-22.35,-8.55,,adl
9.992378,0.422,0.0314,-1.2191,0.0848,-0.1119,-0.0069,-38.25,-22.35,-8.55,,adl
9.995507,0.422,0.0314,-1.2191,0.0347,-0.0089,-0.1356,-38.25,-22.35,-8.55,,adl
10.010135,0.422,0.0314,-1.2191,0.0347,-0.0089,-0.1356,-38.25,-22.35,-8.55,,adl
10.012797,0.3514,0.4813,-0.9751,0.0347,-0.0089,-0.1356,-38.25,-22.35,-8.55,,adl
10.022363,0.3514,0.4813,-0.9751,0.0347,-0.0089,-0.1356,-37.575,-22.35,-8.025,,adl
10.030104,0.3514,0.4813,-0.9751,0.0347,-0.0089,-0.1356,-37.575,-22.35,-8.025,,adl
10.031854,-0.4386,0.9268,0.2536,0.0347,-0.0089,-0.1356,-37.575,-22.35,-8.025,,adl
10.048926,-0.4386,0.9268,0.2536,0.0347,-0.0089,-0.1356,-37.575,-22.35,-8.025,,adl
10.05106,-0.9175,1.0644,0.3879,0.0347,-0.0089,-0.1356,-37.575,-22.35,-8.025,,adl
10.064653,-0.9175,1.0644,0.3879,-0.0637,0.1344,0.0255,-37.575,-22.35,-8.025,,adl
10.074875,-0.9175,1.0644,0.3879,-0.0637,0.1344,0.0255,-37.575,-22.35,-8.025,,adl
10.076502,-0.8849,0.7344,0.462,-0.0637,0.1344,0.0255,-37.575,-22.35,-8.025,,adl
10.087836,-0.8849,0.7344,0.462,-0.0637,0.1344,0.0255,-37.575,-22.35,-8.025,,adl
10.090391,-0.6494,0.1874,1.0396,-0.0637,0.1344,0.0255,-37.575,-22.35,-8.025,,adl
10.092247,-0.6494,0.1874,1.0396,-0.0637,0.1344,0.0255,-37.05,-22.35,-8.55,,adl
10.108026,-0.6494,0.1874,1.0396,-0.0637,0.1344,0.0255,-37.05,-22.35,-8.55,,adl
10.110545,-0.0947,-0.2538,0.5934,-0.0637,0.1344,0.0255,-37.05,-22.35,-8.55,,adl
10.127789,-0.0947,-0.2538,0.5934,-0.0637,0.1344,0.0255,-37.05,-22.35,-8.55,,adl
10.130365,0.5696,-0.395,0.0319,-0.0637,0.1344,0.0255,-37.05,-22.35,-8.55,,adl
10.132701,0.5696,-0.395,0.0319,0.0553,-0.0993,0.0551,-37.05,-22.35,-8.55,,adl
10.14765,0.5696,-0.395,0.0319,0.0553,-0.0993,0.0551,-37.05,-22.35,-8.55,,adl
10.149969,0.3941,-0.54,0.0563,0.0553,-0.0993,0.0551,-37.05,-22.35,-8.55,,adl
10.16046,0.3941,-0.54,0.0563,0.0553,-0.0993,0.0551,-36.975,-22.425,-8.55,,adl
10.166554,0.3941,-0.54,0.0563,0.0553,-0.0993,0.0551,-36.975,-22.425,-8.55,,adl
10.168331,-0.0877,-0.6871,0.3446,0.0553,-0.0993,0.0551,-36.975,-22.425,-8.55,,adl
10.186112,-0.0877,-0.6871,0.3446,0.0553,-0.0993,0.0551,-36.975,-22.425,-8.55,,adl
10.189744,-0.3205,-0.7147,0.5741,0.0553,-0.0993,0.0551,-36.975,-22.425,-8.55,,adl
10.205715,-0.3205,-0.7147,0.5741,0.0082,-0.1145,-0.0867,-36.975,-22.425,-8.55,,adl
10.211067,-0.3205,-0.7147,0.5741,0.0082,-0.1145,-0.0867,-36.975,-22.425,-8.55,,adl
10.212771,0.0183,-0.3905,-0.2344,0.0082,-0.1145,-0.0867,-36.975,-22.425,-8.55,,adl
10.229867,0.0183,-0.3905,-0.2344,0.0082,-0.1145,-0.0867,-36.975,-22.425,-8.55,,adl
10.232118,0.5639,0.0928,-1.1071,0.0082,-0.1145,-0.0867,-36.975,-22.425,-8.55,,adl
10.23361,0.5639,0.0928,-1.1071,0.0082,-0.1145,-0.0867,-37.2,-22.35,-7.875,,adl
10.249677,0.5639,0.0928,-1.1071,0.0082,-0.1145,-0.0867,-37.2,-22.35,-7.875,,adl
10.252304,0.39,0.6825,-0.6873,0.0082,-0.1145,-0.0867,-37.2,-22.35,-7.875,,adl
10.269153,0.39,0.6825,-0.6873,0.0082,-0.1145,-0.0867,-37.2,-22.35,-7.875,,adl
10.271913,-0.3255,1.2012,0.1946,0.0082,-0.1145,-0.0867,-37.2,-22.35,-7.875,,adl
10.274112,-0.3255,1.2012,0.1946,-0.0304,0.035,-0.0228,-37.2,-22.35,-7.875,,adl
10.29162,-0.3255,1.2012,0.1946,-0.0304,0.035,-0.0228,-37.2,-22.35,-7.875,,adl
10.293428,-0.626,1.1421,0.3823,-0.0304,0.035,-0.0228,-37.2,-22.35,-7.875,,adl
10.299433,-0.626,1.1421,0.3823,-0.0304,0.035,-0.0228,-37.35,-22.575,-7.725,,adl
10.30826,-0.626,1.1421,0.3823,-0.0304,0.035,-0.0228,-37.35,-22.575,-7.725,,adl
10.310279,-0.5584,0.5673,0.6305,-0.0304,0.035,-0.0228,-37.35,-22.575,-7.725,,adl
10.327879,-0.5584,0.5673,0.6305,-0.0304,0.035,-0.0228,-37.35,-22.575,-7.725,,adl
10.330489,-0.5033,-0.1183,0.8332,-0.0304,0.035,-0.0228,-37.35,-22.575,-7.725,,adl
10.34293,-0.5033,-0.1183,0.8332,0.0027,-0.0487,0.0576,-37.35,-22.575,-7.725,,adl
10.347725,-0.5033,-0.1183,0.8332,0.0027,-0.0487,0.0576,-37.35,-22.575,-7.725,,adl
10.349383,-0.1926,-0.52,0.6357,0.0027,-0.0487,0.0576,-37.35,-22.575,-7.725,,adl
10.36794,-0.1926,-0.52,0.6357,0.0027,-0.0487,0.0576,-37.35,-22.575,-7.725,,adl
10.372031,0.2726,-0.4983,-0.0765,0.0027,-0.0487,0.0576,-37.35,-22.575,-7.725,,adl
10.374229,0.2726,-0.4983,-0.0765,0.0027,-0.0487,0.0576,-38.25,-22.65,-7.725,,adl
10.391066,0.2726,-0.4983,-0.0765,0.0027,-0.0487,0.0576,-38.25,-22.65,-7.725,,adl
10.393047,0.2977,-0.3283,-0.1849,0.0027,-0.0487,0.0576,-38.25,-22.65,-7.725,,adl
10.406142,0.2977,-0.3283,-0.1849,0.0027,-0.0487,0.0576,-38.25,-22.65,-7.725,,adl
10.409124,0.0304,-0.273,0.493,0.0027,-0.0487,0.0576,-38.25,-22.65,-7.725,,adl
10.411297,0.0304,-0.273,0.493,0.022,-0.0901,-0.0412,-38.25,-22.65,-7.725,,adl
10.426003,0.0304,-0.273,0.493,0.022,-0.0901,-0.0412,-38.25,-22.65,-7.725,,adl
10.428165,-0.0953,-0.2158,0.0693,0.022,-0.0901,-0.0412,-38.25,-22.65,-7.725,,adl
10.439908,-0.0953,-0.2158,0.0693,0.022,-0.0901,-0.0412,-37.5,-22.95,-7.725,,adl
10.445139,-0.0953,-0.2158,0.0693,0.022,-0.0901,-0.0412,-37.5,-22.95,-7.725,,adl
10.446779,0.1109,-0.1326,-0.8004,0.022,-0.0901,-0.0412,-37.5,-22.95,-7.725,,adl
10.465462,0.1109,-0.1326,-0.8004,0.022,-0.0901,-0.0412,-37.5,-22.95,-7.725,,adl
10.467739,0.15,0.1626,-0.4874,0.022,-0.0901,-0.0412,-37.5,-22.95,-7.725,,adl
10.484663,0.15,0.1626,-0.4874,-0.016,0.0687,0.0044,-37.5,-22.95,-7.725,,adl
10.487815,0.15,0.1626,-0.4874,-0.016,0.0687,0.0044,-37.5,-22.95,-7.725,,adl
10.489475,-0.2433,0.5665,0.2238,-0.016,0.0687,0.0044,-37.5,-22.95,-7.725,,adl
10.509205,-0.2433,0.5665,0.2238,-0.016,0.0687,0.0044,-37.5,-22.95,-7.725,,adl
10.511422,-0.2388,0.5867,0.4854,-0.016,0.0687,0.0044,-37.5,-22.95,-7.725,,adl
10.513366,-0.2388,0.5867,0.4854,-0.016,0.0687,0.0044,-37.875,-23.325,-7.65,,adl
10.528593,-0.2388,0.5867,0.4854,-0.016,0.0687,0.0044,-37.875,-23.325,-7.65,,adl
10.53156,-0.2343,0.2677,0.803,-0.016,0.0687,0.0044,-37.875,-23.325,-7.65,,adl
10.548248,-0.2343,0.2677,0.803,-0.016,0.0687,0.0044,-37.875,-23.325,-7.65,,adl
10.55289,-0.2427,-0.1212,0.9185,-0.016,0.0687,0.0044,-37.875,-23.325,-7.65,,adl
10.556608,-0.2427,-0.1212,0.9185,0.0304,0.0241,0.0429,-37.875,-23.325,-7.65,,adl
10.567892,-0.2427,-0.1212,0.9185,0.0304,0.0241,0.0429,-37.875,-23.325,-7.65,,adl
10.571165,-0.0772,-0.2638,0.4971,0.0304,0.0241,0.0429,-37.875,-23.325,-7.65,,adl
10.579697,-0.0772,-0.2638,0.4971,0.0304,0.0241,0.0429,-37.725,-22.575,-7.65,,adl
10.591379,-0.0772,-0.2638,0.4971,0.0304,0.0241,0.0429,-37.725,-22.575,-7.65,,adl
10.593227,0.2329,-0.1474,-0.2688,0.0304,0.0241,0.0429,-37.725,-22.575,-7.65,,adl
10.606426,0.2329,-0.1474,-0.2688,0.0304,0.0241,0.0429,-37.725,-22.575,-7.65,,adl
10.608766,0.1815,-0.0886,-0.2391,0.0304,0.0241,0.0429,-37.725,-22.575,-7.65,,adl
10.621015,0.1815,-0.0886,-0.2391,0.0658,0.0481,-0.0078,-37.725,-22.575,-7.65,,adl
10.626211,0.1815,-0.0886,-0.2391,0.0658,0.0481,-0.0078,-37.725,-22.575,-7.65,,adl
10.628086,-0.1868,-0.2119,0.2961,0.0658,0.0481,-0.0078,-37.725,-22.575,-7.65,,adl
10.646324,-0.1868,-0.2119,0.2961,0.0658,0.0481,-0.0078,-37.725,-22.575,-7.65,,adl
10.649657,-0.2927,-0.3246,0.3695,0.0658,0.0481,-0.0078,-37.725,-22.575,-7.65,,adl
10.652811,-0.2927,-0.3246,0.3695,0.0658,0.0481,-0.0078,-38.025,-22.35,-7.425,,adl
10.665433,-0.2927,-0.3246,0.3695,0.0658,0.0481,-0.0078,-38.025,-22.35,-7.425,,adl
10.669889,-0.1158,-0.2851,0.2404,0.0658,0.0481,-0.0078,-38.025,-22.35,-7.425,,adl
10.685692,-0.1158,-0.2851,0.2404,0.0658,0.0481,-0.0078,-38.025,-22.35,-7.425,,adl
10.688299,-0.0302,-0.0899,0.184,0.0658,0.0481,-0.0078,-38.025,-22.35,-7.425,,adl
10.690585,-0.0302,-0.0899,0.184,0.0267,-0.0304,0.0174,-38.025,-22.35,-7.425,,adl
10.706314,-0.0302,-0.0899,0.184,0.0267,-0.0304,0.0174,-38.025,-22.35,-7.425,,adl
10.708217,0.0298,0.1647,0.0681,0.0267,-0.0304,0.0174,-38.025,-22.35,-7.425,,adl
10.723099,0.0298,0.1647,0.0681,0.0267,-0.0304,0.0174,-38.1,-22.35,-7.875,,adl
10.724602,0.0298,0.1647,0.0681,0.0267,-0.0304,0.0174,-38.1,-22.35,-7.875,,adl
10.725693,0.0807,0.3668,-0.0681,0.0267,-0.0304,0.0174,-38.1,-22.35,-7.875,,adl
10.74387,0.0807,0.3668,-0.0681,0.0267,-0.0304,0.0174,-38.1,-22.35,-7.875,,adl
10.745632,0.0543,0.4285,-0.1102,0.0267,-0.0304,0.0174,-38.1,-22.35,-7.875,,adl
10.758213,0.0543,0.4285,-0.1102,0.0571,-0.0411,-0.0115,-38.1,-22.35,-7.875,,adl
10.763123,0.0543,0.4285,-0.1102,0.0571,-0.0411,-0.0115,-38.1,-22.35,-7.875,,adl
10.764442,-0.0367,0.3644,-0.04,0.0571,-0.0411,-0.0115,-38.1,-22.35,-7.875,,adl
10.782843,-0.0367,0.3644,-0.04,0.0571,-0.0411,-0.0115,-38.1,-22.35,-7.875,,adl
10.785413,-0.1196,0.2205,0.1233,0.0571,-0.0411,-0.0115,-38.1,-22.35,-7.875,,adl
10.794856,-0.1196,0.2205,0.1233,0.0571,-0.0411,-0.0115,-37.8,-22.05,-7.35,,adl
10.803209,-0.1196,0.2205,0.1233,0.0571,-0.0411,-0.0115,-37.8,-22.05,-7.35,,adl
10.805376,-0.1929,0.1232,0.1867,0.0571,-0.0411,-0.0115,-37.8,-22.05,-7.35,,adl
10.823364,-0.1929,0.1232,0.1867,0.0571,-0.0411,-0.0115,-37.8,-22.05,-7.35,,adl
10.825714,-0.2526,0.0957,0.059,0.0571,-0.0411,-0.0115,-37.8,-22.05,-7.35,,adl
10.827996,-0.2526,0.0957,0.059,0.0005,-0.017,-0.0055,-37.8,-22.05,-7.35,,adl
10.845891,-0.2526,0.0957,0.059,0.0005,-0.017,-0.0055,-37.8,-22.05,-7.35,,adl
10.847577,-0.2416,0.1159,0.0551,0.0005,-0.017,-0.0055,-37.8,-22.05,-7.35,,adl
10.859707,-0.2416,0.1159,0.0551,0.0005,-0.017,-0.0055,-37.425,-22.65,-7.65,,adl
10.865948,-0.2416,0.1159,0.0551,0.0005,-0.017,-0.0055,-37.425,-22.65,-7.65,,adl
10.86791,-0.2002,0.0554,0.0445,0.0005,-0.017,-0.0055,-37.425,-22.65,-7.65,,adl
10.885841,-0.2002,0.0554,0.0445,0.0005,-0.017,-0.0055,-37.425,-22.65,-7.65,,adl
10.890079,-0.12,-0.0177,0.1053,0.0005,-0.017,-0.0055,-37.425,-22.65,-7.65,,adl
10.908802,-0.12,-0.0177,0.1053,0.0017,-0.0243,-0.0014,-37.425,-22.65,-7.65,,adl
10.910855,-0.12,-0.0177,0.1053,0.0017,-0.0243,-0.0014,-37.425,-22.65,-7.65,,adl
10.912234,-0.0857,-0.0258,0.0961,0.0017,-0.0243,-0.0014,-37.425,-22.65,-7.65,,adl
10.9246,-0.0857,-0.0258,0.0961,0.0017,-0.0243,-0.0014,-37.425,-22.65,-7.65,,adl
10.926918,-0.023,-0.0033,0.0907,0.0017,-0.0243,-0.0014,-37.425,-22.65,-7.65,,adl
10.929302,-0.023,-0.0033,0.0907,0.0017,-0.0243,-0.0014,-37.35,-22.95,-7.125,,adl
10.944078,-0.023,-0.0033,0.0907,0.0017,-0.0243,-0.0014,-37.35,-22.95,-7.125,,adl
10.946525,0.0183,0.0561,0.1566,0.0017,-0.0243,-0.0014,-37.35,-22.95,-7.125,,adl
10.964598,0.0183,0.0561,0.1566,0.0017,-0.0243,-0.0014,-37.35,-22.95,-7.125,,adl
10.967433,0.0315,0.0343,0.2419,0.0017,-0.0243,-0.0014,-37.35,-22.95,-7.125,,adl
10.969438,0.0315,0.0343,0.2419,-0.0075,-0.0122,0.0134,-37.35,-22.95,-7.125,,adl
10.983992,0.0315,0.0343,0.2419,-0.0075,-0.0122,0.0134,-37.35,-22.95,-7.125,,adl
10.986418,0.0535,-0.0187,0.2304,-0.0075,-0.0122,0.0134,-37.35,-22.95,-7.125,,adl
11.001068,0.0535,-0.0187,0.2304,-0.0075,-0.0122,0.0134,-37.575,-22.65,-7.05,,adl
11.003626,0.0535,-0.0187,0.2304,-0.0075,-0.0122,0.0134,-37.575,-22.65,-7.05,,adl
11.004811,0.0518,-0.0393,0.1387,-0.0075,-0.0122,0.0134,-37.575,-22.65,-7.05,,adl
11.022195,0.0518,-0.0393,0.1387,-0.0075,-0.0122,0.0134,-37.575,-22.65,-7.05,,adl
11.024461,0.0131,-0.0334,0.1209,-0.0075,-0.0122,0.0134,-37.575,-22.65,-7.05,,adl
11.042949,0.0131,-0.0334,0.1209,0.0357,-0.0431,0.0044,-37.575,-22.65,-7.05,,adl
11.045592,0.0131,-0.0334,0.1209,0.0357,-0.0431,0.0044,-37.575,-22.65,-7.05,,adl
11.047106,-0.0008,-0.0216,0.118,0.0357,-0.0431,0.0044,-37.575,-22.65,-7.05,,adl
11.061315,-0.0008,-0.0216,0.118,0.0357,-0.0431,0.0044,-37.575,-22.65,-7.05,,adl
11.063468,0.0193,0.0301,0.0476,0.0357,-0.0431,0.0044,-37.575,-22.65,-7.05,,adl
11.07135,0.0193,0.0301,0.0476,0.0357,-0.0431,0.0044,-38.25,-22.65,-7.65,,adl
11.081003,0.0193,0.0301,0.0476,0.0357,-0.0431,0.0044,-38.25,-22.65,-7.65,,adl
11.082566,0.018,0.0943,0.0882,0.0357,-0.0431,0.0044,-38.25,-22.65,-7.65,,adl
11.105906,0.018,0.0943,0.0882,0.0357,-0.0431,0.0044,-38.25,-22.65,-7.65,,adl
11.109335,-0.0201,0.112,0.1684,0.0357,-0.0431,0.0044,-38.25,-22.65,-7.65,,adl
11.112461,-0.0201,0.112,0.1684,-0.0098,-0.0035,-0.0076,-38.25,-22.65,-7.65,,adl
11.128761,-0.0201,0.112,0.1684,-0.0098,-0.0035,-0.0076,-38.25,-22.65,-7.65,,adl
11.132361,-0.0667,0.1121,0.174,-0.0098,-0.0035,-0.0076,-38.25,-22.65,-7.65,,adl
11.140893,-0.0667,0.1121,0.174,-0.0098,-0.0035,-0.0076,-37.725,-22.65,-7.125,,adl
11.14347,-0.0667,0.1121,0.174,-0.0098,-0.0035,-0.0076,-37.725,-22.65,-7.125,,adl
11.145004,-0.1182,0.0924,0.1072,-0.0098,-0.0035,-0.0076,-37.725,-22.65,-7.125,,adl
11.163926,-0.1182,0.0924,0.1072,-0.0098,-0.0035,-0.0076,-37.725,-22.65,-7.125,,adl
11.165578,-0.1649,0.0659,0.0255,-0.0098,-0.0035,-0.0076,-37.725,-22.65,-7.125,,adl
11.179043,-0.1649,0.0659,0.0255,-0.0275,-0.007,-0.0221,-37.725,-22.65,-7.125,,adl
11.18593,-0.1649,0.0659,0.0255,-0.0275,-0.007,-0.0221,-37.725,-22.65,-7.125,,adl
11.188048,-0.1748,0.0236,0.2391,-0.0275,-0.007,-0.0221,-37.725,-22.65,-7.125,,adl
11.203072,-0.1748,0.0236,0.2391,-0.0275,-0.007,-0.0221,-37.725,-22.65,-7.125,,adl
11.205345,-0.124,-0.0069,0.1628,-0.0275,-0.007,-0.0221,-37.725,-22.65,-7.125,,adl
11.20945,-0.124,-0.0069,0.1628,-0.0275,-0.007,-0.0221,-37.95,-21.75,-7.125,,adl
11.223125,-0.124,-0.0069,0.1628,-0.0275,-0.007,-0.0221,-37.95,-21.75,-7.125,,adl
11.226798,-0.0714,0.0138,0.0476,-0.0275,-0.007,-0.0221,-37.95,-21.75,-7.125,,adl
11.243125,-0.0714,0.0138,0.0476,-0.0275,-0.007,-0.0221,-37.95,-21.75,-7.125,,adl
11.245542,-0.0419,0.0708,0.0594,-0.0275,-0.007,-0.0221,-37.95,-21.75,-7.125,,adl
11.248064,-0.0419,0.0708,0.0594,-0.0308,0.0011,-0.0095,-37.95,-21.75,-7.125,,adl
11.262174,-0.0419,0.0708,0.0594,-0.0308,0.0011,-0.0095,-37.95,-21.75,-7.125,,adl
11.264946,-0.0175,0.0886,0.1669,-0.0308,0.0011,-0.0095,-37.95,-21.75,-7.125,,adl
11.279914,-0.0175,0.0886,0.1669,-0.0308,0.0011,-0.0095,-37.575,-22.35,-7.275,,adl
11.282168,-0.0175,0.0886,0.1669,-0.0308,0.0011,-0.0095,-37.575,-22.35,-7.275,,adl
11.283426,-0.0088,0.0575,0.2433,-0.0308,0.0011,-0.0095,-37.575,-22.35,-7.275,,adl
11.301447,-0.0088,0.0575,0.2433,-0.0308,0.0011,-0.0095,-37.575,-22.35,-7.275,,adl
11.305358,-0.0246,0.0434,0.174,-0.0308,0.0011,-0.0095,-37.575,-22.35,-7.275,,adl
11.316055,-0.0246,0.0434,0.174,-0.0631,0.0243,0.0067,-37.575,-22.35,-7.275,,adl
11.325998,-0.0246,0.0434,0.174,-0.0631,0.0243,0.0067,-37.575,-22.35,-7.275,,adl
11.328558,0.012,0.0247,0.0592,-0.0631,0.0243,0.0067,-37.575,-22.35,-7.275,,adl
11.339754,0.012,0.0247,0.0592,-0.0631,0.0243,0.0067,-37.575,-22.35,-7.275,,adl
11.341657,0.0296,0.0192,0.0666,-0.0631,0.0243,0.0067,-37.575,-22.35,-7.275,,adl
11.343277,0.0296,0.0192,0.0666,-0.0631,0.0243,0.0067,-38.1,-22.35,-7.35,,adl
11.365584,0.0296,0.0192,0.0666,-0.0631,0.0243,0.0067,-38.1,-22.35,-7.35,,adl
11.369416,0.0491,0.0363,0.0553,-0.0631,0.0243,0.0067,-38.1,-22.35,-7.35,,adl
11.386996,0.0491,0.0363,0.0553,-0.0631,0.0243,0.0067,-38.1,-22.35,-7.35,,adl
11.390093,0.0528,0.0821,-0.0455,-0.0631,0.0243,0.0067,-38.1,-22.35,-7.35,,adl
11.392083,0.0528,0.0821,-0.0455,-0.0032,0.0127,-0.0026,-38.1,-22.35,-7.35,,adl
11.407713,0.0528,0.0821,-0.0455,-0.0032,0.0127,-0.0026,-38.1,-22.35,-7.35,,adl
11.410081,-0.0074,0.0636,0.0183,-0.0032,0.0127,-0.0026,-38.1,-22.35,-7.35,,adl
11.413825,-0.0074,0.0636,0.0183,-0.0032,0.0127,-0.0026,-38.25,-22.425,-7.425,,adl
11.423055,-0.0074,0.0636,0.0183,-0.0032,0.0127,-0.0026,-38.25,-22.425,-7.425,,adl
11.424762,-0.106,0.0552,0.2174,-0.0032,0.0127,-0.0026,-38.25,-22.425,-7.425,,adl
11.442785,-0.106,0.0552,0.2174,-0.0032,0.0127,-0.0026,-38.25,-22.425,-7.425,,adl
11.4447,-0.1614,0.088,0.2893,-0.0032,0.0127,-0.0026,-38.25,-22.425,-7.425,,adl
11.457347,-0.1614,0.088,0.2893,0.0,0.0089,-0.0067,-38.25,-22.425,-7.425,,adl
11.462267,-0.1614,0.088,0.2893,0.0,0.0089,-0.0067,-38.25,-22.425,-7.425,,adl
11.463835,-0.0839,0.0929,0.1254,0.0,0.0089,-0.0067,-38.25,-22.425,-7.425,,adl
11.482287,-0.0839,0.0929,0.1254,0.0,0.0089,-0.0067,-38.25,-22.425,-7.425,,adl
11.484882,-0.0018,0.0577,-0.005,0.0,0.0089,-0.0067,-38.25,-22.425,-7.425,,adl
11.487392,-0.0018,0.0577,-0.005,0.0,0.0089,-0.0067,-37.425,-22.275,-7.875,,adl
11.501451,-0.0018,0.0577,-0.005,0.0,0.0089,-0.0067,-37.425,-22.275,-7.875,,adl
11.504465,-0.0018,0.0253,0.0363,0.0,0.0089,-0.0067,-37.425,-22.275,-7.875,,adl
11.523379,-0.0018,0.0253,0.0363,0.0,0.0089,-0.0067,-37.425,-22.275,-7.875,,adl
11.525269,-0.0617,0.0253,0.2079,0.0,0.0089,-0.0067,-37.425,-22.275,-7.875,,adl
11.527047,-0.0617,0.0253,0.2079,-0.0429,0.0241,-0.0008,-37.425,-22.275,-7.875,,adl
11.538276,-0.0617,0.0253,0.2079,-0.0429,0.0241,-0.0008,-37.425,-22.275,-7.875,,adl
11.540165,-0.0914,-0.0052,0.3163,-0.0429,0.0241,-0.0008,-37.425,-22.275,-7.875,,adl
11.55525,-0.0914,-0.0052,0.3163,-0.0429,0.0241,-0.0008,-36.6,-22.05,-7.425,,adl
11.559895,-0.0914,-0.0052,0.3163,-0.0429,0.0241,-0.0008,-36.6,-22.05,-7.425,,adl
11.561535,-0.1011,-0.0618,0.2305,-0.0429,0.0241,-0.0008,-36.6,-22.05,-7.425,,adl
11.57991,-0.1011,-0.0618,0.2305,-0.0429,0.0241,-0.0008,-36.6,-22.05,-7.425,,adl
11.582011,-0.0847,-0.0943,0.0793,-0.0429,0.0241,-0.0008,-36.6,-22.05,-7.425,,adl
11.594323,-0.0847,-0.0943,0.0793,-0.0032,-0.0279,-0.0005,-36.6,-22.05,-7.425,,adl
11.605498,-0.0847,-0.0943,0.0793,-0.0032,-0.0279,-0.0005,-36.6,-22.05,-7.425,,adl
11.607936,-0.0668,-0.0736,0.1133,-0.0032,-0.0279,-0.0005,-36.6,-22.05,-7.425,,adl
11.624405,-0.0668,-0.0736,0.1133,-0.0032,-0.0279,-0.0005,-36.6,-22.05,-7.425,,adl
11.628149,-0.0828,-0.0008,0.059,-0.0032,-0.0279,-0.0005,-36.6,-22.05,-7.425,,adl
11.629977,-0.0828,-0.0008,0.059,-0.0032,-0.0279,-0.0005,-38.325,-22.575,-7.125,,adl
11.643795,-0.0828,-0.0008,0.059,-0.0032,-0.0279,-0.0005,-38.325,-22.575,-7.125,,adl
11.646552,-0.0466,0.0743,0.1846,-0.0032,-0.0279,-0.0005,-38.325,-22.575,-7.125,,adl
11.662868,-0.0466,0.0743,0.1846,-0.0032,-0.0279,-0.0005,-38.325,-22.575,-7.125,,adl
11.665877,-0.0225,0.0966,0.1237,-0.0032,-0.0279,-0.0005,-38.325,-22.575,-7.125,,adl
11.667913,-0.0225,0.0966,0.1237,-0.0102,-0.0133,0.0014,-38.325,-22.575,-7.125,,adl
11.682846,-0.0225,0.0966,0.1237,-0.0102,-0.0133,0.0014,-38.325,-22.575,-7.125,,adl
11.684639,0.0494,0.1066,0.1567,-0.0102,-0.0133,0.0014,-38.325,-22.575,-7.125,,adl
11.692522,0.0494,0.1066,0.1567,-0.0102,-0.0133,0.0014,-37.425,-22.65,-7.125,,adl
11.701775,0.0494,0.1066,0.1567,-0.0102,-0.0133,0.0014,-37.425,-22.65,-7.125,,adl
11.703252,0.0609,0.0921,0.1344,-0.0102,-0.0133,0.0014,-37.425,-22.65,-7.125,,adl
11.72242,0.0609,0.0921,0.1344,-0.0102,-0.0133,0.0014,-37.425,-22.65,-7.125,,adl
11.724592,0.0121,0.089,0.2086,-0.0102,-0.0133,0.0014,-37.425,-22.65,-7.125,,adl
11.738839,0.0121,0.089,0.2086,0.0066,-0.0231,-0.0084,-37.425,-22.65,-7.125,,adl
11.741957,0.0121,0.089,0.2086,0.0066,-0.0231,-0.0084,-37.425,-22.65,-7.125,,adl
11.744143,-0.0365,0.0685,0.1899,0.0066,-0.0231,-0.0084,-37.425,-22.65,-7.125,,adl
