time,ax,ay,az,wx,wy,wz,Bx,By,Bz,Unnamed: 10,label
0.045659,0.0,0.0,0.0,0.0,0.0,0.0,0.0,0.0,0.0,,adl
0.070308,0.0,0.0,0.0,0.0,0.0,0.0,0.0,0.0,0.0,,adl
0.071121,0.001,0.0582,-0.0116,0.0,0.0,0.0,0.0,0.0,0.0,,adl
0.071719,0.001,0.0582,-0.0116,0.0,0.0,0.0,29.025,0.225,-28.125,,adl
0.08816,0.001,0.0582,-0.0116,0.0,0.0,0.0,29.025,0.225,-28.125,,adl
0.088811,0.011,0.1405,-0.1017,0.0,0.0,0.0,29.025,0.225,-28.125,,adl
0.108724,0.011,0.1405,-0.1017,0.0,0.0,0.0,29.025,0.225,-28.125,,adl
0.11114,0.0261,0.2101,-0.1476,0.0,0.0,0.0,29.025,0.225,-28.125,,adl
0.113058,0.0261,0.2101,-0.1476,-0.0029,-0.0069,-0.0119,29.025,0.225,-28.125,,adl
0.126979,0.0261,0.2101,-0.1476,-0.0029,-0.0069,-0.0119,29.025,0.225,-28.125,,adl
0.128601,0.0024,0.142,-0.056,-0.0029,-0.0069,-0.0119,29.025,0.225,-28.125,,adl
0.143031,0.0024,0.142,-0.056,-0.0029,-0.0069,-0.0119,29.85,-0.9,-27.225,,adl
0.146807,0.0024,0.142,-0.056,-0.0029,-0.0069,-0.0119,29.85,-0.9,-27.225,,adl
0.148412,-0.0704,0.0222,-0.015,-0.0029,-0.0069,-0.0119,29.85,-0.9,-27.225,,adl
0.166773,-0.0704,0.0222,-0.015,-0.0029,-0.0069,-0.0119,29.85,-0.9,-27.225,,adl
0.168364,-0.1206,-0.018,-0.0208,-0.0029,-0.0069,-0.0119,29.85,-0.9,-27.225,,adl
0.180915,-0.1206,-0.018,-0.0208,-0.0002,0.0124,0.0,29.85,-0.9,-27.225,,adl
0.185706,-0.1206,-0.018,-0.0208,-0.0002,0.0124,0.0,29.85,-0.9,-27.225,,adl
0.187209,-0.1256,-0.015,-0.0299,-0.0002,0.0124,0.0,29.85,-0.9,-27.225,,adl
0.205389,-0.1256,-0.015,-0.0299,-0.0002,0.0124,0.0,29.85,-0.9,-27.225,,adl
0.208364,-0.0744,-0.0108,-0.0606,-0.0002,0.0124,0.0,29.85,-0.9,-27.225,,adl
0.210755,-0.0744,-0.0108,-0.0606,-0.0002,0.0124,0.0,29.4,-0.375,-27.525,,adl
0.224356,-0.0744,-0.0108,-0.0606,-0.0002,0.0124,0.0,29.4,-0.375,-27.525,,adl
0.227325,-0.0208,0.0415,-0.0681,-0.0002,0.0124,0.0,29.4,-0.375,-27.525,,adl
0.245019,-0.0208,0.0415,-0.0681,-0.0002,0.0124,0.0,29.4,-0.375,-27.525,,adl
0.247636,0.0023,0.0864,-0.0606,-0.0002,0.0124,0.0,29.4,-0.375,-27.525,,adl
0.249839,0.0023,0.0864,-0.0606,0.0095,0.0063,-0.0053,29.4,-0.375,-27.525,,adl
0.263685,0.0023,0.0864,-0.0606,0.0095,0.0063,-0.0053,29.4,-0.375,-27.525,,adl
0.266181,-0.0132,0.0932,-0.0506,0.0095,0.0063,-0.0053,29.4,-0.375,-27.525,,adl
0.28061,-0.0132,0.0932,-0.0506,0.0095,0.0063,-0.0053,29.325,-0.3,-27.75,,adl
0.283618,-0.0132,0.0932,-0.0506,0.0095,0.0063,-0.0053,29.325,-0.3,-27.75,,adl
0.285487,-0.0289,0.0476,-0.0635,0.0095,0.0063,-0.0053,29.325,-0.3,-27.75,,adl
0.303021,-0.0289,0.0476,-0.0635,0.0095,0.0063,-0.0053,29.325,-0.3,-27.75,,adl
0.305761,-0.0652,0.023,-0.1041,0.0095,0.0063,-0.0053,29.325,-0.3,-27.75,,adl
0.317533,-0.0652,0.023,-0.1041,0.017,0.0043,-0.0032,29.325,-0.3,-27.75,,adl
0.322857,-0.0652,0.023,-0.1041,0.017,0.0043,-0.0032,29.325,-0.3,-27.75,,adl
0.324297,-0.0892,0.0497,-0.1231,0.017,0.0043,-0.0032,29.325,-0.3,-27.75,,adl
0.341828,-0.0892,0.0497,-0.1231,0.017,0.0043,-0.0032,29.325,-0.3,-27.75,,adl
0.343358,-0.0708,0.0681,-0.0923,0.017,0.0043,-0.0032,29.325,-0.3,-27.75,,adl
0.351191,-0.0708,0.0681,-0.0923,0.017,0.0043,-0.0032,29.4,-0.975,-27.75,,adl
0.362576,-0.0708,0.0681,-0.0923,0.017,0.0043,-0.0032,29.4,-0.975,-27.75,,adl
0.364238,-0.0403,0.0157,-0.03,0.017,0.0043,-0.0032,29.4,-0.975,-27.75,,adl
0.381685,-0.0403,0.0157,-0.03,0.017,0.0043,-0.0032,29.4,-0.975,-27.75,,adl
0.383208,-0.0251,0.0182,-0.126,0.017,0.0043,-0.0032,29.4,-0.975,-27.75,,adl
0.386821,-0.0251,0.0182,-0.126,0.015,0.0119,-0.0069,29.4,-0.975,-27.75,,adl
0.408196,-0.0251,0.0182,-0.126,0.015,0.0119,-0.0069,29.4,-0.975,-27.75,,adl
0.412645,-0.1355,0.0618,-0.0965,0.015,0.0119,-0.0069,29.4,-0.975,-27.75,,adl
0.416572,-0.1355,0.0618,-0.0965,0.015,0.0119,-0.0069,30.0,-0.975,-27.375,,adl
0.425745,-0.1355,0.0618,-0.0965,0.015,0.0119,-0.0069,30.0,-0.975,-27.375,,adl
0.428514,-0.0791,0.0233,-0.0479,0.015,0.0119,-0.0069,30.0,-0.975,-27.375,,adl
0.442235,-0.0791,0.0233,-0.0479,0.015,0.0119,-0.0069,30.0,-0.975,-27.375,,adl
0.444368,-0.0576,0.0219,-0.0996,0.015,0.0119,-0.0069,30.0,-0.975,-27.375,,adl
0.459932,-0.0576,0.0219,-0.0996,0.0231,0.0116,-0.0064,30.0,-0.975,-27.375,,adl
0.463796,-0.0576,0.0219,-0.0996,0.0231,0.0116,-0.0064,30.0,-0.975,-27.375,,adl
0.465678,-0.1133,0.0307,-0.1071,0.0231,0.0116,-0.0064,30.0,-0.975,-27.375,,adl
0.483923,-0.1133,0.0307,-0.1071,0.0231,0.0116,-0.0064,30.0,-0.975,-27.375,,adl
0.486046,-0.1489,0.0401,-0.1007,0.0231,0.0116,-0.0064,30.0,-0.975,-27.375,,adl
0.488093,-0.1489,0.0401,-0.1007,0.0231,0.0116,-0.0064,29.7,-0.525,-27.15,,adl
0.503017,-0.1489,0.0401,-0.1007,0.0231,0.0116,-0.0064,29.7,-0.525,-27.15,,adl
0.505013,-0.1156,0.0236,-0.083,0.0231,0.0116,-0.0064,29.7,-0.525,-27.15,,adl
0.523412,-0.1156,0.0236,-0.083,0.0231,0.0116,-0.0064,29.7,-0.525,-27.15,,adl
0.52525,-0.0998,-0.0058,-0.0629,0.0231,0.0116,-0.0064,29.7,-0.525,-27.15,,adl
0.52739,-0.0998,-0.0058,-0.0629,-0.0163,0.0018,-0.0055,29.7,-0.525,-27.15,,adl
0.545705,-0.0998,-0.0058,-0.0629,-0.0163,0.0018,-0.0055,29.7,-0.525,-27.15,,adl
0.548489,-0.0811,0.0264,-0.0102,-0.0163,0.0018,-0.0055,29.7,-0.525,-27.15,,adl
0.552351,-0.0811,0.0264,-0.0102,-0.0163,0.0018,-0.0055,29.475,-0.975,-27.15,,adl
0.561797,-0.0811,0.0264,-0.0102,-0.0163,0.0018,-0.0055,29.475,-0.975,-27.15,,adl
0.563802,-0.0815,0.056,-0.0276,-0.0163,0.0018,-0.0055,29.475,-0.975,-27.15,,adl
0.581816,-0.0815,0.056,-0.0276,-0.0163,0.0018,-0.0055,29.475,-0.975,-27.15,,adl
0.584217,-0.0975,0.061,-0.0796,-0.0163,0.0018,-0.0055,29.475,-0.975,-27.15,,adl
0.596097,-0.0975,0.061,-0.0796,0.0098,-0.0162,-0.0031,29.475,-0.975,-27.15,,adl
0.600977,-0.0975,0.061,-0.0796,0.0098,-0.0162,-0.0031,29.475,-0.975,-27.15,,adl
0.602598,-0.1184,0.0667,-0.1222,0.0098,-0.0162,-0.0031,29.475,-0.975,-27.15,,adl
0.621122,-0.1184,0.0667,-0.1222,0.0098,-0.0162,-0.0031,29.475,-0.975,-27.15,,adl
0.622321,-0.1044,0.0317,-0.1037,0.0098,-0.0162,-0.0031,29.475,-0.975,-27.15,,adl
0.62361,-0.1044,0.0317,-0.1037,0.0098,-0.0162,-0.0031,29.325,-0.15,-27.15,,adl
0.641793,-0.1044,0.0317,-0.1037,0.0098,-0.0162,-0.0031,29.325,-0.15,-27.15,,adl
0.643528,-0.109,0.0309,-0.1479,0.0098,-0.0162,-0.0031,29.325,-0.15,-27.15,,adl
0.665363,-0.109,0.0309,-0.1479,0.0098,-0.0162,-0.0031,29.325,-0.15,-27.15,,adl
0.666911,-0.0947,0.0615,-0.1428,0.0098,-0.0162,-0.0031,29.325,-0.15,-27.15,,adl
0.6699,-0.0947,0.0615,-0.1428,0.0087,-0.0165,-0.0031,29.325,-0.15,-27.15,,adl
0.685626,-0.0947,0.0615,-0.1428,0.0087,-0.0165,-0.0031,29.325,-0.15,-27.15,,adl
0.687418,-0.0535,0.0649,-0.0965,0.0087,-0.0165,-0.0031,29.325,-0.15,-27.15,,adl
0.695714,-0.0535,0.0649,-0.0965,0.0087,-0.0165,-0.0031,29.55,-1.2,-27.15,,adl
0.705114,-0.0535,0.0649,-0.0965,0.0087,-0.0165,-0.0031,29.55,-1.2,-27.15,,adl
0.708432,-0.0308,0.0243,-0.0899,0.0087,-0.0165,-0.0031,29.55,-1.2,-27.15,,adl
0.723951,-0.0308,0.0243,-0.0899,0.0087,-0.0165,-0.0031,29.55,-1.2,-27.15,,adl
0.726786,-0.0408,0.0134,-0.0867,0.0087,-0.0165,-0.0031,29.55,-1.2,-27.15,,adl
0.738074,-0.0408,0.0134,-0.0867,-0.013,-0.0035,-0.0108,29.55,-1.2,-27.15,,adl
0.74058,-0.0408,0.0134,-0.0867,-0.013,-0.0035,-0.0108,29.55,-1.2,-27.15,,adl
0.742512,-0.0637,0.004,-0.0705,-0.013,-0.0035,-0.0108,29.55,-1.2,-27.15,,adl
0.762524,-0.0637,0.004,-0.0705,-0.013,-0.0035,-0.0108,29.55,-1.2,-27.15,,adl
0.766207,-0.0769,0.0019,-0.0418,-0.013,-0.0035,-0.0108,29.55,-1.2,-27.15,,adl
0.770267,-0.0769,0.0019,-0.0418,-0.013,-0.0035,-0.0108,29.85,-0.825,-27.375,,adl
0.783051,-0.0769,0.0019,-0.0418,-0.013,-0.0035,-0.0108,29.85,-0.825,-27.375,,adl
0.786602,-0.0863,0.004,-0.051,-0.013,-0.0035,-0.0108,29.85,-0.825,-27.375,,adl
0.803212,-0.0863,0.004,-0.051,-0.013,-0.0035,-0.0108,29.85,-0.825,-27.375,,adl
0.806007,-0.1019,0.0087,-0.0158,-0.013,-0.0035,-0.0108,29.85,-0.825,-27.375,,adl
0.807821,-0.1019,0.0087,-0.0158,-0.0195,-0.0046,-0.017,29.85,-0.825,-27.375,,adl
0.824366,-0.1019,0.0087,-0.0158,-0.0195,-0.0046,-0.017,29.85,-0.825,-27.375,,adl
0.827457,-0.1085,-0.0063,-0.0004,-0.0195,-0.0046,-0.017,29.85,-0.825,-27.375,,adl
0.831081,-0.1085,-0.0063,-0.0004,-0.0195,-0.0046,-0.017,29.55,-0.375,-28.05,,adl
0.846988,-0.1085,-0.0063,-0.0004,-0.0195,-0.0046,-0.017,29.55,-0.375,-28.05,,adl
0.849744,-0.0932,0.0187,0.027,-0.0195,-0.0046,-0.017,29.55,-0.375,-28.05,,adl
0.85971,-0.0932,0.0187,0.027,-0.0195,-0.0046,-0.017,29.55,-0.375,-28.05,,adl
0.861825,-0.078,0.0667,-0.0004,-0.0195,-0.0046,-0.017,29.55,-0.375,-28.05,,adl
0.87842,-0.078,0.0667,-0.0004,0.0053,-0.0092,-0.0166,29.55,-0.375,-28.05,,adl
0.881173,-0.078,0.0667,-0.0004,0.0053,-0.0092,-0.0166,29.55,-0.375,-28.05,,adl
0.883224,-0.0776,0.1313,-0.0237,0.0053,-0.0092,-0.0166,29.55,-0.375,-28.05,,adl
0.904857,-0.0776,0.1313,-0.0237,0.0053,-0.0092,-0.0166,29.55,-0.375,-28.05,,adl
0.908967,-0.1138,0.0957,-0.0274,0.0053,-0.0092,-0.0166,29.55,-0.375,-28.05,,adl
0.912209,-0.1138,0.0957,-0.0274,0.0053,-0.0092,-0.0166,29.1,-0.825,-28.125,,adl
0.926219,-0.1138,0.0957,-0.0274,0.0053,-0.0092,-0.0166,29.1,-0.825,-28.125,,adl
0.927646,-0.1382,-0.0713,-0.1122,0.0053,-0.0092,-0.0166,29.1,-0.825,-28.125,,adl
0.943689,-0.1382,-0.0713,-0.1122,0.0053,-0.0092,-0.0166,29.1,-0.825,-28.125,,adl
0.94552,-0.1335,-0.1803,-0.2635,0.0053,-0.0092,-0.0166,29.1,-0.825,-28.125,,adl
0.948938,-0.1335,-0.1803,-0.2635,-0.0221,0.0018,-0.0024,29.1,-0.825,-28.125,,adl
0.963,-0.1335,-0.1803,-0.2635,-0.0221,0.0018,-0.0024,29.1,-0.825,-28.125,,adl
0.965699,-0.1864,-0.0261,-0.2054,-0.0221,0.0018,-0.0024,29.1,-0.825,-28.125,,adl
0.974151,-0.1864,-0.0261,-0.2054,-0.0221,0.0018,-0.0024,29.25,-0.45,-27.525,,adl
0.982646,-0.1864,-0.0261,-0.2054,-0.0221,0.0018,-0.0024,29.25,-0.45,-27.525,,adl
0.984767,-0.2772,0.0906,-0.0185,-0.0221,0.0018,-0.0024,29.25,-0.45,-27.525,,adl
0.998126,-0.2772,0.0906,-0.0185,-0.0221,0.0018,-0.0024,29.25,-0.45,-27.525,,adl
1.000323,-0.1947,0.1966,0.0202,-0.0221,0.0018,-0.0024,29.25,-0.45,-27.525,,adl
1.016765,-0.1947,0.1966,0.0202,-0.0596,0.0215,0.0034,29.25,-0.45,-27.525,,adl
1.021245,-0.1947,0.1966,0.0202,-0.0596,0.0215,0.0034,29.25,-0.45,-27.525,,adl
1.022897,-0.1942,0.2617,-0.1158,-0.0596,0.0215,0.0034,29.25,-0.45,-27.525,,adl
1.040387,-0.1942,0.2617,-0.1158,-0.0596,0.0215,0.0034,29.25,-0.45,-27.525,,adl
1.04328,-0.2041,0.2628,-0.185,-0.0596,0.0215,0.0034,29.25,-0.45,-27.525,,adl
1.045648,-0.2041,0.2628,-0.185,-0.0596,0.0215,0.0034,28.95,-0.225,-28.05,,adl
1.063079,-0.2041,0.2628,-0.185,-0.0596,0.0215,0.0034,28.95,-0.225,-28.05,,adl
1.065537,-0.1658,0.1065,-0.1023,-0.0596,0.0215,0.0034,28.95,-0.225,-28.05,,adl
1.080168,-0.1658,0.1065,-0.1023,-0.0596,0.0215,0.0034,28.95,-0.225,-28.05,,adl
1.082546,-0.1407,-0.1452,0.0556,-0.0596,0.0215,0.0034,28.95,-0.225,-28.05,,adl
1.085043,-0.1407,-0.1452,0.0556,-0.0553,0.0603,0.0044,28.95,-0.225,-28.05,,adl
1.099874,-0.1407,-0.1452,0.0556,-0.0553,0.0603,0.0044,28.95,-0.225,-28.05,,adl
1.102397,-0.1597,-0.3264,0.1212,-0.0553,0.0603,0.0044,28.95,-0.225,-28.05,,adl
1.110157,-0.1597,-0.3264,0.1212,-0.0553,0.0603,0.0044,28.875,-0.15,-27.525,,adl
1.119372,-0.1597,-0.3264,0.1212,-0.0553,0.0603,0.0044,28.875,-0.15,-27.525,,adl
1.121484,-0.2536,-0.3222,0.0304,-0.0553,0.0603,0.0044,28.875,-0.15,-27.525,,adl
1.138809,-0.2536,-0.3222,0.0304,-0.0553,0.0603,0.0044,28.875,-0.15,-27.525,,adl
1.141503,-0.3904,-0.1725,-0.0495,-0.0553,0.0603,0.0044,28.875,-0.15,-27.525,,adl
1.153631,-0.3904,-0.1725,-0.0495,-0.0122,0.067,0.0092,28.875,-0.15,-27.525,,adl
1.159879,-0.3904,-0.1725,-0.0495,-0.0122,0.067,0.0092,28.875,-0.15,-27.525,,adl
1.162225,-0.534,-0.0017,-0.1039,-0.0122,0.067,0.0092,28.875,-0.15,-27.525,,adl
1.178238,-0.534,-0.0017,-0.1039,-0.0122,0.067,0.0092,28.875,-0.15,-27.525,,adl
1.180966,-0.6056,0.1526,-0.1452,-0.0122,0.067,0.0092,28.875,-0.15,-27.525,,adl
1.182745,-0.6056,0.1526,-0.1452,-0.0122,0.067,0.0092,28.875,-0.3,-27.375,,adl
1.198278,-0.6056,0.1526,-0.1452,-0.0122,0.067,0.0092,28.875,-0.3,-27.375,,adl
1.200621,-0.5976,0.2677,-0.2505,-0.0122,0.067,0.0092,28.875,-0.3,-27.375,,adl
1.21713,-0.5976,0.2677,-0.2505,-0.0122,0.067,0.0092,28.875,-0.3,-27.375,,adl
1.219195,-0.5107,0.2869,-0.3739,-0.0122,0.067,0.0092,28.875,-0.3,-27.375,,adl
1.2239,-0.5107,0.2869,-0.3739,-0.079,0.1093,0.0156,28.875,-0.3,-27.375,,adl
1.236894,-0.5107,0.2869,-0.3739,-0.079,0.1093,0.0156,28.875,-0.3,-27.375,,adl
1.23999,-0.3721,0.1548,-0.5009,-0.079,0.1093,0.0156,28.875,-0.3,-27.375,,adl
1.250174,-0.3721,0.1548,-0.5009,-0.079,0.1093,0.0156,29.325,-0.825,-26.55,,adl
1.258257,-0.3721,0.1548,-0.5009,-0.079,0.1093,0.0156,29.325,-0.825,-26.55,,adl
1.260336,-0.3863,0.0304,-0.7567,-0.079,0.1093,0.0156,29.325,-0.825,-26.55,,adl
1.276304,-0.3863,0.0304,-0.7567,-0.079,0.1093,0.0156,29.325,-0.825,-26.55,,adl
1.278807,-0.5564,0.1184,-0.9239,-0.079,0.1093,0.0156,29.325,-0.825,-26.55,,adl
1.295351,-0.5564,0.1184,-0.9239,-0.208,0.1003,-0.0353,29.325,-0.825,-26.55,,adl
1.300104,-0.5564,0.1184,-0.9239,-0.208,0.1003,-0.0353,29.325,-0.825,-26.55,,adl
1.302045,-0.5621,0.3809,-0.404,-0.208,0.1003,-0.0353,29.325,-0.825,-26.55,,adl
1.320029,-0.5621,0.3809,-0.404,-0.208,0.1003,-0.0353,29.325,-0.825,-26.55,,adl
1.322561,-0.36,0.3492,-0.0338,-0.208,0.1003,-0.0353,29.325,-0.825,-26.55,,adl
1.324504,-0.36,0.3492,-0.0338,-0.208,0.1003,-0.0353,29.85,0.075,-26.775,,adl
1.340606,-0.36,0.3492,-0.0338,-0.208,0.1003,-0.0353,29.85,0.075,-26.775,,adl
1.343269,-0.1681,0.3893,0.0398,-0.208,0.1003,-0.0353,29.85,0.075,-26.775,,adl
1.362627,-0.1681,0.3893,0.0398,-0.208,0.1003,-0.0353,29.85,0.075,-26.775,,adl
1.365727,-0.0995,0.3693,-0.0033,-0.208,0.1003,-0.0353,29.85,0.075,-26.775,,adl
1.36761,-0.0995,0.3693,-0.0033,-0.2115,0.2723,-0.1718,29.85,0.075,-26.775,,adl
1.378635,-0.0995,0.3693,-0.0033,-0.2115,0.2723,-0.1718,29.85,0.075,-26.775,,adl
1.380853,-0.0594,-0.0292,-0.0864,-0.2115,0.2723,-0.1718,29.85,0.075,-26.775,,adl
1.394527,-0.0594,-0.0292,-0.0864,-0.2115,0.2723,-0.1718,30.225,0.975,-25.95,,adl
1.398229,-0.0594,-0.0292,-0.0864,-0.2115,0.2723,-0.1718,30.225,0.975,-25.95,,adl
1.400071,-0.0576,-0.4888,-0.1694,-0.2115,0.2723,-0.1718,30.225,0.975,-25.95,,adl
1.418141,-0.0576,-0.4888,-0.1694,-0.2115,0.2723,-0.1718,30.225,0.975,-25.95,,adl
1.420653,-0.0108,-0.7137,-0.0954,-0.2115,0.2723,-0.1718,30.225,0.975,-25.95,,adl
1.43244,-0.0108,-0.7137,-0.0954,-0.1318,0.4642,-0.2621,30.225,0.975,-25.95,,adl
1.43735,-0.0108,-0.7137,-0.0954,-0.1318,0.4642,-0.2621,30.225,0.975,-25.95,,adl
1.439247,0.1172,-0.6321,0.0418,-0.1318,0.4642,-0.2621,30.225,0.975,-25.95,,adl
1.458582,0.1172,-0.6321,0.0418,-0.1318,0.4642,-0.2621,30.225,0.975,-25.95,,adl
1.461285,0.1516,-0.2786,0.0603,-0.1318,0.4642,-0.2621,30.225,0.975,-25.95,,adl
1.4632,0.1516,-0.2786,0.0603,-0.1318,0.4642,-0.2621,30.15,1.05,-25.425,,adl
1.476858,0.1516,-0.2786,0.0603,-0.1318,0.4642,-0.2621,30.15,1.05,-25.425,,adl
1.479527,0.0895,0.1846,0.1684,-0.1318,0.4642,-0.2621,30.15,1.05,-25.425,,adl
1.495919,0.0895,0.1846,0.1684,-0.1318,0.4642,-0.2621,30.15,1.05,-25.425,,adl
1.498052,-0.0277,0.494,0.2412,-0.1318,0.4642,-0.2621,30.15,1.05,-25.425,,adl
1.501073,-0.0277,0.494,0.2412,-0.1174,0.3416,-0.2465,30.15,1.05,-25.425,,adl
1.515534,-0.0277,0.494,0.2412,-0.1174,0.3416,-0.2465,30.15,1.05,-25.425,,adl
1.518136,-0.0731,0.6326,0.1579,-0.1174,0.3416,-0.2465,30.15,1.05,-25.425,,adl
1.530029,-0.0731,0.6326,0.1579,-0.1174,0.3416,-0.2465,31.275,2.175,-24.15,,adl
1.540916,-0.0731,0.6326,0.1579,-0.1174,0.3416,-0.2465,31.275,2.175,-24.15,,adl
1.543147,-0.1918,0.579,0.1888,-0.1174,0.3416,-0.2465,31.275,2.175,-24.15,,adl
1.561381,-0.1918,0.579,0.1888,-0.1174,0.3416,-0.2465,31.275,2.175,-24.15,,adl
1.563747,-0.0923,0.2172,0.1824,-0.1174,0.3416,-0.2465,31.275,2.175,-24.15,,adl
1.577522,-0.0923,0.2172,0.1824,-0.1046,0.3457,-0.2135,31.275,2.175,-24.15,,adl
1.580444,-0.0923,0.2172,0.1824,-0.1046,0.3457,-0.2135,31.275,2.175,-24.15,,adl
1.582146,0.1023,-0.0456,0.0325,-0.1046,0.3457,-0.2135,31.275,2.175,-24.15,,adl
1.598951,0.1023,-0.0456,0.0325,-0.1046,0.3457,-0.2135,31.275,2.175,-24.15,,adl
1.601022,0.1331,-0.1583,-0.1458,-0.1046,0.3457,-0.2135,31.275,2.175,-24.15,,adl
1.602528,0.1331,-0.1583,-0.1458,-0.1046,0.3457,-0.2135,32.175,2.7,-24.225,,adl
1.618583,0.1331,-0.1583,-0.1458,-0.1046,0.3457,-0.2135,32.175,2.7,-24.225,,adl
1.621162,0.1242,-0.0176,-0.2462,-0.1046,0.3457,-0.2135,32.175,2.7,-24.225,,adl
1.637848,0.1242,-0.0176,-0.2462,-0.1046,0.3457,-0.2135,32.175,2.7,-24.225,,adl
1.640874,0.0871,0.1924,-0.2036,-0.1046,0.3457,-0.2135,32.175,2.7,-24.225,,adl
1.643403,0.0871,0.1924,-0.2036,-0.1651,0.4652,-0.1582,32.175,2.7,-24.225,,adl
1.658489,0.0871,0.1924,-0.2036,-0.1651,0.4652,-0.1582,32.175,2.7,-24.225,,adl
1.661064,0.1399,0.2986,0.0486,-0.1651,0.4652,-0.1582,32.175,2.7,-24.225,,adl
1.669777,0.1399,0.2986,0.0486,-0.1651,0.4652,-0.1582,32.7,3.825,-22.125,,adl
1.677465,0.1399,0.2986,0.0486,-0.1651,0.4652,-0.1582,32.7,3.825,-22.125,,adl
1.679339,0.132,0.3318,0.2719,-0.1651,0.4652,-0.1582,32.7,3.825,-22.125,,adl
1.696472,0.132,0.3318,0.2719,-0.1651,0.4652,-0.1582,32.7,3.825,-22.125,,adl
1.698762,0.1485,0.3012,0.3339,-0.1651,0.4652,-0.1582,32.7,3.825,-22.125,,adl
1.711223,0.1485,0.3012,0.3339,-0.2672,0.4261,-0.1365,32.7,3.825,-22.125,,adl
1.71613,0.1485,0.3012,0.3339,-0.2672,0.4261,-0.1365,32.7,3.825,-22.125,,adl
1.718108,0.1653,0.346,0.233,-0.2672,0.4261,-0.1365,32.7,3.825,-22.125,,adl
1.735346,0.1653,0.346,0.233,-0.2672,0.4261,-0.1365,32.7,3.825,-22.125,,adl
1.737421,0.1109,0.408,0.1385,-0.2672,0.4261,-0.1365,32.7,3.825,-22.125,,adl
1.741591,0.1109,0.408,0.1385,-0.2672,0.4261,-0.1365,32.775,4.05,-20.55,,adl
1.75544,0.1109,0.408,0.1385,-0.2672,0.4261,-0.1365,32.775,4.05,-20.55,,adl
1.757349,0.0844,0.3652,0.2027,-0.2672,0.4261,-0.1365,32.775,4.05,-20.55,,adl
1.774621,0.0844,0.3652,0.2027,-0.2672,0.4261,-0.1365,32.775,4.05,-20.55,,adl
1.776467,0.1035,0.1492,0.2763,-0.2672,0.4261,-0.1365,32.775,4.05,-20.55,,adl
1.784004,0.1035,0.1492,0.2763,-0.2868,0.4528,-0.0797,32.775,4.05,-20.55,,adl
1.798941,0.1035,0.1492,0.2763,-0.2868,0.4528,-0.0797,32.775,4.05,-20.55,,adl
1.800785,0.1305,-0.1601,0.2862,-0.2868,0.4528,-0.0797,32.775,4.05,-20.55,,adl
1.809722,0.1305,-0.1601,0.2862,-0.2868,0.4528,-0.0797,33.675,4.875,-19.65,,adl
1.818379,0.1305,-0.1601,0.2862,-0.2868,0.4528,-0.0797,33.675,4.875,-19.65,,adl
1.820074,0.21,-0.3443,0.2609,-0.2868,0.4528,-0.0797,33.675,4.875,-19.65,,adl
1.840076,0.21,-0.3443,0.2609,-0.2868,0.4528,-0.0797,33.675,4.875,-19.65,,adl
1.843024,0.3456,-0.3848,0.1525,-0.2868,0.4528,-0.0797,33.675,4.875,-19.65,,adl
1.853404,0.3456,-0.3848,0.1525,-0.3273,0.6017,-0.0266,33.675,4.875,-19.65,,adl
1.86256,0.3456,-0.3848,0.1525,-0.3273,0.6017,-0.0266,33.675,4.875,-19.65,,adl
1.864522,0.4581,-0.2336,0.0857,-0.3273,0.6017,-0.0266,33.675,4.875,-19.65,,adl
1.877546,0.4581,-0.2336,0.0857,-0.3273,0.6017,-0.0266,33.675,4.875,-19.65,,adl
1.879732,0.4456,-0.0034,0.0606,-0.3273,0.6017,-0.0266,33.675,4.875,-19.65,,adl
1.881789,0.4456,-0.0034,0.0606,-0.3273,0.6017,-0.0266,34.875,5.7,-18.375,,adl
1.89704,0.4456,-0.0034,0.0606,-0.3273,0.6017,-0.0266,34.875,5.7,-18.375,,adl
1.899297,0.4063,0.0837,0.1507,-0.3273,0.6017,-0.0266,34.875,5.7,-18.375,,adl
1.916435,0.4063,0.0837,0.1507,-0.3273,0.6017,-0.0266,34.875,5.7,-18.375,,adl
1.918542,0.3538,0.0325,0.2818,-0.3273,0.6017,-0.0266,34.875,5.7,-18.375,,adl
1.921054,0.3538,0.0325,0.2818,-0.3065,0.6712,-0.0481,34.875,5.7,-18.375,,adl
1.935892,0.3538,0.0325,0.2818,-0.3065,0.6712,-0.0481,34.875,5.7,-18.375,,adl
1.938253,0.3426,-0.0902,0.3734,-0.3065,0.6712,-0.0481,34.875,5.7,-18.375,,adl
1.950013,0.3426,-0.0902,0.3734,-0.3065,0.6712,-0.0481,35.475,6.15,-17.025,,adl
1.957703,0.3426,-0.0902,0.3734,-0.3065,0.6712,-0.0481,35.475,6.15,-17.025,,adl
1.959528,0.3302,-0.2512,0.3854,-0.3065,0.6712,-0.0481,35.475,6.15,-17.025,,adl
1.975961,0.3302,-0.2512,0.3854,-0.3065,0.6712,-0.0481,35.475,6.15,-17.025,,adl
1.978256,0.3123,-0.2699,0.3562,-0.3065,0.6712,-0.0481,35.475,6.15,-17.025,,adl
1.991688,0.3123,-0.2699,0.3562,-0.2153,0.706,-0.0476,35.475,6.15,-17.025,,adl
1.994638,0.3123,-0.2699,0.3562,-0.2153,0.706,-0.0476,35.475,6.15,-17.025,,adl
1.996226,0.2188,-0.1424,0.31,-0.2153,0.706,-0.0476,35.475,6.15,-17.025,,adl
2.015475,0.2188,-0.1424,0.31,-0.2153,0.706,-0.0476,35.475,6.15,-17.025,,adl
2.018205,0.102,0.0331,0.2885,-0.2153,0.706,-0.0476,35.475,6.15,-17.025,,adl
2.019782,0.102,0.0331,0.2885,-0.2153,0.706,-0.0476,36.75,7.2,-14.85,,adl
2.034211,0.102,0.0331,0.2885,-0.2153,0.706,-0.0476,36.75,7.2,-14.85,,adl
2.036286,0.0123,0.1695,0.3054,-0.2153,0.706,-0.0476,36.75,7.2,-14.85,,adl
2.053816,0.0123,0.1695,0.3054,-0.2153,0.706,-0.0476,36.75,7.2,-14.85,,adl
2.057328,-0.0199,0.177,0.2923,-0.2153,0.706,-0.0476,36.75,7.2,-14.85,,adl
2.060509,-0.0199,0.177,0.2923,-0.1104,0.7026,-0.0208,36.75,7.2,-14.85,,adl
2.079599,-0.0199,0.177,0.2923,-0.1104,0.7026,-0.0208,36.75,7.2,-14.85,,adl
2.082646,0.0735,0.2734,0.1874,-0.1104,0.7026,-0.0208,36.75,7.2,-14.85,,adl
2.095693,0.0735,0.2734,0.1874,-0.1104,0.7026,-0.0208,37.05,6.975,-12.75,,adl
2.098607,0.0735,0.2734,0.1874,-0.1104,0.7026,-0.0208,37.05,6.975,-12.75,,adl
2.09973,0.0429,0.2457,0.135,-0.1104,0.7026,-0.0208,37.05,6.975,-12.75,,adl
2.111989,0.0429,0.2457,0.135,-0.1104,0.7026,-0.0208,37.05,6.975,-12.75,,adl
2.11414,0.1395,0.138,0.2116,-0.1104,0.7026,-0.0208,37.05,6.975,-12.75,,adl
2.126852,0.1395,0.138,0.2116,-0.0878,0.704,0.0379,37.05,6.975,-12.75,,adl
2.131471,0.1395,0.138,0.2116,-0.0878,0.704,0.0379,37.05,6.975,-12.75,,adl
2.132758,0.1976,0.1356,0.248,-0.0878,0.704,0.0379,37.05,6.975,-12.75,,adl
2.151242,0.1976,0.1356,0.248,-0.0878,0.704,0.0379,37.05,6.975,-12.75,,adl
2.154389,0.1517,0.0842,0.2385,-0.0878,0.704,0.0379,37.05,6.975,-12.75,,adl
2.159591,0.1517,0.0842,0.2385,-0.0878,0.704,0.0379,37.425,7.5,-10.575,,adl
2.176204,0.1517,0.0842,0.2385,-0.0878,0.704,0.0379,37.425,7.5,-10.575,,adl
2.178729,0.1284,0.0616,0.3147,-0.0878,0.704,0.0379,37.425,7.5,-10.575,,adl
2.195219,0.1284,0.0616,0.3147,-0.0878,0.704,0.0379,37.425,7.5,-10.575,,adl
2.197737,0.1229,-0.0482,0.3986,-0.0878,0.704,0.0379,37.425,7.5,-10.575,,adl
2.200136,0.1229,-0.0482,0.3986,-0.0557,0.6544,0.0628,37.425,7.5,-10.575,,adl
2.215257,0.1229,-0.0482,0.3986,-0.0557,0.6544,0.0628,37.425,7.5,-10.575,,adl
2.217862,0.1604,-0.0997,0.4177,-0.0557,0.6544,0.0628,37.425,7.5,-10.575,,adl
2.230222,0.1604,-0.0997,0.4177,-0.0557,0.6544,0.0628,37.8,6.15,-9.075,,adl
2.232996,0.1604,-0.0997,0.4177,-0.0557,0.6544,0.0628,37.8,6.15,-9.075,,adl
2.234656,0.2074,-0.0441,0.4086,-0.0557,0.6544,0.0628,37.8,6.15,-9.075,,adl
2.254023,0.2074,-0.0441,0.4086,-0.0557,0.6544,0.0628,37.8,6.15,-9.075,,adl
2.256543,0.2358,0.039,0.3926,-0.0557,0.6544,0.0628,37.8,6.15,-9.075,,adl
2.269037,0.2358,0.039,0.3926,-0.0189,0.6622,0.069,37.8,6.15,-9.075,,adl
2.273966,0.2358,0.039,0.3926,-0.0189,0.6622,0.069,37.8,6.15,-9.075,,adl
2.27557,0.2683,0.1257,0.3398,-0.0189,0.6622,0.069,37.8,6.15,-9.075,,adl
2.291474,0.2683,0.1257,0.3398,-0.0189,0.6622,0.069,37.8,6.15,-9.075,,adl
2.294157,0.23,0.2769,0.2875,-0.0189,0.6622,0.069,37.8,6.15,-9.075,,adl
2.295839,0.23,0.2769,0.2875,-0.0189,0.6622,0.069,38.175,6.6,-7.05,,adl
2.312893,0.23,0.2769,0.2875,-0.0189,0.6622,0.069,38.175,6.6,-7.05,,adl
2.316373,0.2742,0.4052,0.3365,-0.0189,0.6622,0.069,38.175,6.6,-7.05,,adl
2.332601,0.2742,0.4052,0.3365,-0.0189,0.6622,0.069,38.175,6.6,-7.05,,adl
2.335042,0.2669,0.3728,0.3892,-0.0189,0.6622,0.069,38.175,6.6,-7.05,,adl
2.337378,0.2669,0.3728,0.3892,-0.0844,0.6964,0.0638,38.175,6.6,-7.05,,adl
2.351556,0.2669,0.3728,0.3892,-0.0844,0.6964,0.0638,38.175,6.6,-7.05,,adl
2.353734,0.2272,0.3044,0.4637,-0.0844,0.6964,0.0638,38.175,6.6,-7.05,,adl
2.361994,0.2272,0.3044,0.4637,-0.0844,0.6964,0.0638,39.375,6.15,-5.025,,adl
2.371194,0.2272,0.3044,0.4637,-0.0844,0.6964,0.0638,39.375,6.15,-5.025,,adl
2.37277,0.1751,0.2495,0.5783,-0.0844,0.6964,0.0638,39.375,6.15,-5.025,,adl
2.39079,0.1751,0.2495,0.5783,-0.0844,0.6964,0.0638,39.375,6.15,-5.025,,adl
2.393872,0.1296,0.2285,0.5538,-0.0844,0.6964,0.0638,39.375,6.15,-5.025,,adl
2.408523,0.1296,0.2285,0.5538,-0.1048,0.6924,0.0516,39.375,6.15,-5.025,,adl
2.41228,0.1296,0.2285,0.5538,-0.1048,0.6924,0.0516,39.375,6.15,-5.025,,adl
2.414444,0.0744,0.2472,0.4723,-0.1048,0.6924,0.0516,39.375,6.15,-5.025,,adl
2.435311,0.0744,0.2472,0.4723,-0.1048,0.6924,0.0516,39.375,6.15,-5.025,,adl
2.437462,0.0341,0.3054,0.5694,-0.1048,0.6924,0.0516,39.375,6.15,-5.025,,adl
2.438657,0.0341,0.3054,0.5694,-0.1048,0.6924,0.0516,39.3,6.3,-3.525,,adl
2.454327,0.0341,0.3054,0.5694,-0.1048,0.6924,0.0516,39.3,6.3,-3.525,,adl
2.456195,-0.0141,0.4373,0.6334,-0.1048,0.6924,0.0516,39.3,6.3,-3.525,,adl
2.474359,-0.0141,0.4373,0.6334,-0.1048,0.6924,0.0516,39.3,6.3,-3.525,,adl
2.476698,-0.0646,0.5128,0.5735,-0.1048,0.6924,0.0516,39.3,6.3,-3.525,,adl
2.479088,-0.0646,0.5128,0.5735,-0.1512,0.5798,0.0484,39.3,6.3,-3.525,,adl
2.494651,-0.0646,0.5128,0.5735,-0.1512,0.5798,0.0484,39.3,6.3,-3.525,,adl
2.496779,-0.1134,0.5259,0.5772,-0.1512,0.5798,0.0484,39.3,6.3,-3.525,,adl
2.503737,-0.1134,0.5259,0.5772,-0.1512,0.5798,0.0484,39.825,6.45,-2.025,,adl
2.513053,-0.1134,0.5259,0.5772,-0.1512,0.5798,0.0484,39.825,6.45,-2.025,,adl
2.515176,-0.1345,0.4829,0.6933,-0.1512,0.5798,0.0484,39.825,6.45,-2.025,,adl
2.532883,-0.1345,0.4829,0.6933,-0.1512,0.5798,0.0484,39.825,6.45,-2.025,,adl
2.535099,-0.0267,0.3075,0.8573,-0.1512,0.5798,0.0484,39.825,6.45,-2.025,,adl
2.547408,-0.0267,0.3075,0.8573,-0.2346,0.3438,0.0826,39.825,6.45,-2.025,,adl
2.552168,-0.0267,0.3075,0.8573,-0.2346,0.3438,0.0826,39.825,6.45,-2.025,,adl
2.55401,0.095,0.0486,0.9756,-0.2346,0.3438,0.0826,39.825,6.45,-2.025,,adl
2.572141,0.095,0.0486,0.9756,-0.2346,0.3438,0.0826,39.825,6.45,-2.025,,adl
2.574545,0.1203,-0.2598,1.1244,-0.2346,0.3438,0.0826,39.825,6.45,-2.025,,adl
2.576552,0.1203,-0.2598,1.1244,-0.2346,0.3438,0.0826,40.05,6.3,0.15,,adl
2.591967,0.1203,-0.2598,1.1244,-0.2346,0.3438,0.0826,40.05,6.3,0.15,,adl
2.594705,0.1168,-0.4891,1.0911,-0.2346,0.3438,0.0826,40.05,6.3,0.15,,adl
2.611453,0.1168,-0.4891,1.0911,-0.2346,0.3438,0.0826,40.05,6.3,0.15,,adl
2.614389,0.1756,-0.5396,0.9587,-0.2346,0.3438,0.0826,40.05,6.3,0.15,,adl
2.617117,0.1756,-0.5396,0.9587,-0.2393,0.0797,0.2156,40.05,6.3,0.15,,adl
2.630845,0.1756,-0.5396,0.9587,-0.2393,0.0797,0.2156,40.05,6.3,0.15,,adl
2.632628,0.247,-0.3263,0.7301,-0.2393,0.0797,0.2156,40.05,6.3,0.15,,adl
2.641084,0.247,-0.3263,0.7301,-0.2393,0.0797,0.2156,40.8,5.85,0.45,,adl
2.650502,0.247,-0.3263,0.7301,-0.2393,0.0797,0.2156,40.8,5.85,0.45,,adl
2.652185,0.1944,-0.1672,0.6249,-0.2393,0.0797,0.2156,40.8,5.85,0.45,,adl
2.669722,0.1944,-0.1672,0.6249,-0.2393,0.0797,0.2156,40.8,5.85,0.45,,adl
2.67232,0.2645,-0.1168,0.5095,-0.2393,0.0797,0.2156,40.8,5.85,0.45,,adl
2.684427,0.2645,-0.1168,0.5095,-0.224,-0.2085,0.4797,40.8,5.85,0.45,,adl
2.695029,0.2645,-0.1168,0.5095,-0.224,-0.2085,0.4797,40.8,5.85,0.45,,adl
2.69682,0.4266,0.033,0.6764,-0.224,-0.2085,0.4797,40.8,5.85,0.45,,adl
2.709737,0.4266,0.033,0.6764,-0.224,-0.2085,0.4797,40.8,5.85,0.45,,adl
2.711655,-0.0766,-1.2408,0.9415,-0.224,-0.2085,0.4797,40.8,5.85,0.45,,adl
2.713855,-0.0766,-1.2408,0.9415,-0.224,-0.2085,0.4797,40.875,4.5,0.45,,adl
2.727708,-0.0766,-1.2408,0.9415,-0.224,-0.2085,0.4797,40.875,4.5,0.45,,adl
2.730137,0.7335,-2.2045,0.3387,-0.224,-0.2085,0.4797,40.875,4.5,0.45,,adl
2.744013,0.7335,-2.2045,0.3387,-0.224,-0.2085,0.4797,40.875,4.5,0.45,,adl
2.746093,0.7154,-3.0255,-0.4876,-0.224,-0.2085,0.4797,40.875,4.5,0.45,,adl
2.752262,0.7154,-3.0255,-0.4876,0.0348,-0.4151,0.5747,40.875,4.5,0.45,,adl
2.766988,0.7154,-3.0255,-0.4876,0.0348,-0.4151,0.5747,40.875,4.5,0.45,,adl
2.768907,2.3028,-3.2233,-1.1446,0.0348,-0.4151,0.5747,40.875,4.5,0.45,,adl
2.779503,2.3028,-3.2233,-1.1446,0.0348,-0.4151,0.5747,40.875,3.15,-1.725,,adl
2.787001,2.3028,-3.2233,-1.1446,0.0348,-0.4151,0.5747,40.875,3.15,-1.725,,adl
2.788637,1.5846,-2.268,-0.8659,0.0348,-0.4151,0.5747,40.875,3.15,-1.725,,adl
2.811934,1.5846,-2.268,-0.8659,0.0348,-0.4151,0.5747,40.875,3.15,-1.725,,adl
2.814992,0.1544,-0.8863,-0.8704,0.0348,-0.4151,0.5747,40.875,3.15,-1.725,,adl
2.826172,0.1544,-0.8863,-0.8704,0.037,-0.0967,0.2903,40.875,3.15,-1.725,,adl
2.831055,0.1544,-0.8863,-0.8704,0.037,-0.0967,0.2903,40.875,3.15,-1.725,,adl
2.832747,-0.4113,0.5711,-0.7222,0.037,-0.0967,0.2903,40.875,3.15,-1.725,,adl
2.850482,-0.4113,0.5711,-0.7222,0.037,-0.0967,0.2903,40.875,3.15,-1.725,,adl
2.852406,-0.4693,1.5428,-0.7527,0.037,-0.0967,0.2903,40.875,3.15,-1.725,,adl
2.854411,-0.4693,1.5428,-0.7527,0.037,-0.0967,0.2903,40.8,2.85,-2.25,,adl
2.870273,-0.4693,1.5428,-0.7527,0.037,-0.0967,0.2903,40.8,2.85,-2.25,,adl
2.8729,-0.4774,1.9799,-1.1573,0.037,-0.0967,0.2903,40.8,2.85,-2.25,,adl
2.890211,-0.4774,1.9799,-1.1573,0.037,-0.0967,0.2903,40.8,2.85,-2.25,,adl
2.892335,-0.8093,1.962,-1.59,0.037,-0.0967,0.2903,40.8,2.85,-2.25,,adl
2.894047,-0.8093,1.962,-1.59,0.3346,-0.0741,0.1109,40.8,2.85,-2.25,,adl
2.913282,-0.8093,1.962,-1.59,0.3346,-0.0741,0.1109,40.8,2.85,-2.25,,adl
2.915466,-1.2567,1.4095,-1.6506,0.3346,-0.0741,0.1109,40.8,2.85,-2.25,,adl
2.920079,-1.2567,1.4095,-1.6506,0.3346,-0.0741,0.1109,40.575,2.025,-2.325,,adl
2.929184,-1.2567,1.4095,-1.6506,0.3346,-0.0741,0.1109,40.575,2.025,-2.325,,adl
2.931651,-1.4404,0.3605,-1.5363,0.3346,-0.0741,0.1109,40.575,2.025,-2.325,,adl
2.94407,-1.4404,0.3605,-1.5363,0.3346,-0.0741,0.1109,40.575,2.025,-2.325,,adl
2.947629,-1.2802,-0.4262,-1.4677,0.3346,-0.0741,0.1109,40.575,2.025,-2.325,,adl
2.963859,-1.2802,-0.4262,-1.4677,0.3048,0.066,0.0611,40.575,2.025,-2.325,,adl
2.96578,-1.2802,-0.4262,-1.4677,0.3048,0.066,0.0611,40.575,2.025,-2.325,,adl
2.967103,-0.883,-0.5578,-1.3086,0.3048,0.066,0.0611,40.575,2.025,-2.325,,adl
2.988769,-0.883,-0.5578,-1.3086,0.3048,0.066,0.0611,40.575,2.025,-2.325,,adl
2.990737,-0.4612,-0.2883,-1.1294,0.3048,0.066,0.0611,40.575,2.025,-2.325,,adl
2.99228,-0.4612,-0.2883,-1.1294,0.3048,0.066,0.0611,40.725,2.025,-2.85,,adl
3.00846,-0.4612,-0.2883,-1.1294,0.3048,0.066,0.0611,40.725,2.025,-2.85,,adl
3.010321,-0.224,0.227,-0.9039,0.3048,0.066,0.0611,40.725,2.025,-2.85,,adl
3.029095,-0.224,0.227,-0.9039,0.3048,0.066,0.0611,40.725,2.025,-2.85,,adl
3.030987,-0.2092,0.7414,-0.5929,0.3048,0.066,0.0611,40.725,2.025,-2.85,,adl
3.032613,-0.2092,0.7414,-0.5929,0.2297,0.2133,0.0147,40.725,2.025,-2.85,,adl
3.047547,-0.2092,0.7414,-0.5929,0.2297,0.2133,0.0147,40.725,2.025,-2.85,,adl
3.049937,-0.3833,1.0461,-0.4473,0.2297,0.2133,0.0147,40.725,2.025,-2.85,,adl
3.060248,-0.3833,1.0461,-0.4473,0.2297,0.2133,0.0147,40.95,1.275,-2.025,,adl
3.071539,-0.3833,1.0461,-0.4473,0.2297,0.2133,0.0147,40.95,1.275,-2.025,,adl
3.073555,-0.5979,1.0253,-0.5236,0.2297,0.2133,0.0147,40.95,1.275,-2.025,,adl
3.091026,-0.5979,1.0253,-0.5236,0.2297,0.2133,0.0147,40.95,1.275,-2.025,,adl
3.093516,-0.6886,0.8159,-0.5696,0.2297,0.2133,0.0147,40.95,1.275,-2.025,,adl
3.104962,-0.6886,0.8159,-0.5696,0.2271,0.3651,-0.0102,40.95,1.275,-2.025,,adl
3.114488,-0.6886,0.8159,-0.5696,0.2271,0.3651,-0.0102,40.95,1.275,-2.025,,adl
3.1165,-0.4989,0.5535,-0.3829,0.2271,0.3651,-0.0102,40.95,1.275,-2.025,,adl
3.129705,-0.4989,0.5535,-0.3829,0.2271,0.3651,-0.0102,40.95,1.275,-2.025,,adl
3.131779,-0.2026,0.3232,-0.1794,0.2271,0.3651,-0.0102,40.95,1.275,-2.025,,adl
3.133177,-0.2026,0.3232,-0.1794,0.2271,0.3651,-0.0102,41.7,1.575,-1.35,,adl
3.148701,-0.2026,0.3232,-0.1794,0.2271,0.3651,-0.0102,41.7,1.575,-1.35,,adl
3.15136,0.0589,0.2172,-0.1073,0.2271,0.3651,-0.0102,41.7,1.575,-1.35,,adl
3.168358,0.0589,0.2172,-0.1073,0.2271,0.3651,-0.0102,41.7,1.575,-1.35,,adl
3.170551,0.0666,0.2356,-0.0479,0.2271,0.3651,-0.0102,41.7,1.575,-1.35,,adl
3.174971,0.0666,0.2356,-0.0479,0.201,0.5186,-0.0782,41.7,1.575,-1.35,,adl
3.188014,0.0666,0.2356,-0.0479,0.201,0.5186,-0.0782,41.7,1.575,-1.35,,adl
3.190528,-0.1814,0.2771,-0.0228,0.201,0.5186,-0.0782,41.7,1.575,-1.35,,adl
3.199633,-0.1814,0.2771,-0.0228,0.201,0.5186,-0.0782,41.85,1.275,-0.375,,adl
3.210041,-0.1814,0.2771,-0.0228,0.201,0.5186,-0.0782,41.85,1.275,-0.375,,adl
3.212005,-0.3835,0.3389,-0.0432,0.201,0.5186,-0.0782,41.85,1.275,-0.375,,adl
3.228451,-0.3835,0.3389,-0.0432,0.201,0.5186,-0.0782,41.85,1.275,-0.375,,adl
3.230746,-0.512,0.5559,-0.0378,0.201,0.5186,-0.0782,41.85,1.275,-0.375,,adl
3.242075,-0.512,0.5559,-0.0378,0.1976,0.6128,-0.1448,41.85,1.275,-0.375,,adl
3.246859,-0.512,0.5559,-0.0378,0.1976,0.6128,-0.1448,41.85,1.275,-0.375,,adl
3.248485,-0.4906,0.6497,0.0348,0.1976,0.6128,-0.1448,41.85,1.275,-0.375,,adl
3.266575,-0.4906,0.6497,0.0348,0.1976,0.6128,-0.1448,41.85,1.275,-0.375,,adl
3.268773,-0.3745,0.86,0.1508,0.1976,0.6128,-0.1448,41.85,1.275,-0.375,,adl
3.271305,-0.3745,0.86,0.1508,0.1976,0.6128,-0.1448,41.85,1.875,1.125,,adl
3.286564,-0.3745,0.86,0.1508,0.1976,0.6128,-0.1448,41.85,1.875,1.125,,adl
3.288743,-0.4063,1.0007,0.2013,0.1976,0.6128,-0.1448,41.85,1.875,1.125,,adl
3.306789,-0.4063,1.0007,0.2013,0.1976,0.6128,-0.1448,41.85,1.875,1.125,,adl
3.309569,-0.4977,1.0468,0.1814,0.1976,0.6128,-0.1448,41.85,1.875,1.125,,adl
3.313143,-0.4977,1.0468,0.1814,0.0365,0.6538,-0.2106,41.85,1.875,1.125,,adl
3.325076,-0.4977,1.0468,0.1814,0.0365,0.6538,-0.2106,41.85,1.875,1.125,,adl
3.329804,-0.6382,0.9753,0.2673,0.0365,0.6538,-0.2106,41.85,1.875,1.125,,adl
3.34176,-0.6382,0.9753,0.2673,0.0365,0.6538,-0.2106,41.775,2.175,2.775,,adl
3.350597,-0.6382,0.9753,0.2673,0.0365,0.6538,-0.2106,41.775,2.175,2.775,,adl
3.351673,-0.7095,0.8053,0.282,0.0365,0.6538,-0.2106,41.775,2.175,2.775,,adl
3.370044,-0.7095,0.8053,0.282,0.0365,0.6538,-0.2106,41.775,2.175,2.775,,adl
3.370706,-0.776,0.5497,0.2233,0.0365,0.6538,-0.2106,41.775,2.175,2.775,,adl
3.38497,-0.776,0.5497,0.2233,-0.0556,0.6919,-0.1888,41.775,2.175,2.775,,adl
3.393158,-0.776,0.5497,0.2233,-0.0556,0.6919,-0.1888,41.775,2.175,2.775,,adl
3.397486,-0.817,0.1143,0.3497,-0.0556,0.6919,-0.1888,41.775,2.175,2.775,,adl
3.408038,-0.817,0.1143,0.3497,-0.0556,0.6919,-0.1888,41.775,2.175,2.775,,adl
3.409462,-0.7943,-0.2832,0.5953,-0.0556,0.6919,-0.1888,41.775,2.175,2.775,,adl
3.410657,-0.7943,-0.2832,0.5953,-0.0556,0.6919,-0.1888,41.7,3.375,4.95,,adl
3.428445,-0.7943,-0.2832,0.5953,-0.0556,0.6919,-0.1888,41.7,3.375,4.95,,adl
3.430351,-0.6062,-0.5411,0.8048,-0.0556,0.6919,-0.1888,41.7,3.375,4.95,,adl
3.44801,-0.6062,-0.5411,0.8048,-0.0556,0.6919,-0.1888,41.7,3.375,4.95,,adl
3.449496,-0.4197,-0.6393,1.0055,-0.0556,0.6919,-0.1888,41.7,3.375,4.95,,adl
3.45347,-0.4197,-0.6393,1.0055,-0.0718,0.5856,-0.234,41.7,3.375,4.95,,adl
3.468139,-0.4197,-0.6393,1.0055,-0.0718,0.5856,-0.234,41.7,3.375,4.95,,adl
3.469839,-0.3656,-0.5617,0.9004,-0.0718,0.5856,-0.234,41.7,3.375,4.95,,adl
3.480172,-0.3656,-0.5617,0.9004,-0.0718,0.5856,-0.234,41.475,3.9,6.75,,adl
3.48669,-0.3656,-0.5617,0.9004,-0.0718,0.5856,-0.234,41.475,3.9,6.75,,adl
3.48858,-0.1099,-0.512,0.7263,-0.0718,0.5856,-0.234,41.475,3.9,6.75,,adl
3.50603,-0.1099,-0.512,0.7263,-0.0718,0.5856,-0.234,41.475,3.9,6.75,,adl
3.509108,-0.4484,-0.3988,0.8632,-0.0718,0.5856,-0.234,41.475,3.9,6.75,,adl
3.521009,-0.4484,-0.3988,0.8632,0.056,0.5421,-0.452,41.475,3.9,6.75,,adl
3.530299,-0.4484,-0.3988,0.8632,0.056,0.5421,-0.452,41.475,3.9,6.75,,adl
3.533123,-0.9973,-0.1573,1.2938,0.056,0.5421,-0.452,41.475,3.9,6.75,,adl
3.540503,-0.9973,-0.1573,1.2938,0.056,0.5421,-0.452,41.475,3.9,6.75,,adl
3.543367,0.1137,-1.6092,0.6152,0.056,0.5421,-0.452,41.475,3.9,6.75,,adl
3.550308,0.1137,-1.6092,0.6152,0.056,0.5421,-0.452,41.1,4.65,7.95,,adl
3.56258,0.1137,-1.6092,0.6152,0.056,0.5421,-0.452,41.1,4.65,7.95,,adl
3.564766,0.0398,-3.5819,-1.6013,0.056,0.5421,-0.452,41.1,4.65,7.95,,adl
3.5797,0.0398,-3.5819,-1.6013,0.056,0.5421,-0.452,41.1,4.65,7.95,,adl
3.582569,-0.465,-2.093,-1.1993,0.056,0.5421,-0.452,41.1,4.65,7.95,,adl
3.595286,-0.465,-2.093,-1.1993,0.3091,0.6284,-0.4445,41.1,4.65,7.95,,adl
3.603805,-0.465,-2.093,-1.1993,0.3091,0.6284,-0.4445,41.1,4.65,7.95,,adl
3.605677,0.17,-2.1929,-1.1073,0.3091,0.6284,-0.4445,41.1,4.65,7.95,,adl
3.620051,0.17,-2.1929,-1.1073,0.3091,0.6284,-0.4445,41.1,4.65,7.95,,adl
3.62228,0.7092,-1.0379,-0.6565,0.3091,0.6284,-0.4445,41.1,4.65,7.95,,adl
3.624057,0.7092,-1.0379,-0.6565,0.3091,0.6284,-0.4445,40.125,6.15,10.125,,adl
3.63968,0.7092,-1.0379,-0.6565,0.3091,0.6284,-0.4445,40.125,6.15,10.125,,adl
3.641621,0.4637,0.2006,-0.4408,0.3091,0.6284,-0.4445,40.125,6.15,10.125,,adl
3.660527,0.4637,0.2006,-0.4408,0.0618,0.3865,-0.5238,40.125,6.15,10.125,,adl
3.663871,0.4637,0.2006,-0.4408,0.0618,0.3865,-0.5238,40.125,6.15,10.125,,adl
3.665402,-0.0734,1.3216,-1.0216,0.0618,0.3865,-0.5238,40.125,6.15,10.125,,adl
3.68277,-0.0734,1.3216,-1.0216,0.0618,0.3865,-0.5238,40.125,6.15,10.125,,adl
3.686362,-0.0427,1.6321,-1.6238,0.0618,0.3865,-0.5238,40.125,6.15,10.125,,adl
3.690193,-0.0427,1.6321,-1.6238,0.0618,0.3865,-0.5238,39.75,8.4,10.95,,adl
3.702276,-0.0427,1.6321,-1.6238,0.0618,0.3865,-0.5238,39.75,8.4,10.95,,adl
3.704974,0.1201,1.3454,-1.9901,0.0618,0.3865,-0.5238,39.75,8.4,10.95,,adl
3.721104,0.1201,1.3454,-1.9901,0.0618,0.3865,-0.5238,39.75,8.4,10.95,,adl
3.723168,0.4027,0.7625,-2.2216,0.0618,0.3865,-0.5238,39.75,8.4,10.95,,adl
3.730865,0.4027,0.7625,-2.2216,0.1686,0.6006,-0.2303,39.75,8.4,10.95,,adl
3.745693,0.4027,0.7625,-2.2216,0.1686,0.6006,-0.2303,39.75,8.4,10.95,,adl
3.747901,0.7348,-0.162,-2.3106,0.1686,0.6006,-0.2303,39.75,8.4,10.95,,adl
3.760879,0.7348,-0.162,-2.3106,0.1686,0.6006,-0.2303,39.75,8.4,10.95,,adl
3.763859,0.644,-0.8281,-1.7455,0.1686,0.6006,-0.2303,39.75,8.4,10.95,,adl
3.765962,0.644,-0.8281,-1.7455,0.1686,0.6006,-0.2303,38.7,9.225,12.75,,adl
3.780903,0.644,-0.8281,-1.7455,0.1686,0.6006,-0.2303,38.7,9.225,12.75,,adl
3.782538,0.3202,-0.4504,-1.0916,0.1686,0.6006,-0.2303,38.7,9.225,12.75,,adl
3.799767,0.3202,-0.4504,-1.0916,-0.079,0.4343,-0.1836,38.7,9.225,12.75,,adl
3.805694,0.3202,-0.4504,-1.0916,-0.079,0.4343,-0.1836,38.7,9.225,12.75,,adl
3.807077,0.1114,0.1166,-0.7354,-0.079,0.4343,-0.1836,38.7,9.225,12.75,,adl
3.825448,0.1114,0.1166,-0.7354,-0.079,0.4343,-0.1836,38.475,9.675,13.05,,adl
3.827618,0.1114,0.1166,-0.7354,-0.079,0.4343,-0.1836,38.475,9.675,13.05,,adl
3.828923,0.36,0.7784,-0.4765,-0.079,0.4343,-0.1836,38.475,9.675,13.05,,adl
3.842862,0.36,0.7784,-0.4765,-0.079,0.4343,-0.1836,38.475,9.675,13.05,,adl
3.844735,0.6752,1.2582,-0.3013,-0.079,0.4343,-0.1836,38.475,9.675,13.05,,adl
3.858759,0.6752,1.2582,-0.3013,-0.079,0.4343,-0.1836,38.475,9.675,13.05,,adl
3.860633,0.8497,1.3785,-0.2629,-0.079,0.4343,-0.1836,38.475,9.675,13.05,,adl
3.868087,0.8497,1.3785,-0.2629,-0.0144,0.5125,-0.0403,38.475,9.675,13.05,,adl
3.881996,0.8497,1.3785,-0.2629,-0.0144,0.5125,-0.0403,38.475,9.675,13.05,,adl
3.884917,0.8548,1.1833,-0.1775,-0.0144,0.5125,-0.0403,38.475,9.675,13.05,,adl
3.893164,0.8548,1.1833,-0.1775,-0.0144,0.5125,-0.0403,39.225,9.6,14.025,,adl
3.902176,0.8548,1.1833,-0.1775,-0.0144,0.5125,-0.0403,39.225,9.6,14.025,,adl
3.903925,0.6875,0.7062,-0.1385,-0.0144,0.5125,-0.0403,39.225,9.6,14.025,,adl
3.917635,0.6875,0.7062,-0.1385,-0.0144,0.5125,-0.0403,39.225,9.6,14.025,,adl
3.920686,0.4929,0.2539,-0.0861,-0.0144,0.5125,-0.0403,39.225,9.6,14.025,,adl
3.936958,0.4929,0.2539,-0.0861,-0.0327,0.3535,-0.0716,39.225,9.6,14.025,,adl
3.940922,0.4929,0.2539,-0.0861,-0.0327,0.3535,-0.0716,39.225,9.6,14.025,,adl
3.942444,0.3923,0.1634,-0.014,-0.0327,0.3535,-0.0716,39.225,9.6,14.025,,adl
3.960542,0.3923,0.1634,-0.014,-0.0327,0.3535,-0.0716,39.225,9.6,14.025,,adl
3.962896,0.4335,0.2915,0.0085,-0.0327,0.3535,-0.0716,39.225,9.6,14.025,,adl
3.964354,0.4335,0.2915,0.0085,-0.0327,0.3535,-0.0716,38.325,9.6,15.75,,adl
3.980227,0.4335,0.2915,0.0085,-0.0327,0.3535,-0.0716,38.325,9.6,15.75,,adl
3.982705,0.5188,0.4674,0.2036,-0.0327,0.3535,-0.0716,38.325,9.6,15.75,,adl
4.004916,0.5188,0.4674,0.2036,-0.0327,0.3535,-0.0716,38.325,9.6,15.75,,adl
4.009661,0.5182,0.6752,0.4115,-0.0327,0.3535,-0.0716,38.325,9.6,15.75,,adl
4.012199,0.5182,0.6752,0.4115,-0.0118,0.199,-0.0582,38.325,9.6,15.75,,adl
4.028966,0.5182,0.6752,0.4115,-0.0118,0.199,-0.0582,38.325,9.6,15.75,,adl
4.031164,0.3093,0.9457,0.506,-0.0118,0.199,-0.0582,38.325,9.6,15.75,,adl
4.034615,0.3093,0.9457,0.506,-0.0118,0.199,-0.0582,38.025,10.125,16.125,,adl
4.040177,0.3093,0.9457,0.506,-0.0118,0.199,-0.0582,38.025,10.125,16.125,,adl
4.042232,0.1645,0.8268,0.5982,-0.0118,0.199,-0.0582,38.025,10.125,16.125,,adl
4.063496,0.1645,0.8268,0.5982,-0.0118,0.199,-0.0582,38.025,10.125,16.125,,adl
4.065613,0.2242,0.4254,0.4524,-0.0118,0.199,-0.0582,38.025,10.125,16.125,,adl
4.077985,0.2242,0.4254,0.4524,0.0331,0.2837,0.0632,38.025,10.125,16.125,,adl
4.082873,0.2242,0.4254,0.4524,0.0331,0.2837,0.0632,38.025,10.125,16.125,,adl
4.084163,0.2999,0.2619,0.3423,0.0331,0.2837,0.0632,38.025,10.125,16.125,,adl
4.102806,0.2999,0.2619,0.3423,0.0331,0.2837,0.0632,38.025,10.125,16.125,,adl
4.104772,0.4298,0.2152,0.3672,0.0331,0.2837,0.0632,38.025,10.125,16.125,,adl
4.106515,0.4298,0.2152,0.3672,0.0331,0.2837,0.0632,37.95,11.1,16.95,,adl
4.122344,0.4298,0.2152,0.3672,0.0331,0.2837,0.0632,37.95,11.1,16.95,,adl
4.124399,0.5409,0.291,0.3623,0.0331,0.2837,0.0632,37.95,11.1,16.95,,adl
4.141524,0.5409,0.291,0.3623,0.0331,0.2837,0.0632,37.95,11.1,16.95,,adl
4.143687,0.6166,0.3127,0.4982,0.0331,0.2837,0.0632,37.95,11.1,16.95,,adl
4.146887,0.6166,0.3127,0.4982,-0.0115,0.1883,0.115,37.95,11.1,16.95,,adl
4.16272,0.6166,0.3127,0.4982,-0.0115,0.1883,0.115,37.95,11.1,16.95,,adl
4.164958,0.5945,0.2756,0.785,-0.0115,0.1883,0.115,37.95,11.1,16.95,,adl
4.171252,0.5945,0.2756,0.785,-0.0115,0.1883,0.115,37.5,11.1,17.625,,adl
4.181469,0.5945,0.2756,0.785,-0.0115,0.1883,0.115,37.5,11.1,17.625,,adl
4.183608,0.5005,0.2831,0.9385,-0.0115,0.1883,0.115,37.5,11.1,17.625,,adl
4.200479,0.5005,0.2831,0.9385,-0.0115,0.1883,0.115,37.5,11.1,17.625,,adl
4.203278,0.4265,0.0826,0.7824,-0.0115,0.1883,0.115,37.5,11.1,17.625,,adl
4.215149,0.4265,0.0826,0.7824,0.1028,0.0021,0.129,37.5,11.1,17.625,,adl
4.219797,0.4265,0.0826,0.7824,0.1028,0.0021,0.129,37.5,11.1,17.625,,adl
4.220891,0.5404,-0.2324,0.7348,0.1028,0.0021,0.129,37.5,11.1,17.625,,adl
4.240309,0.5404,-0.2324,0.7348,0.1028,0.0021,0.129,37.5,11.1,17.625,,adl
4.242901,0.8263,-0.7082,0.8454,0.1028,0.0021,0.129,37.5,11.1,17.625,,adl
4.244899,0.8263,-0.7082,0.8454,0.1028,0.0021,0.129,37.875,10.5,17.55,,adl
4.261058,0.8263,-0.7082,0.8454,0.1028,0.0021,0.129,37.875,10.5,17.55,,adl
4.263329,0.9291,-1.0294,0.858,0.1028,0.0021,0.129,37.875,10.5,17.55,,adl
4.279317,0.9291,-1.0294,0.858,0.1028,0.0021,0.129,37.875,10.5,17.55,,adl
4.281635,0.6713,-1.0173,0.9162,0.1028,0.0021,0.129,37.875,10.5,17.55,,adl
4.28318,0.6713,-1.0173,0.9162,0.084,-0.1733,0.0965,37.875,10.5,17.55,,adl
4.298847,0.6713,-1.0173,0.9162,0.084,-0.1733,0.0965,37.875,10.5,17.55,,adl
4.301934,0.4104,-0.7246,0.8484,0.084,-0.1733,0.0965,37.875,10.5,17.55,,adl
4.311134,0.4104,-0.7246,0.8484,0.084,-0.1733,0.0965,37.425,10.05,16.725,,adl
4.31341,0.4104,-0.7246,0.8484,0.084,-0.1733,0.0965,37.425,10.05,16.725,,adl
4.314686,0.1266,-2.3228,-0.3174,0.084,-0.1733,0.0965,37.425,10.05,16.725,,adl
4.333783,0.1266,-2.3228,-0.3174,0.084,-0.1733,0.0965,37.425,10.05,16.725,,adl
4.336553,1.1209,-2.2697,-1.3573,0.084,-0.1733,0.0965,37.425,10.05,16.725,,adl
4.352977,1.1209,-2.2697,-1.3573,0.2619,-0.0802,0.1816,37.425,10.05,16.725,,adl
4.361045,1.1209,-2.2697,-1.3573,0.2619,-0.0802,0.1816,37.425,10.05,16.725,,adl
4.362333,0.9872,-1.3429,-0.6326,0.2619,-0.0802,0.1816,37.425,10.05,16.725,,adl
4.377503,0.9872,-1.3429,-0.6326,0.2619,-0.0802,0.1816,37.425,10.05,16.725,,adl
4.379019,0.8881,-1.8792,-0.4693,0.2619,-0.0802,0.1816,37.425,10.05,16.725,,adl
4.380072,0.8881,-1.8792,-0.4693,0.2619,-0.0802,0.1816,38.325,10.65,16.05,,adl
4.402144,0.8881,-1.8792,-0.4693,0.2619,-0.0802,0.1816,38.325,10.65,16.05,,adl
4.404153,-0.5714,-0.8391,-0.326,0.2619,-0.0802,0.1816,38.325,10.65,16.05,,adl
4.420946,-0.5714,-0.8391,-0.326,0.2619,-0.0802,0.1816,38.325,10.65,16.05,,adl
4.422842,-1.4563,0.4243,-0.7061,0.2619,-0.0802,0.1816,38.325,10.65,16.05,,adl
4.429684,-1.4563,0.4243,-0.7061,0.0632,-0.0973,0.0977,38.325,10.65,16.05,,adl
4.44455,-1.4563,0.4243,-0.7061,0.0632,-0.0973,0.0977,38.325,10.65,16.05,,adl
4.446947,-1.4339,1.5778,-1.6487,0.0632,-0.0973,0.0977,38.325,10.65,16.05,,adl
4.450696,-1.4339,1.5778,-1.6487,0.0632,-0.0973,0.0977,38.925,11.025,15.675,,adl
4.459405,-1.4339,1.5778,-1.6487,0.0632,-0.0973,0.0977,38.925,11.025,15.675,,adl
4.462125,-1.2597,2.229,-2.3164,0.0632,-0.0973,0.0977,38.925,11.025,15.675,,adl
4.478943,-1.2597,2.229,-2.3164,0.0632,-0.0973,0.0977,38.925,11.025,15.675,,adl
4.482477,-1.1193,1.7949,-2.5549,0.0632,-0.0973,0.0977,38.925,11.025,15.675,,adl
4.49633,-1.1193,1.7949,-2.5549,0.0371,-0.2162,0.0513,38.925,11.025,15.675,,adl
4.499227,-1.1193,1.7949,-2.5549,0.0371,-0.2162,0.0513,38.925,11.025,15.675,,adl
4.501319,-0.9541,0.5601,-2.3559,0.0371,-0.2162,0.0513,38.925,11.025,15.675,,adl
4.518229,-0.9541,0.5601,-2.3559,0.0371,-0.2162,0.0513,38.925,11.025,15.675,,adl
4.520418,-0.7475,-0.8264,-2.1966,0.0371,-0.2162,0.0513,38.925,11.025,15.675,,adl
4.52212,-0.7475,-0.8264,-2.1966,0.0371,-0.2162,0.0513,38.925,11.025,15.15,,adl
4.533854,-0.7475,-0.8264,-2.1966,0.0371,-0.2162,0.0513,38.925,11.025,15.15,,adl
4.536433,-0.5538,-0.5624,-1.7449,0.0371,-0.2162,0.0513,38.925,11.025,15.15,,adl
4.552958,-0.5538,-0.5624,-1.7449,0.0371,-0.2162,0.0513,38.925,11.025,15.15,,adl
4.557823,-0.5741,0.1008,-1.0882,0.0371,-0.2162,0.0513,38.925,11.025,15.15,,adl
4.568866,-0.5741,0.1008,-1.0882,-0.3796,-0.0284,0.0551,38.925,11.025,15.15,,adl
4.577723,-0.5741,0.1008,-1.0882,-0.3796,-0.0284,0.0551,38.925,11.025,15.15,,adl
4.579235,-0.613,0.377,-0.3428,-0.3796,-0.0284,0.0551,38.925,11.025,15.15,,adl
4.591233,-0.613,0.377,-0.3428,-0.3796,-0.0284,0.0551,38.55,11.4,15.45,,adl
4.596765,-0.613,0.377,-0.3428,-0.3796,-0.0284,0.0551,38.55,11.4,15.45,,adl
4.597978,-0.7259,0.6596,0.223,-0.3796,-0.0284,0.0551,38.55,11.4,15.45,,adl
4.617637,-0.7259,0.6596,0.223,-0.3796,-0.0284,0.0551,38.55,11.4,15.45,,adl
4.61942,-0.8489,1.0565,0.2957,-0.3796,-0.0284,0.0551,38.55,11.4,15.45,,adl
4.636737,-0.8489,1.0565,0.2957,-0.264,-0.0356,-0.0324,38.55,11.4,15.45,,adl
4.638675,-0.8489,1.0565,0.2957,-0.264,-0.0356,-0.0324,38.55,11.4,15.45,,adl
4.63977,-0.9439,1.3426,-0.0332,-0.264,-0.0356,-0.0324,38.55,11.4,15.45,,adl
4.656746,-0.9439,1.3426,-0.0332,-0.264,-0.0356,-0.0324,38.55,11.4,15.45,,adl
4.660529,-0.9713,1.0819,-0.1222,-0.264,-0.0356,-0.0324,38.55,11.4,15.45,,adl
4.66284,-0.9713,1.0819,-0.1222,-0.264,-0.0356,-0.0324,39.225,11.025,15.15,,adl
4.68,-0.9713,1.0819,-0.1222,-0.264,-0.0356,-0.0324,39.225,11.025,15.15,,adl
4.683616,-0.9593,0.4269,0.2995,-0.264,-0.0356,-0.0324,39.225,11.025,15.15,,adl
4.695985,-0.9593,0.4269,0.2995,-0.264,-0.0356,-0.0324,39.225,11.025,15.15,,adl
4.698454,-0.9335,-0.2523,0.512,-0.264,-0.0356,-0.0324,39.225,11.025,15.15,,adl
4.704029,-0.9335,-0.2523,0.512,-0.1087,-0.0432,-0.0947,39.225,11.025,15.15,,adl
4.714437,-0.9335,-0.2523,0.512,-0.1087,-0.0432,-0.0947,39.225,11.025,15.15,,adl
4.716316,-0.8527,-0.5277,0.3132,-0.1087,-0.0432,-0.0947,39.225,11.025,15.15,,adl
4.729609,-0.8527,-0.5277,0.3132,-0.1087,-0.0432,-0.0947,38.775,11.625,14.475,,adl
4.738424,-0.8527,-0.5277,0.3132,-0.1087,-0.0432,-0.0947,38.775,11.625,14.475,,adl
4.740844,-0.7482,-0.2908,-0.2152,-0.1087,-0.0432,-0.0947,38.775,11.625,14.475,,adl
4.757724,-0.7482,-0.2908,-0.2152,-0.1087,-0.0432,-0.0947,38.775,11.625,14.475,,adl
4.759983,-0.7614,0.4031,-0.623,-0.1087,-0.0432,-0.0947,38.775,11.625,14.475,,adl
4.77652,-0.7614,0.4031,-0.623,0.1397,-0.0672,-0.1846,38.775,11.625,14.475,,adl
4.778741,-0.7614,0.4031,-0.623,0.1397,-0.0672,-0.1846,38.775,11.625,14.475,,adl
4.780075,-0.8005,0.5353,-0.7748,0.1397,-0.0672,-0.1846,38.775,11.625,14.475,,adl
4.798447,-0.8005,0.5353,-0.7748,0.1397,-0.0672,-0.1846,38.775,11.625,14.475,,adl
4.800124,-0.8321,0.0477,-0.5259,0.1397,-0.0672,-0.1846,38.775,11.625,14.475,,adl
4.801717,-0.8321,0.0477,-0.5259,0.1397,-0.0672,-0.1846,38.775,12.45,14.55,,adl
4.817131,-0.8321,0.0477,-0.5259,0.1397,-0.0672,-0.1846,38.775,12.45,14.55,,adl
4.819286,-0.8993,-0.2978,-0.0174,0.1397,-0.0672,-0.1846,38.775,12.45,14.55,,adl
4.837358,-0.8993,-0.2978,-0.0174,0.1397,-0.0672,-0.1846,38.775,12.45,14.55,,adl
4.839442,-0.8052,-0.4824,0.32,0.1397,-0.0672,-0.1846,38.775,12.45,14.55,,adl
4.84116,-0.8052,-0.4824,0.32,0.2825,-0.0186,-0.2851,38.775,12.45,14.55,,adl
4.85669,-0.8052,-0.4824,0.32,0.2825,-0.0186,-0.2851,38.775,12.45,14.55,,adl
4.858547,-0.5109,-0.9647,0.2766,0.2825,-0.0186,-0.2851,38.775,12.45,14.55,,adl
4.871533,-0.5109,-0.9647,0.2766,0.2825,-0.0186,-0.2851,39.375,13.575,13.95,,adl
4.880878,-0.5109,-0.9647,0.2766,0.2825,-0.0186,-0.2851,39.375,13.575,13.95,,adl
4.885676,-0.2943,-1.5283,0.094,0.2825,-0.0186,-0.2851,39.375,13.575,13.95,,adl
4.896043,-0.2943,-1.5283,0.094,0.2825,-0.0186,-0.2851,39.375,13.575,13.95,,adl
4.899678,-0.1689,-2.1731,-0.0104,0.2825,-0.0186,-0.2851,39.375,13.575,13.95,,adl
4.914667,-0.1689,-2.1731,-0.0104,0.5557,0.0428,-0.3028,39.375,13.575,13.95,,adl
4.917402,-0.1689,-2.1731,-0.0104,0.5557,0.0428,-0.3028,39.375,13.575,13.95,,adl
4.918585,-0.1776,-1.7621,0.1436,0.5557,0.0428,-0.3028,39.375,13.575,13.95,,adl
4.940082,-0.1776,-1.7621,0.1436,0.5557,0.0428,-0.3028,39.375,13.575,13.95,,adl
4.942933,-0.2118,-1.5925,0.0031,0.5557,0.0428,-0.3028,39.375,13.575,13.95,,adl
4.944557,-0.2118,-1.5925,0.0031,0.5557,0.0428,-0.3028,39.225,14.775,12.975,,adl
4.953661,-0.2118,-1.5925,0.0031,0.5557,0.0428,-0.3028,39.225,14.775,12.975,,adl
4.955302,0.1826,-1.4438,-0.6056,0.5557,0.0428,-0.3028,39.225,14.775,12.975,,adl
4.975485,0.1826,-1.4438,-0.6056,0.5557,0.0428,-0.3028,39.225,14.775,12.975,,adl
4.977605,-1.1869,-0.3944,-0.7081,0.5557,0.0428,-0.3028,39.225,14.775,12.975,,adl
4.983826,-1.1869,-0.3944,-0.7081,0.5279,0.3161,-0.1892,39.225,14.775,12.975,,adl
4.998573,-1.1869,-0.3944,-0.7081,0.5279,0.3161,-0.1892,39.225,14.775,12.975,,adl
5.000216,-0.8098,0.2152,-1.2627,0.5279,0.3161,-0.1892,39.225,14.775,12.975,,adl
5.011712,-0.8098,0.2152,-1.2627,0.5279,0.3161,-0.1892,37.875,16.275,13.35,,adl
5.017831,-0.8098,0.2152,-1.2627,0.5279,0.3161,-0.1892,37.875,16.275,13.35,,adl
5.019119,0.0078,0.8248,-1.6458,0.5279,0.3161,-0.1892,37.875,16.275,13.35,,adl
5.033659,0.0078,0.8248,-1.6458,0.5279,0.3161,-0.1892,37.875,16.275,13.35,,adl
5.035131,0.8215,1.3952,-1.4569,0.5279,0.3161,-0.1892,37.875,16.275,13.35,,adl
5.051736,0.8215,1.3952,-1.4569,0.0588,0.4583,0.0163,37.875,16.275,13.35,,adl
5.054861,0.8215,1.3952,-1.4569,0.0588,0.4583,0.0163,37.875,16.275,13.35,,adl
5.056271,1.4519,1.753,-1.0372,0.0588,0.4583,0.0163,37.875,16.275,13.35,,adl
5.077432,1.4519,1.753,-1.0372,0.0588,0.4583,0.0163,37.875,16.275,13.35,,adl
5.080651,1.5698,1.5888,-0.9755,0.0588,0.4583,0.0163,37.875,16.275,13.35,,adl
5.083108,1.5698,1.5888,-0.9755,0.0588,0.4583,0.0163,37.425,16.875,14.325,,adl
5.095423,1.5698,1.5888,-0.9755,0.0588,0.4583,0.0163,37.425,16.875,14.325,,adl
5.09799,1.2576,1.0897,-1.2568,0.0588,0.4583,0.0163,37.425,16.875,14.325,,adl
5.116322,1.2576,1.0897,-1.2568,0.0588,0.4583,0.0163,37.425,16.875,14.325,,adl
5.118201,0.7731,0.5255,-1.3369,0.0588,0.4583,0.0163,37.425,16.875,14.325,,adl
5.119882,0.7731,0.5255,-1.3369,-0.0244,0.3071,-0.0942,37.425,16.875,14.325,,adl
5.136584,0.7731,0.5255,-1.3369,-0.0244,0.3071,-0.0942,37.425,16.875,14.325,,adl
5.138351,0.5575,-0.0867,-1.2319,-0.0244,0.3071,-0.0942,37.425,16.875,14.325,,adl
5.150733,0.5575,-0.0867,-1.2319,-0.0244,0.3071,-0.0942,36.9,17.25,14.625,,adl
5.155065,0.5575,-0.0867,-1.2319,-0.0244,0.3071,-0.0942,36.9,17.25,14.625,,adl
5.15642,0.6973,-0.3785,-0.9337,-0.0244,0.3071,-0.0942,36.9,17.25,14.625,,adl
5.179887,0.6973,-0.3785,-0.9337,-0.0244,0.3071,-0.0942,36.9,17.25,14.625,,adl
5.182001,0.9285,-0.242,-0.3545,-0.0244,0.3071,-0.0942,36.9,17.25,14.625,,adl
5.193587,0.9285,-0.242,-0.3545,-0.2584,0.2853,-0.0209,36.9,17.25,14.625,,adl
5.198809,0.9285,-0.242,-0.3545,-0.2584,0.2853,-0.0209,36.9,17.25,14.625,,adl
5.202232,1.1269,0.0683,0.1264,-0.2584,0.2853,-0.0209,36.9,17.25,14.625,,adl
5.217857,1.1269,0.0683,0.1264,-0.2584,0.2853,-0.0209,36.9,17.25,14.625,,adl
5.219882,1.1937,0.4796,0.2616,-0.2584,0.2853,-0.0209,36.9,17.25,14.625,,adl
5.221826,1.1937,0.4796,0.2616,-0.2584,0.2853,-0.0209,37.5,17.475,16.05,,adl
5.237422,1.1937,0.4796,0.2616,-0.2584,0.2853,-0.0209,37.5,17.475,16.05,,adl
5.239631,1.1662,0.9126,0.1482,-0.2584,0.2853,-0.0209,37.5,17.475,16.05,,adl
5.259091,1.1662,0.9126,0.1482,-0.2584,0.2853,-0.0209,37.5,17.475,16.05,,adl
5.26269,1.1549,1.0976,-0.0356,-0.2584,0.2853,-0.0209,37.5,17.475,16.05,,adl
5.264808,1.1549,1.0976,-0.0356,-0.2123,0.348,-0.016,37.5,17.475,16.05,,adl
5.278941,1.1549,1.0976,-0.0356,-0.2123,0.348,-0.016,37.5,17.475,16.05,,adl
5.28143,1.222,0.9606,-0.1867,-0.2123,0.348,-0.016,37.5,17.475,16.05,,adl
5.290992,1.222,0.9606,-0.1867,-0.2123,0.348,-0.016,37.2,17.175,17.25,,adl
5.295661,1.222,0.9606,-0.1867,-0.2123,0.348,-0.016,37.2,17.175,17.25,,adl
5.29709,1.2143,0.7425,-0.228,-0.2123,0.348,-0.016,37.2,17.175,17.25,,adl
5.315088,1.2143,0.7425,-0.228,-0.2123,0.348,-0.016,37.2,17.175,17.25,,adl
5.317822,1.1769,0.4056,-0.1235,-0.2123,0.348,-0.016,37.2,17.175,17.25,,adl
5.330192,1.1769,0.4056,-0.1235,-0.1915,0.3667,-0.0075,37.2,17.175,17.25,,adl
5.335118,1.1769,0.4056,-0.1235,-0.1915,0.3667,-0.0075,37.2,17.175,17.25,,adl
5.336935,1.2236,0.058,-0.0549,-0.1915,0.3667,-0.0075,37.2,17.175,17.25,,adl
5.354504,1.2236,0.058,-0.0549,-0.1915,0.3667,-0.0075,37.2,17.175,17.25,,adl
5.356992,1.2872,-0.1192,-0.1149,-0.1915,0.3667,-0.0075,37.2,17.175,17.25,,adl
5.365741,1.2872,-0.1192,-0.1149,-0.1915,0.3667,-0.0075,36.45,17.85,18.675,,adl
5.373958,1.2872,-0.1192,-0.1149,-0.1915,0.3667,-0.0075,36.45,17.85,18.675,,adl
5.375934,1.2897,-0.0682,-0.2195,-0.1915,0.3667,-0.0075,36.45,17.85,18.675,,adl
5.396136,1.2897,-0.0682,-0.2195,-0.1915,0.3667,-0.0075,36.45,17.85,18.675,,adl
5.398803,1.1765,0.0203,-0.2564,-0.1915,0.3667,-0.0075,36.45,17.85,18.675,,adl
5.40068,1.1765,0.0203,-0.2564,-0.1727,0.3346,-0.0031,36.45,17.85,18.675,,adl
5.413326,1.1765,0.0203,-0.2564,-0.1727,0.3346,-0.0031,36.45,17.85,18.675,,adl
5.415347,0.9735,-0.0182,-0.0748,-0.1727,0.3346,-0.0031,36.45,17.85,18.675,,adl
5.430118,0.9735,-0.0182,-0.0748,-0.1727,0.3346,-0.0031,36.45,17.85,18.675,,adl
5.432378,0.6243,-0.2152,0.1554,-0.1727,0.3346,-0.0031,36.45,17.85,18.675,,adl
5.434033,0.6243,-0.2152,0.1554,-0.1727,0.3346,-0.0031,36.225,17.7,19.95,,adl
5.45234,0.6243,-0.2152,0.1554,-0.1727,0.3346,-0.0031,36.225,17.7,19.95,,adl
5.454669,0.2928,-0.3997,0.32,-0.1727,0.3346,-0.0031,36.225,17.7,19.95,,adl
5.467292,0.2928,-0.3997,0.32,-0.078,0.2017,0.1306,36.225,17.7,19.95,,adl
5.472179,0.2928,-0.3997,0.32,-0.078,0.2017,0.1306,36.225,17.7,19.95,,adl
5.473702,0.077,-0.518,0.496,-0.078,0.2017,0.1306,36.225,17.7,19.95,,adl
5.49086,0.077,-0.518,0.496,-0.078,0.2017,0.1306,36.225,17.7,19.95,,adl
5.49349,-0.1668,-0.5779,0.4738,-0.078,0.2017,0.1306,36.225,17.7,19.95,,adl
5.499844,-0.1668,-0.5779,0.4738,-0.078,0.2017,0.1306,35.925,17.85,19.95,,adl
5.516504,-0.1668,-0.5779,0.4738,-0.078,0.2017,0.1306,35.925,17.85,19.95,,adl
5.518509,-0.304,-0.9583,0.147,-0.078,0.2017,0.1306,35.925,17.85,19.95,,adl
5.535248,-0.304,-0.9583,0.147,-0.078,0.2017,0.1306,35.925,17.85,19.95,,adl
5.538114,-0.1154,-1.5851,-0.3684,-0.078,0.2017,0.1306,35.925,17.85,19.95,,adl
5.539854,-0.1154,-1.5851,-0.3684,0.1226,0.0142,0.372,35.925,17.85,19.95,,adl
5.554996,-0.1154,-1.5851,-0.3684,0.1226,0.0142,0.372,35.925,17.85,19.95,,adl
5.557111,0.3771,-1.5649,-0.578,0.1226,0.0142,0.372,35.925,17.85,19.95,,adl
5.570379,0.3771,-1.5649,-0.578,0.1226,0.0142,0.372,35.925,17.85,19.95,,adl
5.572765,0.3494,-1.1714,-0.7042,0.1226,0.0142,0.372,35.925,17.85,19.95,,adl
5.57504,0.3494,-1.1714,-0.7042,0.1226,0.0142,0.372,36.525,16.95,21.45,,adl
5.590037,0.3494,-1.1714,-0.7042,0.1226,0.0142,0.372,36.525,16.95,21.45,,adl
5.593177,-0.2691,-0.5136,-0.8371,0.1226,0.0142,0.372,36.525,16.95,21.45,,adl
5.613942,-0.2691,-0.5136,-0.8371,0.0168,-0.0932,0.3488,36.525,16.95,21.45,,adl
5.61653,-0.2691,-0.5136,-0.8371,0.0168,-0.0932,0.3488,36.525,16.95,21.45,,adl
5.618344,-0.9738,0.6097,-0.6215,0.0168,-0.0932,0.3488,36.525,16.95,21.45,,adl
5.628907,-0.9738,0.6097,-0.6215,0.0168,-0.0932,0.3488,36.525,16.95,21.45,,adl
5.631248,-1.457,1.4132,-0.5279,0.0168,-0.0932,0.3488,36.525,16.95,21.45,,adl
5.640383,-1.457,1.4132,-0.5279,0.0168,-0.0932,0.3488,37.2,16.65,21.45,,adl
5.647927,-1.457,1.4132,-0.5279,0.0168,-0.0932,0.3488,37.2,16.65,21.45,,adl
5.650179,-1.6215,1.6896,-0.6112,0.0168,-0.0932,0.3488,37.2,16.65,21.45,,adl
5.673693,-1.6215,1.6896,-0.6112,0.0168,-0.0932,0.3488,37.2,16.65,21.45,,adl
5.676853,-1.6083,1.2883,-0.6917,0.0168,-0.0932,0.3488,37.2,16.65,21.45,,adl
5.679304,-1.6083,1.2883,-0.6917,0.0186,-0.1553,0.3008,37.2,16.65,21.45,,adl
5.696152,-1.6083,1.2883,-0.6917,0.0186,-0.1553,0.3008,37.2,16.65,21.45,,adl
5.698522,-1.2432,0.2944,-0.6827,0.0186,-0.1553,0.3008,37.2,16.65,21.45,,adl
5.702744,-1.2432,0.2944,-0.6827,0.0186,-0.1553,0.3008,37.725,15.75,21.075,,adl
5.711368,-1.2432,0.2944,-0.6827,0.0186,-0.1553,0.3008,37.725,15.75,21.075,,adl
5.71379,-0.7777,-0.7521,-0.7312,0.0186,-0.1553,0.3008,37.725,15.75,21.075,,adl
5.726935,-0.7777,-0.7521,-0.7312,0.0186,-0.1553,0.3008,37.725,15.75,21.075,,adl
5.729618,-0.4172,-0.7334,-0.6598,0.0186,-0.1553,0.3008,37.725,15.75,21.075,,adl
5.746914,-0.4172,-0.7334,-0.6598,-0.1139,-0.0469,0.2156,37.725,15.75,21.075,,adl
5.748829,-0.4172,-0.7334,-0.6598,-0.1139,-0.0469,0.2156,37.725,15.75,21.075,,adl
5.750092,-0.195,-0.2722,-0.6942,-0.1139,-0.0469,0.2156,37.725,15.75,21.075,,adl
5.775891,-0.195,-0.2722,-0.6942,-0.1139,-0.0469,0.2156,37.725,15.15,20.925,,adl
5.780152,-0.195,-0.2722,-0.6942,-0.1139,-0.0469,0.2156,37.725,15.15,20.925,,adl
5.781824,-0.1135,0.4353,-0.475,-0.1139,-0.0469,0.2156,37.725,15.15,20.925,,adl
5.795439,-0.1135,0.4353,-0.475,-0.1139,-0.0469,0.2156,37.725,15.15,20.925,,adl
5.797272,-0.4469,0.9927,0.3104,-0.1139,-0.0469,0.2156,37.725,15.15,20.925,,adl
5.815543,-0.4469,0.9927,0.3104,-0.1139,-0.0469,0.2156,37.725,15.15,20.925,,adl
5.818869,-0.9183,0.9917,0.6601,-0.1139,-0.0469,0.2156,37.725,15.15,20.925,,adl
5.821448,-0.9183,0.9917,0.6601,-0.1263,0.0015,0.109,37.725,15.15,20.925,,adl
5.834282,-0.9183,0.9917,0.6601,-0.1263,0.0015,0.109,37.725,15.15,20.925,,adl
5.836181,-1.265,0.8138,0.7009,-0.1263,0.0015,0.109,37.725,15.15,20.925,,adl
5.84378,-1.265,0.8138,0.7009,-0.1263,0.0015,0.109,38.025,15.45,21.525,,adl
5.85393,-1.265,0.8138,0.7009,-0.1263,0.0015,0.109,38.025,15.45,21.525,,adl
5.856123,-1.3504,0.6329,0.7063,-0.1263,0.0015,0.109,38.025,15.45,21.525,,adl
5.873547,-1.3504,0.6329,0.7063,-0.1263,0.0015,0.109,38.025,15.45,21.525,,adl
5.87613,-1.1391,0.4511,0.7317,-0.1263,0.0015,0.109,38.025,15.45,21.525,,adl
5.887473,-1.1391,0.4511,0.7317,0.0228,0.0475,0.0886,38.025,15.45,21.525,,adl
5.89011,-1.1391,0.4511,0.7317,0.0228,0.0475,0.0886,38.025,15.45,21.525,,adl
5.892053,-0.8465,0.375,0.6451,0.0228,0.0475,0.0886,38.025,15.45,21.525,,adl
5.911932,-0.8465,0.375,0.6451,0.0228,0.0475,0.0886,38.025,15.45,21.525,,adl
5.91492,-0.5283,0.5971,0.4945,0.0228,0.0475,0.0886,38.025,15.45,21.525,,adl
5.916938,-0.5283,0.5971,0.4945,0.0228,0.0475,0.0886,38.4,14.85,21.975,,adl
5.931616,-0.5283,0.5971,0.4945,0.0228,0.0475,0.0886,38.4,14.85,21.975,,adl
5.934701,-0.3431,1.0262,0.4223,0.0228,0.0475,0.0886,38.4,14.85,21.975,,adl
5.952948,-0.3431,1.0262,0.4223,0.0228,0.0475,0.0886,38.4,14.85,21.975,,adl
5.957139,-0.4645,1.2069,0.324,0.0228,0.0475,0.0886,38.4,14.85,21.975,,adl
5.959982,-0.4645,1.2069,0.324,0.1023,0.153,-0.0731,38.4,14.85,21.975,,adl
5.971619,-0.4645,1.2069,0.324,0.1023,0.153,-0.0731,38.4,14.85,21.975,,adl
5.974137,-0.943,1.0063,0.3361,0.1023,0.153,-0.0731,38.4,14.85,21.975,,adl
5.98412,-0.943,1.0063,0.3361,0.1023,0.153,-0.0731,37.95,15.15,22.725,,adl
5.991922,-0.943,1.0063,0.3361,0.1023,0.153,-0.0731,37.95,15.15,22.725,,adl
5.994224,-1.1881,0.7161,0.6616,0.1023,0.153,-0.0731,37.95,15.15,22.725,,adl
6.014319,-1.1881,0.7161,0.6616,0.1023,0.153,-0.0731,37.95,15.15,22.725,,adl
6.0168,-1.0565,0.3985,1.0714,0.1023,0.153,-0.0731,37.95,15.15,22.725,,adl
6.031508,-1.0565,0.3985,1.0714,0.1025,0.2813,-0.1156,37.95,15.15,22.725,,adl
6.033853,-1.0565,0.3985,1.0714,0.1025,0.2813,-0.1156,37.95,15.15,22.725,,adl
6.035227,-0.744,0.162,1.2234,0.1025,0.2813,-0.1156,37.95,15.15,22.725,,adl
6.048857,-0.744,0.162,1.2234,0.1025,0.2813,-0.1156,37.95,15.15,22.725,,adl
6.051297,-0.4691,-0.0629,0.9958,0.1025,0.2813,-0.1156,37.95,15.15,22.725,,adl
6.053489,-0.4691,-0.0629,0.9958,0.1025,0.2813,-0.1156,37.725,15.3,23.55,,adl
6.068489,-0.4691,-0.0629,0.9958,0.1025,0.2813,-0.1156,37.725,15.3,23.55,,adl
6.070952,-0.4389,-0.2339,0.8117,0.1025,0.2813,-0.1156,37.725,15.3,23.55,,adl
6.088071,-0.4389,-0.2339,0.8117,0.1025,0.2813,-0.1156,37.725,15.3,23.55,,adl
6.091397,-0.6617,-0.3401,0.9494,0.1025,0.2813,-0.1156,37.725,15.3,23.55,,adl
6.093739,-0.6617,-0.3401,0.9494,0.2454,0.3239,-0.2036,37.725,15.3,23.55,,adl
6.114193,-0.6617,-0.3401,0.9494,0.2454,0.3239,-0.2036,37.725,15.3,23.55,,adl
6.116711,-0.9504,-0.4459,1.1446,0.2454,0.3239,-0.2036,37.725,15.3,23.55,,adl
6.120421,-0.9504,-0.4459,1.1446,0.2454,0.3239,-0.2036,36.675,15.975,24.45,,adl
6.127396,-0.9504,-0.4459,1.1446,0.2454,0.3239,-0.2036,36.675,15.975,24.45,,adl
6.130526,-0.6997,-0.7027,1.1483,0.2454,0.3239,-0.2036,36.675,15.975,24.45,,adl
6.144405,-0.6997,-0.7027,1.1483,0.2454,0.3239,-0.2036,36.675,15.975,24.45,,adl
6.1463,-0.2261,-3.313,-0.6369,0.2454,0.3239,-0.2036,36.675,15.975,24.45,,adl
6.163759,-0.2261,-3.313,-0.6369,0.2454,0.3239,-0.2036,36.675,15.975,24.45,,adl
6.1658,-1.4925,-3.5221,-1.0732,0.2454,0.3239,-0.2036,36.675,15.975,24.45,,adl
6.167572,-1.4925,-3.5221,-1.0732,0.3215,0.3798,-0.1681,36.675,15.975,24.45,,adl
6.187447,-1.4925,-3.5221,-1.0732,0.3215,0.3798,-0.1681,36.675,15.975,24.45,,adl
6.18911,-1.3143,-2.3816,-0.8596,0.3215,0.3798,-0.1681,36.675,15.975,24.45,,adl
6.190675,-1.3143,-2.3816,-0.8596,0.3215,0.3798,-0.1681,36.0,16.95,25.875,,adl
6.211598,-1.3143,-2.3816,-0.8596,0.3215,0.3798,-0.1681,36.0,16.95,25.875,,adl
6.217093,-0.1193,-0.5116,-0.3774,0.3215,0.3798,-0.1681,36.0,16.95,25.875,,adl
6.233607,-0.1193,-0.5116,-0.3774,0.3215,0.3798,-0.1681,36.0,16.95,25.875,,adl
6.236132,0.4463,0.8814,-0.2366,0.3215,0.3798,-0.1681,36.0,16.95,25.875,,adl
6.238495,0.4463,0.8814,-0.2366,0.024,0.1567,-0.1214,36.0,16.95,25.875,,adl
6.247986,0.4463,0.8814,-0.2366,0.024,0.1567,-0.1214,36.0,16.95,25.875,,adl
6.25018,0.3742,0.8785,-0.8547,0.024,0.1567,-0.1214,36.0,16.95,25.875,,adl
6.259548,0.3742,0.8785,-0.8547,0.024,0.1567,-0.1214,36.15,18.3,26.325,,adl
6.264211,0.3742,0.8785,-0.8547,0.024,0.1567,-0.1214,36.15,18.3,26.325,,adl
6.26571,0.4693,0.7348,-1.5855,0.024,0.1567,-0.1214,36.15,18.3,26.325,,adl
6.288279,0.4693,0.7348,-1.5855,0.024,0.1567,-0.1214,36.15,18.3,26.325,,adl
6.291936,0.4984,0.1214,-1.9656,0.024,0.1567,-0.1214,36.15,18.3,26.325,,adl
6.303485,0.4984,0.1214,-1.9656,0.2463,0.4485,-0.0408,36.15,18.3,26.325,,adl
6.313558,0.4984,0.1214,-1.9656,0.2463,0.4485,-0.0408,36.15,18.3,26.325,,adl
6.315719,0.864,-0.2545,-2.3365,0.2463,0.4485,-0.0408,36.15,18.3,26.325,,adl
6.330399,0.864,-0.2545,-2.3365,0.2463,0.4485,-0.0408,36.15,18.3,26.325,,adl
6.332953,1.2216,-0.1982,-2.5154,0.2463,0.4485,-0.0408,36.15,18.3,26.325,,adl
6.334833,1.2216,-0.1982,-2.5154,0.2463,0.4485,-0.0408,35.25,18.6,26.775,,adl
6.348018,1.2216,-0.1982,-2.5154,0.2463,0.4485,-0.0408,35.25,18.6,26.775,,adl
6.349727,1.463,-0.0645,-1.5428,0.2463,0.4485,-0.0408,35.25,18.6,26.775,,adl
6.367267,1.463,-0.0645,-1.5428,0.2463,0.4485,-0.0408,35.25,18.6,26.775,,adl
6.368972,1.622,0.0943,-0.7403,0.2463,0.4485,-0.0408,35.25,18.6,26.775,,adl
6.372169,1.622,0.0943,-0.7403,-0.2049,0.2428,-0.1918,35.25,18.6,26.775,,adl
6.386512,1.622,0.0943,-0.7403,-0.2049,0.2428,-0.1918,35.25,18.6,26.775,,adl
6.389746,1.484,0.2279,-0.7031,-0.2049,0.2428,-0.1918,35.25,18.6,26.775,,adl
6.401196,1.484,0.2279,-0.7031,-0.2049,0.2428,-0.1918,34.05,18.6,27.375,,adl
6.406842,1.484,0.2279,-0.7031,-0.2049,0.2428,-0.1918,34.05,18.6,27.375,,adl
6.409726,1.2816,0.6235,-0.3929,-0.2049,0.2428,-0.1918,34.05,18.6,27.375,,adl
6.425924,1.2816,0.6235,-0.3929,-0.2049,0.2428,-0.1918,34.05,18.6,27.375,,adl
6.42854,1.2922,0.7046,0.0301,-0.2049,0.2428,-0.1918,34.05,18.6,27.375,,adl
6.445679,1.2922,0.7046,0.0301,-0.2885,0.4171,-0.2127,34.05,18.6,27.375,,adl
6.45058,1.2922,0.7046,0.0301,-0.2885,0.4171,-0.2127,34.05,18.6,27.375,,adl
6.452333,1.0734,0.4482,0.0773,-0.2885,0.4171,-0.2127,34.05,18.6,27.375,,adl
6.469491,1.0734,0.4482,0.0773,-0.2885,0.4171,-0.2127,34.05,18.6,27.375,,adl
6.471823,0.6981,0.202,0.1147,-0.2885,0.4171,-0.2127,34.05,18.6,27.375,,adl
6.473984,0.6981,0.202,0.1147,-0.2885,0.4171,-0.2127,33.45,18.825,29.25,,adl
6.48883,0.6981,0.202,0.1147,-0.2885,0.4171,-0.2127,33.45,18.825,29.25,,adl
6.491382,0.4027,0.0734,0.1119,-0.2885,0.4171,-0.2127,33.45,18.825,29.25,,adl
6.50911,0.4027,0.0734,0.1119,-0.2885,0.4171,-0.2127,33.45,18.825,29.25,,adl
6.512811,0.1288,0.1385,-0.1971,-0.2885,0.4171,-0.2127,33.45,18.825,29.25,,adl
6.515496,0.1288,0.1385,-0.1971,-0.1584,0.6803,-0.0704,33.45,18.825,29.25,,adl
6.529674,0.1288,0.1385,-0.1971,-0.1584,0.6803,-0.0704,33.45,18.825,29.25,,adl
6.532568,0.0643,0.2923,-0.4191,-0.1584,0.6803,-0.0704,33.45,18.825,29.25,,adl
6.540488,0.0643,0.2923,-0.4191,-0.1584,0.6803,-0.0704,32.025,18.675,30.75,,adl
6.548301,0.0643,0.2923,-0.4191,-0.1584,0.6803,-0.0704,32.025,18.675,30.75,,adl
6.550351,0.2222,0.4524,-0.3757,-0.1584,0.6803,-0.0704,32.025,18.675,30.75,,adl
6.567943,0.2222,0.4524,-0.3757,-0.1584,0.6803,-0.0704,32.025,18.675,30.75,,adl
6.570775,0.5663,0.5644,-0.1781,-0.1584,0.6803,-0.0704,32.025,18.675,30.75,,adl
6.582794,0.5663,0.5644,-0.1781,-0.276,0.7849,-0.0185,32.025,18.675,30.75,,adl
6.587181,0.5663,0.5644,-0.1781,-0.276,0.7849,-0.0185,32.025,18.675,30.75,,adl
6.588727,0.8541,0.5903,0.1234,-0.276,0.7849,-0.0185,32.025,18.675,30.75,,adl
6.606763,0.8541,0.5903,0.1234,-0.276,0.7849,-0.0185,32.025,18.675,30.75,,adl
6.611644,0.9796,0.6362,0.2099,-0.276,0.7849,-0.0185,32.025,18.675,30.75,,adl
6.614306,0.9796,0.6362,0.2099,-0.276,0.7849,-0.0185,30.375,17.775,34.05,,adl
6.626349,0.9796,0.6362,0.2099,-0.276,0.7849,-0.0185,30.375,17.775,34.05,,adl
6.629079,1.0065,0.8543,0.1424,-0.276,0.7849,-0.0185,30.375,17.775,34.05,,adl
6.645799,1.0065,0.8543,0.1424,-0.276,0.7849,-0.0185,30.375,17.775,34.05,,adl
6.648215,0.847,1.0853,0.0906,-0.276,0.7849,-0.0185,30.375,17.775,34.05,,adl
6.650176,0.847,1.0853,0.0906,-0.2902,0.7701,-0.0237,30.375,17.775,34.05,,adl
6.665258,0.847,1.0853,0.0906,-0.2902,0.7701,-0.0237,30.375,17.775,34.05,,adl
6.667358,0.626,1.0911,0.2116,-0.2902,0.7701,-0.0237,30.375,17.775,34.05,,adl
6.680338,0.626,1.0911,0.2116,-0.2902,0.7701,-0.0237,30.375,17.775,34.05,,adl
6.682818,0.5064,0.8013,0.4277,-0.2902,0.7701,-0.0237,30.375,17.775,34.05,,adl
6.684745,0.5064,0.8013,0.4277,-0.2902,0.7701,-0.0237,28.95,17.625,34.65,,adl
6.704316,0.5064,0.8013,0.4277,-0.2902,0.7701,-0.0237,28.95,17.625,34.65,,adl
6.707361,0.4585,0.2849,0.6173,-0.2902,0.7701,-0.0237,28.95,17.625,34.65,,adl
6.724758,0.4585,0.2849,0.6173,-0.254,0.7819,0.0651,28.95,17.625,34.65,,adl
6.728621,0.4585,0.2849,0.6173,-0.254,0.7819,0.0651,28.95,17.625,34.65,,adl
6.730832,0.4394,-0.1378,0.7286,-0.254,0.7819,0.0651,28.95,17.625,34.65,,adl
6.748938,0.4394,-0.1378,0.7286,-0.254,0.7819,0.0651,28.95,17.625,34.65,,adl
6.75203,0.5228,-0.3322,0.7173,-0.254,0.7819,0.0651,28.95,17.625,34.65,,adl
6.756042,0.5228,-0.3322,0.7173,-0.254,0.7819,0.0651,27.375,16.275,37.125,,adl
6.768316,0.5228,-0.3322,0.7173,-0.254,0.7819,0.0651,27.375,16.275,37.125,,adl
6.771847,0.4927,-0.3258,0.7714,-0.254,0.7819,0.0651,27.375,16.275,37.125,,adl
6.787426,0.4927,-0.3258,0.7714,-0.254,0.7819,0.0651,27.375,16.275,37.125,,adl
6.79027,0.4771,-0.2411,0.8869,-0.254,0.7819,0.0651,27.375,16.275,37.125,,adl
6.792901,0.4771,-0.2411,0.8869,-0.1045,0.5835,0.141,27.375,16.275,37.125,,adl
6.813389,0.4771,-0.2411,0.8869,-0.1045,0.5835,0.141,27.375,16.275,37.125,,adl
6.815331,0.6317,-0.0278,0.7917,-0.1045,0.5835,0.141,27.375,16.275,37.125,,adl
6.819779,0.6317,-0.0278,0.7917,-0.1045,0.5835,0.141,26.25,15.45,38.85,,adl
6.827754,0.6317,-0.0278,0.7917,-0.1045,0.5835,0.141,26.25,15.45,38.85,,adl
6.83,0.8816,0.2402,0.5924,-0.1045,0.5835,0.141,26.25,15.45,38.85,,adl
6.846491,0.8816,0.2402,0.5924,-0.1045,0.5835,0.141,26.25,15.45,38.85,,adl
6.848377,1.2891,0.2605,0.4349,-0.1045,0.5835,0.141,26.25,15.45,38.85,,adl
6.861529,1.2891,0.2605,0.4349,0.0079,0.6112,0.1419,26.25,15.45,38.85,,adl
6.865559,1.2891,0.2605,0.4349,0.0079,0.6112,0.1419,26.25,15.45,38.85,,adl
6.866661,1.6279,-0.1168,0.5284,0.0079,0.6112,0.1419,26.25,15.45,38.85,,adl
6.885175,1.6279,-0.1168,0.5284,0.0079,0.6112,0.1419,26.25,15.45,38.85,,adl
6.887133,1.7643,-0.4022,0.7398,0.0079,0.6112,0.1419,26.25,15.45,38.85,,adl
6.894897,1.7643,-0.4022,0.7398,0.0079,0.6112,0.1419,25.2,15.15,39.825,,adl
6.904405,1.7643,-0.4022,0.7398,0.0079,0.6112,0.1419,25.2,15.15,39.825,,adl
6.906371,1.6999,-0.7324,0.8044,0.0079,0.6112,0.1419,25.2,15.15,39.825,,adl
6.919809,1.6999,-0.7324,0.8044,0.0079,0.6112,0.1419,25.2,15.15,39.825,,adl
6.922374,1.3428,-2.1304,0.1326,0.0079,0.6112,0.1419,25.2,15.15,39.825,,adl
6.928834,1.3428,-2.1304,0.1326,0.1465,0.8825,0.0195,25.2,15.15,39.825,,adl
6.944839,1.3428,-2.1304,0.1326,0.1465,0.8825,0.0195,25.2,15.15,39.825,,adl
6.946619,1.4866,-2.9863,-0.5811,0.1465,0.8825,0.0195,25.2,15.15,39.825,,adl
6.960302,1.4866,-2.9863,-0.5811,0.1465,0.8825,0.0195,22.35,15.0,40.95,,adl
6.964111,1.4866,-2.9863,-0.5811,0.1465,0.8825,0.0195,22.35,15.0,40.95,,adl
6.965974,1.2016,-2.6717,-0.7345,0.1465,0.8825,0.0195,22.35,15.0,40.95,,adl
6.983633,1.2016,-2.6717,-0.7345,0.1465,0.8825,0.0195,22.35,15.0,40.95,,adl
6.986284,0.7801,-2.2688,-1.2277,0.1465,0.8825,0.0195,22.35,15.0,40.95,,adl
6.998247,0.7801,-2.2688,-1.2277,0.1544,1.2171,-0.0896,22.35,15.0,40.95,,adl
7.002981,0.7801,-2.2688,-1.2277,0.1544,1.2171,-0.0896,22.35,15.0,40.95,,adl
7.004817,0.4983,-1.0893,-1.1223,0.1544,1.2171,-0.0896,22.35,15.0,40.95,,adl
7.022368,0.4983,-1.0893,-1.1223,0.1544,1.2171,-0.0896,22.35,15.0,40.95,,adl
7.024901,0.1511,0.3117,-0.9545,0.1544,1.2171,-0.0896,22.35,15.0,40.95,,adl
7.029685,0.1511,0.3117,-0.9545,0.1544,1.2171,-0.0896,19.5,15.3,42.75,,adl
7.036782,0.1511,0.3117,-0.9545,0.1544,1.2171,-0.0896,19.5,15.3,42.75,,adl
7.038212,-0.1614,1.067,-1.4871,0.1544,1.2171,-0.0896,19.5,15.3,42.75,,adl
7.059204,-0.1614,1.067,-1.4871,0.1544,1.2171,-0.0896,19.5,15.3,42.75,,adl
7.06211,-0.4409,1.3748,-1.8919,0.1544,1.2171,-0.0896,19.5,15.3,42.75,,adl
7.066752,-0.4409,1.3748,-1.8919,0.2399,0.9728,-0.2822,19.5,15.3,42.75,,adl
7.079761,-0.4409,1.3748,-1.8919,0.2399,0.9728,-0.2822,19.5,15.3,42.75,,adl
7.081311,-1.0042,0.9543,-2.063,0.2399,0.9728,-0.2822,19.5,15.3,42.75,,adl
7.10107,-1.0042,0.9543,-2.063,0.2399,0.9728,-0.2822,16.2,16.35,43.95,,adl
7.1068,-1.0042,0.9543,-2.063,0.2399,0.9728,-0.2822,16.2,16.35,43.95,,adl
7.108002,-1.7539,0.1363,-2.3021,0.2399,0.9728,-0.2822,16.2,16.35,43.95,,adl
7.121055,-1.7539,0.1363,-2.3021,0.2399,0.9728,-0.2822,16.2,16.35,43.95,,adl
7.122079,-1.9363,-0.5357,-2.0574,0.2399,0.9728,-0.2822,16.2,16.35,43.95,,adl
7.141366,-1.9363,-0.5357,-2.0574,0.2399,0.9728,-0.2822,16.2,16.35,43.95,,adl
7.143438,-1.6587,-0.8225,-1.5197,0.2399,0.9728,-0.2822,16.2,16.35,43.95,,adl
7.144957,-1.6587,-0.8225,-1.5197,0.0027,0.8917,-0.2026,16.2,16.35,43.95,,adl
7.164446,-1.6587,-0.8225,-1.5197,0.0027,0.8917,-0.2026,16.2,16.35,43.95,,adl
7.166396,-1.0485,-0.4752,-1.1338,0.0027,0.8917,-0.2026,16.2,16.35,43.95,,adl
7.167868,-1.0485,-0.4752,-1.1338,0.0027,0.8917,-0.2026,14.025,16.5,44.925,,adl
7.184443,-1.0485,-0.4752,-1.1338,0.0027,0.8917,-0.2026,14.025,16.5,44.925,,adl
7.186313,-0.4174,0.1388,-0.8452,0.0027,0.8917,-0.2026,14.025,16.5,44.925,,adl
7.204098,-0.4174,0.1388,-0.8452,0.0027,0.8917,-0.2026,14.025,16.5,44.925,,adl
7.205889,-0.0863,0.5913,-0.6493,0.0027,0.8917,-0.2026,14.025,16.5,44.925,,adl
7.207903,-0.0863,0.5913,-0.6493,-0.0426,0.9726,-0.1599,14.025,16.5,44.925,,adl
7.223073,-0.0863,0.5913,-0.6493,-0.0426,0.9726,-0.1599,14.025,16.5,44.925,,adl
7.226267,-0.0994,0.801,-0.4941,-0.0426,0.9726,-0.1599,14.025,16.5,44.925,,adl
7.233554,-0.0994,0.801,-0.4941,-0.0426,0.9726,-0.1599,10.725,16.725,45.15,,adl
7.242694,-0.0994,0.801,-0.4941,-0.0426,0.9726,-0.1599,10.725,16.725,45.15,,adl
7.246109,-0.2789,0.9366,-0.3426,-0.0426,0.9726,-0.1599,10.725,16.725,45.15,,adl
7.263236,-0.2789,0.9366,-0.3426,-0.0426,0.9726,-0.1599,10.725,16.725,45.15,,adl
7.267549,-0.4411,0.8679,-0.259,-0.0426,0.9726,-0.1599,10.725,16.725,45.15,,adl
7.280034,-0.4411,0.8679,-0.259,0.0382,1.0126,-0.1651,10.725,16.725,45.15,,adl
7.283618,-0.4411,0.8679,-0.259,0.0382,1.0126,-0.1651,10.725,16.725,45.15,,adl
7.286094,-0.5963,0.6499,-0.3351,0.0382,1.0126,-0.1651,10.725,16.725,45.15,,adl
7.301076,-0.5963,0.6499,-0.3351,0.0382,1.0126,-0.1651,10.725,16.725,45.15,,adl
7.303395,-0.6859,0.3542,-0.3657,0.0382,1.0126,-0.1651,10.725,16.725,45.15,,adl
7.305508,-0.6859,0.3542,-0.3657,0.0382,1.0126,-0.1651,7.2,17.175,45.825,,adl
7.32006,-0.6859,0.3542,-0.3657,0.0382,1.0126,-0.1651,7.2,17.175,45.825,,adl
7.32303,-0.6598,0.1489,-0.2149,0.0382,1.0126,-0.1651,7.2,17.175,45.825,,adl
7.339924,-0.6598,0.1489,-0.2149,0.0382,1.0126,-0.1651,7.2,17.175,45.825,,adl
7.343467,-0.6221,0.0947,-0.0252,0.0382,1.0126,-0.1651,7.2,17.175,45.825,,adl
7.349821,-0.6221,0.0947,-0.0252,0.0347,1.1014,-0.1515,7.2,17.175,45.825,,adl
7.364371,-0.6221,0.0947,-0.0252,0.0347,1.1014,-0.1515,7.2,17.175,45.825,,adl
7.36773,-0.5664,0.3239,-0.0113,0.0347,1.1014,-0.1515,7.2,17.175,45.825,,adl
7.377892,-0.5664,0.3239,-0.0113,0.0347,1.1014,-0.1515,4.05,16.35,46.35,,adl
7.384626,-0.5664,0.3239,-0.0113,0.0347,1.1014,-0.1515,4.05,16.35,46.35,,adl
7.386602,-0.6257,0.6234,0.0797,0.0347,1.1014,-0.1515,4.05,16.35,46.35,,adl
7.403946,-0.6257,0.6234,0.0797,0.0347,1.1014,-0.1515,4.05,16.35,46.35,,adl
7.40764,-0.7454,0.7062,0.2155,0.0347,1.1014,-0.1515,4.05,16.35,46.35,,adl
7.418445,-0.7454,0.7062,0.2155,0.086,1.0158,-0.1623,4.05,16.35,46.35,,adl
7.424527,-0.7454,0.7062,0.2155,0.086,1.0158,-0.1623,4.05,16.35,46.35,,adl
7.426773,-0.8736,0.6196,0.2865,0.086,1.0158,-0.1623,4.05,16.35,46.35,,adl
7.441146,-0.8736,0.6196,0.2865,0.086,1.0158,-0.1623,4.05,16.35,46.35,,adl
7.443992,-0.9195,0.5653,0.1633,0.086,1.0158,-0.1623,4.05,16.35,46.35,,adl
7.446215,-0.9195,0.5653,0.1633,0.086,1.0158,-0.1623,0.975,16.65,46.275,,adl
7.46355,-0.9195,0.5653,0.1633,0.086,1.0158,-0.1623,0.975,16.65,46.275,,adl
7.468449,-0.8514,0.5611,0.0209,0.086,1.0158,-0.1623,0.975,16.65,46.275,,adl
7.482528,-0.8514,0.5611,0.0209,0.086,1.0158,-0.1623,0.975,16.65,46.275,,adl
7.488162,-0.6164,0.3456,-0.0425,0.086,1.0158,-0.1623,0.975,16.65,46.275,,adl
7.491129,-0.6164,0.3456,-0.0425,0.0977,0.8324,-0.1536,0.975,16.65,46.275,,adl
7.5018,-0.6164,0.3456,-0.0425,0.0977,0.8324,-0.1536,0.975,16.65,46.275,,adl
7.504035,-0.3092,0.0365,-0.0222,0.0977,0.8324,-0.1536,0.975,16.65,46.275,,adl
7.511504,-0.3092,0.0365,-0.0222,0.0977,0.8324,-0.1536,-1.5,16.875,46.275,,adl
7.520897,-0.3092,0.0365,-0.0222,0.0977,0.8324,-0.1536,-1.5,16.875,46.275,,adl
7.523384,-0.1303,-0.4471,-0.0373,0.0977,0.8324,-0.1536,-1.5,16.875,46.275,,adl
7.539336,-0.1303,-0.4471,-0.0373,0.0977,0.8324,-0.1536,-1.5,16.875,46.275,,adl
7.541783,-0.0012,-0.8654,-0.1418,0.0977,0.8324,-0.1536,-1.5,16.875,46.275,,adl
7.562514,-0.0012,-0.8654,-0.1418,0.1002,0.8818,-0.2457,-1.5,16.875,46.275,,adl
7.565378,-0.0012,-0.8654,-0.1418,0.1002,0.8818,-0.2457,-1.5,16.875,46.275,,adl
7.567672,-0.1219,-0.8716,-0.0199,0.1002,0.8818,-0.2457,-1.5,16.875,46.275,,adl
7.579101,-0.1219,-0.8716,-0.0199,0.1002,0.8818,-0.2457,-1.5,16.875,46.275,,adl
7.581027,-0.4307,-0.7361,0.3492,0.1002,0.8818,-0.2457,-1.5,16.875,46.275,,adl
7.582838,-0.4307,-0.7361,0.3492,0.1002,0.8818,-0.2457,-4.725,17.175,46.05,,adl
7.599203,-0.4307,-0.7361,0.3492,0.1002,0.8818,-0.2457,-4.725,17.175,46.05,,adl
7.601658,-0.6135,-0.6275,0.7944,0.1002,0.8818,-0.2457,-4.725,17.175,46.05,,adl
7.618507,-0.6135,-0.6275,0.7944,0.1002,0.8818,-0.2457,-4.725,17.175,46.05,,adl
7.620708,-0.4456,-0.5145,1.1581,0.1002,0.8818,-0.2457,-4.725,17.175,46.05,,adl
7.6241,-0.4456,-0.5145,1.1581,0.1584,1.0453,-0.3091,-4.725,17.175,46.05,,adl
7.633675,-0.4456,-0.5145,1.1581,0.1584,1.0453,-0.3091,-4.725,17.175,46.05,,adl
7.635287,0.1839,-1.8299,0.448,0.1584,1.0453,-0.3091,-4.725,17.175,46.05,,adl
7.650034,0.1839,-1.8299,0.448,0.1584,1.0453,-0.3091,-7.95,17.475,45.225,,adl
7.653314,0.1839,-1.8299,0.448,0.1584,1.0453,-0.3091,-7.95,17.475,45.225,,adl
7.654649,-0.3685,-2.1415,-0.6648,0.1584,1.0453,-0.3091,-7.95,17.475,45.225,,adl
7.677533,-0.3685,-2.1415,-0.6648,0.1584,1.0453,-0.3091,-7.95,17.475,45.225,,adl
7.680006,-0.6628,-1.0506,-0.8511,0.1584,1.0453,-0.3091,-7.95,17.475,45.225,,adl
7.694499,-0.6628,-1.0506,-0.8511,0.3741,0.9931,-0.3279,-7.95,17.475,45.225,,adl
7.697351,-0.6628,-1.0506,-0.8511,0.3741,0.9931,-0.3279,-7.95,17.475,45.225,,adl
7.698699,-0.1501,-1.1508,-1.1397,0.3741,0.9931,-0.3279,-7.95,17.475,45.225,,adl
7.713177,-0.1501,-1.1508,-1.1397,0.3741,0.9931,-0.3279,-7.95,17.475,45.225,,adl
7.714923,0.2922,-0.2237,-1.2782,0.3741,0.9931,-0.3279,-7.95,17.475,45.225,,adl
7.719856,0.2922,-0.2237,-1.2782,0.3741,0.9931,-0.3279,-11.325,18.6,43.125,,adl
7.73226,0.2922,-0.2237,-1.2782,0.3741,0.9931,-0.3279,-11.325,18.6,43.125,,adl
7.733962,0.8696,0.9008,-1.3903,0.3741,0.9931,-0.3279,-11.325,18.6,43.125,,adl
7.755836,0.8696,0.9008,-1.3903,0.3741,0.9931,-0.3279,-11.325,18.6,43.125,,adl
7.757568,1.0992,1.4776,-1.7891,0.3741,0.9931,-0.3279,-11.325,18.6,43.125,,adl
7.765543,1.0992,1.4776,-1.7891,-0.0139,0.9057,-0.3184,-11.325,18.6,43.125,,adl
7.777672,1.0992,1.4776,-1.7891,-0.0139,0.9057,-0.3184,-11.325,18.6,43.125,,adl
7.780388,1.1143,1.3057,-2.0547,-0.0139,0.9057,-0.3184,-11.325,18.6,43.125,,adl
7.800812,1.1143,1.3057,-2.0547,-0.0139,0.9057,-0.3184,-11.325,18.6,43.125,,adl
7.80174,0.8517,0.8012,-2.0024,-0.0139,0.9057,-0.3184,-11.325,18.6,43.125,,adl
7.80249,0.8517,0.8012,-2.0024,-0.0139,0.9057,-0.3184,-15.3,18.375,42.525,,adl
7.819161,0.8517,0.8012,-2.0024,-0.0139,0.9057,-0.3184,-15.3,18.375,42.525,,adl
7.819974,0.5871,0.2762,-1.731,-0.0139,0.9057,-0.3184,-15.3,18.375,42.525,,adl
7.838778,0.5871,0.2762,-1.731,-0.1862,0.9242,-0.2521,-15.3,18.375,42.525,,adl
7.83992,0.5871,0.2762,-1.731,-0.1862,0.9242,-0.2521,-15.3,18.375,42.525,,adl
7.840493,0.3061,-0.5196,-1.6509,-0.1862,0.9242,-0.2521,-15.3,18.375,42.525,,adl
7.854605,0.3061,-0.5196,-1.6509,-0.1862,0.9242,-0.2521,-15.3,18.375,42.525,,adl
7.856413,-0.0586,-0.7448,-1.4803,-0.1862,0.9242,-0.2521,-15.3,18.375,42.525,,adl
7.862037,-0.0586,-0.7448,-1.4803,-0.1862,0.9242,-0.2521,-18.825,17.55,41.85,,adl
7.878012,-0.0586,-0.7448,-1.4803,-0.1862,0.9242,-0.2521,-18.825,17.55,41.85,,adl
7.879377,-0.1272,-0.3386,-0.9662,-0.1862,0.9242,-0.2521,-18.825,17.55,41.85,,adl
7.898,-0.1272,-0.3386,-0.9662,-0.1862,0.9242,-0.2521,-18.825,17.55,41.85,,adl
7.900132,0.1061,0.0737,-0.3371,-0.1862,0.9242,-0.2521,-18.825,17.55,41.85,,adl
7.902662,0.1061,0.0737,-0.3371,-0.3547,0.6377,-0.2164,-18.825,17.55,41.85,,adl
7.918171,0.1061,0.0737,-0.3371,-0.3547,0.6377,-0.2164,-18.825,17.55,41.85,,adl
7.919903,0.3915,0.4146,0.1051,-0.3547,0.6377,-0.2164,-18.825,17.55,41.85,,adl
7.930664,0.3915,0.4146,0.1051,-0.3547,0.6377,-0.2164,-19.95,16.35,41.475,,adl
7.937107,0.3915,0.4146,0.1051,-0.3547,0.6377,-0.2164,-19.95,16.35,41.475,,adl
7.938632,0.5959,0.6891,0.1916,-0.3547,0.6377,-0.2164,-19.95,16.35,41.475,,adl
7.956399,0.5959,0.6891,0.1916,-0.3547,0.6377,-0.2164,-19.95,16.35,41.475,,adl
7.95905,0.6192,0.7246,0.1607,-0.3547,0.6377,-0.2164,-19.95,16.35,41.475,,adl
7.971184,0.6192,0.7246,0.1607,-0.1257,0.509,-0.0977,-19.95,16.35,41.475,,adl
7.981533,0.6192,0.7246,0.1607,-0.1257,0.509,-0.0977,-19.95,16.35,41.475,,adl
7.984493,0.5997,0.5589,0.2355,-0.1257,0.509,-0.0977,-19.95,16.35,41.475,,adl
7.995089,0.5997,0.5589,0.2355,-0.1257,0.509,-0.0977,-19.95,16.35,41.475,,adl
7.997059,0.5503,0.2665,0.3273,-0.1257,0.509,-0.0977,-19.95,16.35,41.475,,adl
7.999502,0.5503,0.2665,0.3273,-0.1257,0.509,-0.0977,-21.375,15.15,40.65,,adl
8.014746,0.5503,0.2665,0.3273,-0.1257,0.509,-0.0977,-21.375,15.15,40.65,,adl
8.016956,0.5199,0.1174,0.1775,-0.1257,0.509,-0.0977,-21.375,15.15,40.65,,adl
8.039792,0.5199,0.1174,0.1775,-0.1257,0.509,-0.0977,-21.375,15.15,40.65,,adl
8.042506,0.6088,0.2656,-0.0647,-0.1257,0.509,-0.0977,-21.375,15.15,40.65,,adl
8.044533,0.6088,0.2656,-0.0647,-0.0218,0.3555,-0.0205,-21.375,15.15,40.65,,adl
8.064758,0.6088,0.2656,-0.0647,-0.0218,0.3555,-0.0205,-21.375,15.15,40.65,,adl
8.067975,0.7644,0.6491,-0.2749,-0.0218,0.3555,-0.0205,-21.375,15.15,40.65,,adl
8.07047,0.7644,0.6491,-0.2749,-0.0218,0.3555,-0.0205,-22.95,15.525,40.05,,adl
8.078363,0.7644,0.6491,-0.2749,-0.0218,0.3555,-0.0205,-22.95,15.525,40.05,,adl
8.080441,0.8326,0.7837,-0.1722,-0.0218,0.3555,-0.0205,-22.95,15.525,40.05,,adl
8.098544,0.8326,0.7837,-0.1722,-0.0218,0.3555,-0.0205,-22.95,15.525,40.05,,adl
8.10091,0.7367,0.7109,0.1535,-0.0218,0.3555,-0.0205,-22.95,15.525,40.05,,adl
8.11228,0.7367,0.7109,0.1535,-0.0052,0.3474,0.0437,-22.95,15.525,40.05,,adl
8.117145,0.7367,0.7109,0.1535,-0.0052,0.3474,0.0437,-22.95,15.525,40.05,,adl
8.118625,0.5088,0.4884,0.4851,-0.0052,0.3474,0.0437,-22.95,15.525,40.05,,adl
8.137065,0.5088,0.4884,0.4851,-0.0052,0.3474,0.0437,-22.95,15.525,40.05,,adl
8.140422,0.2621,0.1268,0.4335,-0.0052,0.3474,0.0437,-22.95,15.525,40.05,,adl
8.142749,0.2621,0.1268,0.4335,-0.0052,0.3474,0.0437,-23.325,15.15,39.675,,adl
8.156881,0.2621,0.1268,0.4335,-0.0052,0.3474,0.0437,-23.325,15.15,39.675,,adl
8.160396,0.0449,-0.0989,0.1316,-0.0052,0.3474,0.0437,-23.325,15.15,39.675,,adl
8.182821,0.0449,-0.0989,0.1316,-0.0052,0.3474,0.0437,-23.325,15.15,39.675,,adl
8.185886,-0.083,0.2281,-0.05,-0.0052,0.3474,0.0437,-23.325,15.15,39.675,,adl
8.189199,-0.083,0.2281,-0.05,0.1248,0.2792,0.1921,-23.325,15.15,39.675,,adl
8.196146,-0.083,0.2281,-0.05,0.1248,0.2792,0.1921,-23.325,15.15,39.675,,adl
8.197648,0.0272,0.405,-0.0862,0.1248,0.2792,0.1921,-23.325,15.15,39.675,,adl
8.210589,0.0272,0.405,-0.0862,0.1248,0.2792,0.1921,-24.525,15.9,38.175,,adl
8.21555,0.0272,0.405,-0.0862,0.1248,0.2792,0.1921,-24.525,15.9,38.175,,adl
8.216944,0.4057,0.2653,0.0418,0.1248,0.2792,0.1921,-24.525,15.9,38.175,,adl
8.234671,0.4057,0.2653,0.0418,0.1248,0.2792,0.1921,-24.525,15.9,38.175,,adl
8.236044,0.5613,0.1578,0.2692,0.1248,0.2792,0.1921,-24.525,15.9,38.175,,adl
8.250119,0.5613,0.1578,0.2692,-0.0299,0.1689,0.2326,-24.525,15.9,38.175,,adl
8.25469,0.5613,0.1578,0.2692,-0.0299,0.1689,0.2326,-24.525,15.9,38.175,,adl
8.256684,0.9325,0.1168,0.5085,-0.0299,0.1689,0.2326,-24.525,15.9,38.175,,adl
8.276634,0.9325,0.1168,0.5085,-0.0299,0.1689,0.2326,-24.525,15.9,38.175,,adl
8.279596,0.8227,-0.0786,0.8823,-0.0299,0.1689,0.2326,-24.525,15.9,38.175,,adl
8.282256,0.8227,-0.0786,0.8823,-0.0299,0.1689,0.2326,-24.9,16.2,37.95,,adl
8.293723,0.8227,-0.0786,0.8823,-0.0299,0.1689,0.2326,-24.9,16.2,37.95,,adl
8.295801,0.7772,-0.2835,1.141,-0.0299,0.1689,0.2326,-24.9,16.2,37.95,,adl
8.313919,0.7772,-0.2835,1.141,-0.0299,0.1689,0.2326,-24.9,16.2,37.95,,adl
8.316113,0.9371,-0.2948,1.2935,-0.0299,0.1689,0.2326,-24.9,16.2,37.95,,adl
8.317838,0.9371,-0.2948,1.2935,0.0108,0.0812,0.2248,-24.9,16.2,37.95,,adl
8.332584,0.9371,-0.2948,1.2935,0.0108,0.0812,0.2248,-24.9,16.2,37.95,,adl
8.334295,0.8637,-1.163,0.767,0.0108,0.0812,0.2248,-24.9,16.2,37.95,,adl
8.347513,0.8637,-1.163,0.767,0.0108,0.0812,0.2248,-24.9,16.2,37.95,,adl
8.34909,0.9228,-1.9982,-0.1524,0.0108,0.0812,0.2248,-24.9,16.2,37.95,,adl
8.351008,0.9228,-1.9982,-0.1524,0.0108,0.0812,0.2248,-24.9,16.875,38.175,,adl
8.36714,0.9228,-1.9982,-0.1524,0.0108,0.0812,0.2248,-24.9,16.875,38.175,,adl
8.369488,0.9731,-1.3588,-0.1427,0.0108,0.0812,0.2248,-24.9,16.875,38.175,,adl
8.386838,0.9731,-1.3588,-0.1427,0.2376,0.2262,0.1666,-24.9,16.875,38.175,,adl
8.389581,0.9731,-1.3588,-0.1427,0.2376,0.2262,0.1666,-24.9,16.875,38.175,,adl
8.391152,0.7017,-1.8509,-0.4468,0.2376,0.2262,0.1666,-24.9,16.875,38.175,,adl
8.410792,0.7017,-1.8509,-0.4468,0.2376,0.2262,0.1666,-24.9,16.875,38.175,,adl
8.413441,0.3513,-1.6833,-0.8918,0.2376,0.2262,0.1666,-24.9,16.875,38.175,,adl
8.419817,0.3513,-1.6833,-0.8918,0.2376,0.2262,0.1666,-24.9,16.875,37.65,,adl
8.435506,0.3513,-1.6833,-0.8918,0.2376,0.2262,0.1666,-24.9,16.875,37.65,,adl
8.438469,0.0163,-0.5447,-1.0199,0.2376,0.2262,0.1666,-24.9,16.875,37.65,,adl
8.450477,0.0163,-0.5447,-1.0199,0.2376,0.2262,0.1666,-24.9,16.875,37.65,,adl
8.452374,-0.2817,0.3531,-1.675,0.2376,0.2262,0.1666,-24.9,16.875,37.65,,adl
8.459946,-0.2817,0.3531,-1.675,0.1474,0.1565,0.111,-24.9,16.875,37.65,,adl
8.46987,-0.2817,0.3531,-1.675,0.1474,0.1565,0.111,-24.9,16.875,37.65,,adl
8.471442,-0.6679,1.1149,-2.1332,0.1474,0.1565,0.111,-24.9,16.875,37.65,,adl
8.489507,-0.6679,1.1149,-2.1332,0.1474,0.1565,0.111,-24.9,16.875,37.65,,adl
8.492762,-1.0673,1.3408,-2.1159,0.1474,0.1565,0.111,-24.9,16.875,37.65,,adl
8.495085,-1.0673,1.3408,-2.1159,0.1474,0.1565,0.111,-25.575,17.475,37.05,,adl
8.513742,-1.0673,1.3408,-2.1159,0.1474,0.1565,0.111,-25.575,17.475,37.05,,adl
8.515321,-1.2423,0.8976,-1.829,0.1474,0.1565,0.111,-25.575,17.475,37.05,,adl
8.528236,-1.2423,0.8976,-1.829,-0.0484,0.0044,0.0585,-25.575,17.475,37.05,,adl
8.533127,-1.2423,0.8976,-1.829,-0.0484,0.0044,0.0585,-25.575,17.475,37.05,,adl
8.534697,-1.3378,0.1148,-1.3476,-0.0484,0.0044,0.0585,-25.575,17.475,37.05,,adl
8.548261,-1.3378,0.1148,-1.3476,-0.0484,0.0044,0.0585,-25.575,17.475,37.05,,adl
8.551063,-1.199,-0.5693,-0.8808,-0.0484,0.0044,0.0585,-25.575,17.475,37.05,,adl
8.55299,-1.199,-0.5693,-0.8808,-0.0484,0.0044,0.0585,-25.5,18.6,37.05,,adl
8.567868,-1.199,-0.5693,-0.8808,-0.0484,0.0044,0.0585,-25.5,18.6,37.05,,adl
8.570178,-0.8627,-1.0587,-0.7211,-0.0484,0.0044,0.0585,-25.5,18.6,37.05,,adl
8.589622,-0.8627,-1.0587,-0.7211,-0.0484,0.0044,0.0585,-25.5,18.6,37.05,,adl
8.592346,-0.5547,-0.9163,-0.686,-0.0484,0.0044,0.0585,-25.5,18.6,37.05,,adl
8.596984,-0.5547,-0.9163,-0.686,-0.2117,0.1358,0.1435,-25.5,18.6,37.05,,adl
8.611422,-0.5547,-0.9163,-0.686,-0.2117,0.1358,0.1435,-25.5,18.6,37.05,,adl
8.613702,-0.3678,-0.3432,-0.4914,-0.2117,0.1358,0.1435,-25.5,18.6,37.05,,adl
8.623361,-0.3678,-0.3432,-0.4914,-0.2117,0.1358,0.1435,-26.4,17.775,36.675,,adl
8.630952,-0.3678,-0.3432,-0.4914,-0.2117,0.1358,0.1435,-26.4,17.775,36.675,,adl
8.632909,-0.2626,0.2603,-0.1307,-0.2117,0.1358,0.1435,-26.4,17.775,36.675,,adl
8.651303,-0.2626,0.2603,-0.1307,-0.2117,0.1358,0.1435,-26.4,17.775,36.675,,adl
8.654628,-0.2946,0.742,0.1138,-0.2117,0.1358,0.1435,-26.4,17.775,36.675,,adl
8.665497,-0.2946,0.742,0.1138,-0.1634,0.0531,0.0063,-26.4,17.775,36.675,,adl
8.67092,-0.2946,0.742,0.1138,-0.1634,0.0531,0.0063,-26.4,17.775,36.675,,adl
8.673598,-0.4395,1.1112,0.1521,-0.1634,0.0531,0.0063,-26.4,17.775,36.675,,adl
8.689837,-0.4395,1.1112,0.1521,-0.1634,0.0531,0.0063,-26.4,17.775,36.675,,adl
8.692629,-0.5561,1.2762,0.0389,-0.1634,0.0531,0.0063,-26.4,17.775,36.675,,adl
8.694744,-0.5561,1.2762,0.0389,-0.1634,0.0531,0.0063,-26.325,17.625,36.675,,adl
8.71,-0.5561,1.2762,0.0389,-0.1634,0.0531,0.0063,-26.325,17.625,36.675,,adl
8.7129,-0.614,1.0518,-0.0237,-0.1634,0.0531,0.0063,-26.325,17.625,36.675,,adl
8.73396,-0.614,1.0518,-0.0237,-0.1634,0.0531,0.0063,-26.325,17.625,36.675,,adl
8.736302,-0.5858,0.7007,-0.0223,-0.1634,0.0531,0.0063,-26.325,17.625,36.675,,adl
8.740649,-0.5858,0.7007,-0.0223,-0.1162,0.0692,-0.0994,-26.325,17.625,36.675,,adl
8.748491,-0.5858,0.7007,-0.0223,-0.1162,0.0692,-0.0994,-26.325,17.625,36.675,,adl
8.750524,-0.5867,0.5068,0.0083,-0.1162,0.0692,-0.0994,-26.325,17.625,36.675,,adl
8.763314,-0.5867,0.5068,0.0083,-0.1162,0.0692,-0.0994,-26.175,16.425,36.45,,adl
8.767834,-0.5867,0.5068,0.0083,-0.1162,0.0692,-0.0994,-26.175,16.425,36.45,,adl
8.769739,-0.6241,0.4859,0.0335,-0.1162,0.0692,-0.0994,-26.175,16.425,36.45,,adl
8.789765,-0.6241,0.4859,0.0335,-0.1162,0.0692,-0.0994,-26.175,16.425,36.45,,adl
8.793709,-0.7922,0.6271,0.1035,-0.1162,0.0692,-0.0994,-26.175,16.425,36.45,,adl
8.808331,-0.7922,0.6271,0.1035,-0.1524,0.1109,-0.1361,-26.175,16.425,36.45,,adl
8.812557,-0.7922,0.6271,0.1035,-0.1524,0.1109,-0.1361,-26.175,16.425,36.45,,adl
8.814552,-1.0286,0.709,0.1521,-0.1524,0.1109,-0.1361,-26.175,16.425,36.45,,adl
8.832395,-1.0286,0.709,0.1521,-0.1524,0.1109,-0.1361,-26.175,16.425,36.45,,adl
8.834479,-1.1829,0.6802,0.3198,-0.1524,0.1109,-0.1361,-26.175,16.425,36.45,,adl
8.836058,-1.1829,0.6802,0.3198,-0.1524,0.1109,-0.1361,-27.375,16.275,37.05,,adl
8.851118,-1.1829,0.6802,0.3198,-0.1524,0.1109,-0.1361,-27.375,16.275,37.05,,adl
8.852787,-1.1938,0.6977,0.524,-0.1524,0.1109,-0.1361,-27.375,16.275,37.05,,adl
8.87078,-1.1938,0.6977,0.524,-0.1524,0.1109,-0.1361,-27.375,16.275,37.05,,adl
8.873639,-1.121,0.5107,0.4302,-0.1524,0.1109,-0.1361,-27.375,16.275,37.05,,adl
8.876357,-1.121,0.5107,0.4302,-0.0625,0.1652,-0.1271,-27.375,16.275,37.05,,adl
8.891611,-1.121,0.5107,0.4302,-0.0625,0.1652,-0.1271,-27.375,16.275,37.05,,adl
8.893918,-0.837,0.2159,0.2495,-0.0625,0.1652,-0.1271,-27.375,16.275,37.05,,adl
8.900682,-0.837,0.2159,0.2495,-0.0625,0.1652,-0.1271,-28.425,15.075,37.425,,adl
8.910809,-0.837,0.2159,0.2495,-0.0625,0.1652,-0.1271,-28.425,15.075,37.425,,adl
8.912403,-0.6086,-0.2421,0.0792,-0.0625,0.1652,-0.1271,-28.425,15.075,37.425,,adl
8.929459,-0.6086,-0.2421,0.0792,-0.0625,0.1652,-0.1271,-28.425,15.075,37.425,,adl
8.931081,-0.4915,-0.729,-0.0149,-0.0625,0.1652,-0.1271,-28.425,15.075,37.425,,adl
8.948594,-0.4915,-0.729,-0.0149,0.0706,0.2805,-0.1494,-28.425,15.075,37.425,,adl
8.954174,-0.4915,-0.729,-0.0149,0.0706,0.2805,-0.1494,-28.425,15.075,37.425,,adl
8.956255,-0.3694,-1.1669,0.1329,0.0706,0.2805,-0.1494,-28.425,15.075,37.425,,adl
8.973967,-0.3694,-1.1669,0.1329,0.0706,0.2805,-0.1494,-28.425,15.075,37.425,,adl
8.97636,-0.286,-1.356,0.6967,0.0706,0.2805,-0.1494,-28.425,15.075,37.425,,adl
8.9783,-0.286,-1.356,0.6967,0.0706,0.2805,-0.1494,-29.25,14.7,36.75,,adl
8.99485,-0.286,-1.356,0.6967,0.0706,0.2805,-0.1494,-29.25,14.7,36.75,,adl
8.9971,-0.0071,-1.251,1.448,0.0706,0.2805,-0.1494,-29.25,14.7,36.75,,adl
9.011467,-0.0071,-1.251,1.448,0.0706,0.2805,-0.1494,-29.25,14.7,36.75,,adl
9.014662,0.6788,-2.3947,0.675,0.0706,0.2805,-0.1494,-29.25,14.7,36.75,,adl
9.017169,0.6788,-2.3947,0.675,0.2304,0.5105,-0.2013,-29.25,14.7,36.75,,adl
9.027445,0.6788,-2.3947,0.675,0.2304,0.5105,-0.2013,-29.25,14.7,36.75,,adl
9.029802,-0.2587,-1.8935,-0.5096,0.2304,0.5105,-0.2013,-29.25,14.7,36.75,,adl
9.043591,-0.2587,-1.8935,-0.5096,0.2304,0.5105,-0.2013,-31.125,15.075,35.175,,adl
9.051771,-0.2587,-1.8935,-0.5096,0.2304,0.5105,-0.2013,-31.125,15.075,35.175,,adl
9.053784,-0.3589,-0.9315,-0.2938,0.2304,0.5105,-0.2013,-31.125,15.075,35.175,,adl
9.072222,-0.3589,-0.9315,-0.2938,0.2304,0.5105,-0.2013,-31.125,15.075,35.175,,adl
9.077499,-0.3458,-1.3024,-0.7819,0.2304,0.5105,-0.2013,-31.125,15.075,35.175,,adl
9.085895,-0.3458,-1.3024,-0.7819,0.2512,0.4128,-0.2228,-31.125,15.075,35.175,,adl
9.089071,-0.3458,-1.3024,-0.7819,0.2512,0.4128,-0.2228,-31.125,15.075,35.175,,adl
9.091367,-0.7097,-0.6955,-1.1856,0.2512,0.4128,-0.2228,-31.125,15.075,35.175,,adl
9.108071,-0.7097,-0.6955,-1.1856,0.2512,0.4128,-0.2228,-31.125,15.075,35.175,,adl
9.111229,-0.7158,0.1277,-0.9398,0.2512,0.4128,-0.2228,-31.125,15.075,35.175,,adl
9.113051,-0.7158,0.1277,-0.9398,0.2512,0.4128,-0.2228,-32.85,15.0,33.375,,adl
9.13043,-0.7158,0.1277,-0.9398,0.2512,0.4128,-0.2228,-32.85,15.0,33.375,,adl
9.131858,-0.2815,0.382,-1.1804,0.2512,0.4128,-0.2228,-32.85,15.0,33.375,,adl
9.150012,-0.2815,0.382,-1.1804,0.2512,0.4128,-0.2228,-32.85,15.0,33.375,,adl
9.15132,0.552,0.6535,-1.5671,0.2512,0.4128,-0.2228,-32.85,15.0,33.375,,adl
9.155088,0.552,0.6535,-1.5671,0.1107,0.5117,-0.1353,-32.85,15.0,33.375,,adl
9.169754,0.552,0.6535,-1.5671,0.1107,0.5117,-0.1353,-32.85,15.0,33.375,,adl
9.17182,1.4441,0.9935,-1.7108,0.1107,0.5117,-0.1353,-32.85,15.0,33.375,,adl
9.180424,1.4441,0.9935,-1.7108,0.1107,0.5117,-0.1353,-34.425,15.0,32.55,,adl
9.188745,1.4441,0.9935,-1.7108,0.1107,0.5117,-0.1353,-34.425,15.0,32.55,,adl
9.190468,1.9932,0.9249,-2.0831,0.1107,0.5117,-0.1353,-34.425,15.0,32.55,,adl
9.208214,1.9932,0.9249,-2.0831,0.1107,0.5117,-0.1353,-34.425,15.0,32.55,,adl
9.21122,1.8657,0.3939,-2.1447,0.1107,0.5117,-0.1353,-34.425,15.0,32.55,,adl
9.225576,1.8657,0.3939,-2.1447,-0.0704,0.8106,-0.2535,-34.425,15.0,32.55,,adl
9.229493,1.8657,0.3939,-2.1447,-0.0704,0.8106,-0.2535,-34.425,15.0,32.55,,adl
9.231606,1.1162,-0.5286,-1.695,-0.0704,0.8106,-0.2535,-34.425,15.0,32.55,,adl
9.247722,1.1162,-0.5286,-1.695,-0.0704,0.8106,-0.2535,-34.425,15.0,32.55,,adl
9.250065,0.2738,-1.0433,-1.3207,-0.0704,0.8106,-0.2535,-34.425,15.0,32.55,,adl
9.251694,0.2738,-1.0433,-1.3207,-0.0704,0.8106,-0.2535,-36.225,13.725,31.275,,adl
9.266549,0.2738,-1.0433,-1.3207,-0.0704,0.8106,-0.2535,-36.225,13.725,31.275,,adl
9.268746,-0.2339,-0.7147,-1.0561,-0.0704,0.8106,-0.2535,-36.225,13.725,31.275,,adl
9.286504,-0.2339,-0.7147,-1.0561,-0.0704,0.8106,-0.2535,-36.225,13.725,31.275,,adl
9.288712,-0.154,0.0168,-0.6222,-0.0704,0.8106,-0.2535,-36.225,13.725,31.275,,adl
9.291115,-0.154,0.0168,-0.6222,-0.252,0.7535,-0.2411,-36.225,13.725,31.275,,adl
9.30704,-0.154,0.0168,-0.6222,-0.252,0.7535,-0.2411,-36.225,13.725,31.275,,adl
9.310037,0.1749,0.6943,-0.2173,-0.252,0.7535,-0.2411,-36.225,13.725,31.275,,adl
9.321015,0.1749,0.6943,-0.2173,-0.252,0.7535,-0.2411,-38.7,12.675,29.025,,adl
9.331878,0.1749,0.6943,-0.2173,-0.252,0.7535,-0.2411,-38.7,12.675,29.025,,adl
9.333488,0.3847,1.2348,-0.0238,-0.252,0.7535,-0.2411,-38.7,12.675,29.025,,adl
9.345844,0.3847,1.2348,-0.0238,-0.252,0.7535,-0.2411,-38.7,12.675,29.025,,adl
9.348329,0.4498,1.4925,-0.1406,-0.252,0.7535,-0.2411,-38.7,12.675,29.025,,adl
9.365309,0.4498,1.4925,-0.1406,-0.1745,0.5966,-0.1542,-38.7,12.675,29.025,,adl
9.368501,0.4498,1.4925,-0.1406,-0.1745,0.5966,-0.1542,-38.7,12.675,29.025,,adl
9.370378,0.5008,1.4509,-0.3697,-0.1745,0.5966,-0.1542,-38.7,12.675,29.025,,adl
9.389921,0.5008,1.4509,-0.3697,-0.1745,0.5966,-0.1542,-40.65,11.55,27.075,,adl
9.393176,0.5008,1.4509,-0.3697,-0.1745,0.5966,-0.1542,-40.65,11.55,27.075,,adl
9.39519,0.5566,1.1934,-0.3695,-0.1745,0.5966,-0.1542,-40.65,11.55,27.075,,adl
9.408849,0.5566,1.1934,-0.3695,-0.1745,0.5966,-0.1542,-40.65,11.55,27.075,,adl
9.411569,0.5974,0.855,-0.3864,-0.1745,0.5966,-0.1542,-40.65,11.55,27.075,,adl
9.425387,0.5974,0.855,-0.3864,-0.1745,0.5966,-0.1542,-40.65,11.55,27.075,,adl
9.428458,0.6828,0.6422,-0.4709,-0.1745,0.5966,-0.1542,-40.65,11.55,27.075,,adl
9.433708,0.6828,0.6422,-0.4709,-0.1849,0.4545,-0.0731,-40.65,11.55,27.075,,adl
9.443179,0.6828,0.6422,-0.4709,-0.1849,0.4545,-0.0731,-40.65,11.55,27.075,,adl
9.446127,0.837,0.5674,-0.4927,-0.1849,0.4545,-0.0731,-40.65,11.55,27.075,,adl
9.460536,0.837,0.5674,-0.4927,-0.1849,0.4545,-0.0731,-42.45,11.1,24.825,,adl
9.468612,0.837,0.5674,-0.4927,-0.1849,0.4545,-0.0731,-42.45,11.1,24.825,,adl
9.470112,0.8695,0.4326,-0.249,-0.1849,0.4545,-0.0731,-42.45,11.1,24.825,,adl
9.48847,0.8695,0.4326,-0.249,-0.1849,0.4545,-0.0731,-42.45,11.1,24.825,,adl
9.490476,0.6877,0.4085,0.1568,-0.1849,0.4545,-0.0731,-42.45,11.1,24.825,,adl
9.502756,0.6877,0.4085,0.1568,-0.1403,0.2998,-0.004,-42.45,11.1,24.825,,adl
9.510747,0.6877,0.4085,0.1568,-0.1403,0.2998,-0.004,-42.45,11.1,24.825,,adl
9.512476,0.4334,0.2277,0.3759,-0.1403,0.2998,-0.004,-42.45,11.1,24.825,,adl
9.527506,0.4334,0.2277,0.3759,-0.1403,0.2998,-0.004,-42.45,11.1,24.825,,adl
9.530761,0.3748,0.2448,0.419,-0.1403,0.2998,-0.004,-42.45,11.1,24.825,,adl
9.532588,0.3748,0.2448,0.419,-0.1403,0.2998,-0.004,-42.975,10.2,24.45,,adl
9.545853,0.3748,0.2448,0.419,-0.1403,0.2998,-0.004,-42.975,10.2,24.45,,adl
9.548376,0.4542,0.3616,0.2459,-0.1403,0.2998,-0.004,-42.975,10.2,24.45,,adl
9.56546,0.4542,0.3616,0.2459,-0.1403,0.2998,-0.004,-42.975,10.2,24.45,,adl
9.568161,0.5828,0.3192,0.1059,-0.1403,0.2998,-0.004,-42.975,10.2,24.45,,adl
9.570785,0.5828,0.3192,0.1059,-0.0081,0.2853,0.1304,-42.975,10.2,24.45,,adl
9.589993,0.5828,0.3192,0.1059,-0.0081,0.2853,0.1304,-42.975,10.2,24.45,,adl
9.592172,0.5175,0.2322,0.1119,-0.0081,0.2853,0.1304,-42.975,10.2,24.45,,adl
9.599686,0.5175,0.2322,0.1119,-0.0081,0.2853,0.1304,-44.025,9.9,23.775,,adl
9.609882,0.5175,0.2322,0.1119,-0.0081,0.2853,0.1304,-44.025,9.9,23.775,,adl
9.612416,0.3362,0.0391,0.3095,-0.0081,0.2853,0.1304,-44.025,9.9,23.775,,adl
9.63032,0.3362,0.0391,0.3095,-0.0081,0.2853,0.1304,-44.025,9.9,23.775,,adl
9.633509,0.3888,-0.1928,0.6322,-0.0081,0.2853,0.1304,-44.025,9.9,23.775,,adl
9.644411,0.3888,-0.1928,0.6322,0.031,0.1753,0.2396,-44.025,9.9,23.775,,adl
9.648335,0.3888,-0.1928,0.6322,0.031,0.1753,0.2396,-44.025,9.9,23.775,,adl
9.650092,0.4769,-0.4242,0.8624,0.031,0.1753,0.2396,-44.025,9.9,23.775,,adl
9.667673,0.4769,-0.4242,0.8624,0.031,0.1753,0.2396,-44.025,9.9,23.775,,adl
9.67018,0.5494,-0.616,1.0046,0.031,0.1753,0.2396,-44.025,9.9,23.775,,adl
9.672047,0.5494,-0.616,1.0046,0.031,0.1753,0.2396,-43.425,11.175,21.15,,adl
9.687149,0.5494,-0.616,1.0046,0.031,0.1753,0.2396,-43.425,11.175,21.15,,adl
9.688826,0.3415,-1.6465,0.6056,0.031,0.1753,0.2396,-43.425,11.175,21.15,,adl
9.702255,0.3415,-1.6465,0.6056,0.031,0.1753,0.2396,-43.425,11.175,21.15,,adl
9.704033,0.6814,-3.1829,-0.1843,0.031,0.1753,0.2396,-43.425,11.175,21.15,,adl
9.711414,0.6814,-3.1829,-0.1843,0.2456,0.1533,0.335,-43.425,11.175,21.15,,adl
9.726575,0.6814,-3.1829,-0.1843,0.2456,0.1533,0.335,-43.425,11.175,21.15,,adl
9.728387,1.3076,-2.7572,-0.2616,0.2456,0.1533,0.335,-43.425,11.175,21.15,,adl
9.742783,1.3076,-2.7572,-0.2616,0.2456,0.1533,0.335,-44.25,11.4,19.725,,adl
9.746572,1.3076,-2.7572,-0.2616,0.2456,0.1533,0.335,-44.25,11.4,19.725,,adl
9.747824,1.3363,-2.1279,-0.5089,0.2456,0.1533,0.335,-44.25,11.4,19.725,,adl
9.765639,1.3363,-2.1279,-0.5089,0.2456,0.1533,0.335,-44.25,11.4,19.725,,adl
9.768177,1.1814,-1.2051,-0.7721,0.2456,0.1533,0.335,-44.25,11.4,19.725,,adl
9.780003,1.1814,-1.2051,-0.7721,0.119,0.4349,0.2891,-44.25,11.4,19.725,,adl
9.785409,1.1814,-1.2051,-0.7721,0.119,0.4349,0.2891,-44.25,11.4,19.725,,adl
9.787343,0.7766,0.1351,-0.5748,0.119,0.4349,0.2891,-44.25,11.4,19.725,,adl
9.800212,0.7766,0.1351,-0.5748,0.119,0.4349,0.2891,-44.25,11.4,19.725,,adl
9.802182,0.4768,1.1048,-0.9769,0.119,0.4349,0.2891,-44.25,11.4,19.725,,adl
9.809653,0.4768,1.1048,-0.9769,0.119,0.4349,0.2891,-44.325,12.75,17.925,,adl
9.820403,0.4768,1.1048,-0.9769,0.119,0.4349,0.2891,-44.325,12.75,17.925,,adl
9.821734,0.1757,1.6988,-1.9342,0.119,0.4349,0.2891,-44.325,12.75,17.925,,adl
9.841414,0.1757,1.6988,-1.9342,0.119,0.4349,0.2891,-44.325,12.75,17.925,,adl
9.843438,-0.3623,1.783,-2.277,0.119,0.4349,0.2891,-44.325,12.75,17.925,,adl
9.850153,-0.3623,1.783,-2.277,0.1781,0.3172,0.0647,-44.325,12.75,17.925,,adl
9.864287,-0.3623,1.783,-2.277,0.1781,0.3172,0.0647,-44.325,12.75,17.925,,adl
9.866283,-1.0517,1.0506,-2.1611,0.1781,0.3172,0.0647,-44.325,12.75,17.925,,adl
9.880917,-1.0517,1.0506,-2.1611,0.1781,0.3172,0.0647,-44.85,12.825,16.275,,adl
9.882584,-1.0517,1.0506,-2.1611,0.1781,0.3172,0.0647,-44.85,12.825,16.275,,adl
9.883776,-1.3507,-0.2697,-1.9177,0.1781,0.3172,0.0647,-44.85,12.825,16.275,,adl
9.898492,-1.3507,-0.2697,-1.9177,0.1781,0.3172,0.0647,-44.85,12.825,16.275,,adl
9.90009,-0.9807,-0.9428,-1.4298,0.1781,0.3172,0.0647,-44.85,12.825,16.275,,adl
9.917034,-0.9807,-0.9428,-1.4298,-0.1038,0.4946,0.0583,-44.85,12.825,16.275,,adl
9.920326,-0.9807,-0.9428,-1.4298,-0.1038,0.4946,0.0583,-44.85,12.825,16.275,,adl
9.922532,-0.4619,-1.0773,-1.1987,-0.1038,0.4946,0.0583,-44.85,12.825,16.275,,adl
9.941189,-0.4619,-1.0773,-1.1987,-0.1038,0.4946,0.0583,-44.85,12.825,16.275,,adl
9.944354,-0.0111,-0.8376,-1.2348,-0.1038,0.4946,0.0583,-44.85,12.825,16.275,,adl
9.950053,-0.0111,-0.8376,-1.2348,-0.1038,0.4946,0.0583,-45.375,13.425,14.175,,adl
9.964197,-0.0111,-0.8376,-1.2348,-0.1038,0.4946,0.0583,-45.375,13.425,14.175,,adl
9.966566,0.3098,-0.1324,-1.0186,-0.1038,0.4946,0.0583,-45.375,13.425,14.175,,adl
9.986332,0.3098,-0.1324,-1.0186,-0.1038,0.4946,0.0583,-45.375,13.425,14.175,,adl
9.98853,0.4238,0.4527,-0.5071,-0.1038,0.4946,0.0583,-45.375,13.425,14.175,,adl
9.995274,0.4238,0.4527,-0.5071,-0.1437,0.6509,-0.0568,-45.375,13.425,14.175,,adl
10.005073,0.4238,0.4527,-0.5071,-0.1437,0.6509,-0.0568,-45.375,13.425,14.175,,adl
10.006892,0.3,0.7052,0.0808,-0.1437,0.6509,-0.0568,-45.375,13.425,14.175,,adl
10.020097,0.3,0.7052,0.0808,-0.1437,0.6509,-0.0568,-45.375,13.425,14.175,,adl
10.022229,0.0152,0.778,0.1259,-0.1437,0.6509,-0.0568,-45.375,13.425,14.175,,adl
10.02378,0.0152,0.778,0.1259,-0.1437,0.6509,-0.0568,-45.525,12.675,12.15,,adl
10.040296,0.0152,0.778,0.1259,-0.1437,0.6509,-0.0568,-45.525,12.675,12.15,,adl
10.043357,-0.2444,0.7475,-0.0002,-0.1437,0.6509,-0.0568,-45.525,12.675,12.15,,adl
10.065472,-0.2444,0.7475,-0.0002,0.0231,0.7358,-0.1425,-45.525,12.675,12.15,,adl
10.069871,-0.2444,0.7475,-0.0002,0.0231,0.7358,-0.1425,-45.525,12.675,12.15,,adl
10.0716,-0.2969,0.5257,-0.0597,0.0231,0.7358,-0.1425,-45.525,12.675,12.15,,adl
10.084063,-0.2969,0.5257,-0.0597,0.0231,0.7358,-0.1425,-45.525,12.675,12.15,,adl
10.086468,-0.1189,0.247,-0.043,0.0231,0.7358,-0.1425,-45.525,12.675,12.15,,adl
10.089687,-0.1189,0.247,-0.043,0.0231,0.7358,-0.1425,-45.525,12.3,10.35,,adl
10.103063,-0.1189,0.247,-0.043,0.0231,0.7358,-0.1425,-45.525,12.3,10.35,,adl
10.104857,0.087,0.0411,-0.2229,0.0231,0.7358,-0.1425,-45.525,12.3,10.35,,adl
10.1226,0.087,0.0411,-0.2229,0.0231,0.7358,-0.1425,-45.525,12.3,10.35,,adl
10.125841,0.1777,0.2575,-0.4358,0.0231,0.7358,-0.1425,-45.525,12.3,10.35,,adl
10.128168,0.1777,0.2575,-0.4358,0.1116,0.9329,-0.1495,-45.525,12.3,10.35,,adl
10.146055,0.1777,0.2575,-0.4358,0.1116,0.9329,-0.1495,-45.525,12.3,10.35,,adl
10.148255,-0.0751,0.5175,-0.6152,0.1116,0.9329,-0.1495,-45.525,12.3,10.35,,adl
10.152837,-0.0751,0.5175,-0.6152,0.1116,0.9329,-0.1495,-46.575,11.625,6.225,,adl
10.16188,-0.0751,0.5175,-0.6152,0.1116,0.9329,-0.1495,-46.575,11.625,6.225,,adl
10.163846,-0.4133,0.6999,-0.5713,0.1116,0.9329,-0.1495,-46.575,11.625,6.225,,adl
10.181329,-0.4133,0.6999,-0.5713,0.1116,0.9329,-0.1495,-46.575,11.625,6.225,,adl
10.183864,-0.7694,0.6328,-0.3399,0.1116,0.9329,-0.1495,-46.575,11.625,6.225,,adl
10.196349,-0.7694,0.6328,-0.3399,0.0846,1.0966,-0.2353,-46.575,11.625,6.225,,adl
10.200638,-0.7694,0.6328,-0.3399,0.0846,1.0966,-0.2353,-46.575,11.625,6.225,,adl
10.20228,-0.9648,0.3393,-0.0741,0.0846,1.0966,-0.2353,-46.575,11.625,6.225,,adl
10.220075,-0.9648,0.3393,-0.0741,0.0846,1.0966,-0.2353,-46.575,11.625,6.225,,adl
10.222185,-0.8471,0.1096,0.2562,0.0846,1.0966,-0.2353,-46.575,11.625,6.225,,adl
10.223603,-0.8471,0.1096,0.2562,0.0846,1.0966,-0.2353,-46.2,11.7,2.25,,adl
10.24021,-0.8471,0.1096,0.2562,0.0846,1.0966,-0.2353,-46.2,11.7,2.25,,adl
10.242457,-0.5495,-0.2063,0.513,0.0846,1.0966,-0.2353,-46.2,11.7,2.25,,adl
10.265504,-0.5495,-0.2063,0.513,0.0846,1.0966,-0.2353,-46.2,11.7,2.25,,adl
10.269498,-0.0258,-0.6959,0.2125,0.0846,1.0966,-0.2353,-46.2,11.7,2.25,,adl
10.274001,-0.0258,-0.6959,0.2125,0.1338,1.2202,-0.2298,-46.2,11.7,2.25,,adl
10.289481,-0.0258,-0.6959,0.2125,0.1338,1.2202,-0.2298,-46.2,11.7,2.25,,adl
10.292504,0.2821,-0.7173,-0.0574,0.1338,1.2202,-0.2298,-46.2,11.7,2.25,,adl
10.295245,0.2821,-0.7173,-0.0574,0.1338,1.2202,-0.2298,-45.15,10.8,-2.25,,adl
10.303215,0.2821,-0.7173,-0.0574,0.1338,1.2202,-0.2298,-45.15,10.8,-2.25,,adl
10.305165,0.3127,-0.3028,-0.1967,0.1338,1.2202,-0.2298,-45.15,10.8,-2.25,,adl
10.322869,0.3127,-0.3028,-0.1967,0.1338,1.2202,-0.2298,-45.15,10.8,-2.25,,adl
10.325572,0.0964,0.0658,-0.2976,0.1338,1.2202,-0.2298,-45.15,10.8,-2.25,,adl
10.338897,0.0964,0.0658,-0.2976,0.1909,1.3565,-0.3583,-45.15,10.8,-2.25,,adl
10.343364,0.0964,0.0658,-0.2976,0.1909,1.3565,-0.3583,-45.15,10.8,-2.25,,adl
10.346176,-0.1314,0.161,-0.4365,0.1909,1.3565,-0.3583,-45.15,10.8,-2.25,,adl
10.362978,-0.1314,0.161,-0.4365,0.1909,1.3565,-0.3583,-45.15,10.8,-2.25,,adl
10.366054,-0.3078,0.1953,-0.4632,0.1909,1.3565,-0.3583,-45.15,10.8,-2.25,,adl
10.368656,-0.3078,0.1953,-0.4632,0.1909,1.3565,-0.3583,-45.3,10.125,-6.375,,adl
10.382096,-0.3078,0.1953,-0.4632,0.1909,1.3565,-0.3583,-45.3,10.125,-6.375,,adl
10.384052,-0.0023,-0.2332,0.2858,0.1909,1.3565,-0.3583,-45.3,10.125,-6.375,,adl
10.396632,-0.0023,-0.2332,0.2858,0.1909,1.3565,-0.3583,-45.3,10.125,-6.375,,adl
10.399329,0.4313,-2.3121,-0.6597,0.1909,1.3565,-0.3583,-45.3,10.125,-6.375,,adl
10.412287,0.4313,-2.3121,-0.6597,0.1529,1.6045,-0.4335,-45.3,10.125,-6.375,,adl
10.416186,0.4313,-2.3121,-0.6597,0.1529,1.6045,-0.4335,-45.3,10.125,-6.375,,adl
10.41807,0.2685,-1.5194,-1.2138,0.1529,1.6045,-0.4335,-45.3,10.125,-6.375,,adl
10.431576,0.2685,-1.5194,-1.2138,0.1529,1.6045,-0.4335,-44.475,9.0,-11.625,,adl
10.439984,0.2685,-1.5194,-1.2138,0.1529,1.6045,-0.4335,-44.475,9.0,-11.625,,adl
10.44187,0.4399,-0.6852,-0.8815,0.1529,1.6045,-0.4335,-44.475,9.0,-11.625,,adl
10.462828,0.4399,-0.6852,-0.8815,0.1529,1.6045,-0.4335,-44.475,9.0,-11.625,,adl
10.464639,0.8685,-0.7589,-0.8956,0.1529,1.6045,-0.4335,-44.475,9.0,-11.625,,adl
10.474551,0.8685,-0.7589,-0.8956,-0.1193,1.6627,-0.5951,-44.475,9.0,-11.625,,adl
10.477652,0.8685,-0.7589,-0.8956,-0.1193,1.6627,-0.5951,-44.475,9.0,-11.625,,adl
10.479837,1.0088,-0.1936,-0.7233,-0.1193,1.6627,-0.5951,-44.475,9.0,-11.625,,adl
10.501495,1.0088,-0.1936,-0.7233,-0.1193,1.6627,-0.5951,-44.475,9.0,-11.625,,adl
10.503357,1.081,0.1821,-1.1423,-0.1193,1.6627,-0.5951,-44.475,9.0,-11.625,,adl
10.504765,1.081,0.1821,-1.1423,-0.1193,1.6627,-0.5951,-43.05,7.5,-16.05,,adl
10.523866,1.081,0.1821,-1.1423,-0.1193,1.6627,-0.5951,-43.05,7.5,-16.05,,adl
10.525802,0.7487,0.0958,-1.7043,-0.1193,1.6627,-0.5951,-43.05,7.5,-16.05,,adl
10.543031,0.7487,0.0958,-1.7043,-0.1193,1.6627,-0.5951,-43.05,7.5,-16.05,,adl
10.544581,0.5008,0.0635,-1.9739,-0.1193,1.6627,-0.5951,-43.05,7.5,-16.05,,adl
10.549194,0.5008,0.0635,-1.9739,-0.1732,1.7542,-0.5343,-43.05,7.5,-16.05,,adl
10.563501,0.5008,0.0635,-1.9739,-0.1732,1.7542,-0.5343,-43.05,7.5,-16.05,,adl
10.567878,0.3793,0.3015,-1.8616,-0.1732,1.7542,-0.5343,-43.05,7.5,-16.05,,adl
10.581625,0.3793,0.3015,-1.8616,-0.1732,1.7542,-0.5343,-40.8,5.925,-21.15,,adl
10.584436,0.3793,0.3015,-1.8616,-0.1732,1.7542,-0.5343,-40.8,5.925,-21.15,,adl
10.586455,0.4151,0.4158,-1.5364,-0.1732,1.7542,-0.5343,-40.8,5.925,-21.15,,adl
10.602235,0.4151,0.4158,-1.5364,-0.1732,1.7542,-0.5343,-40.8,5.925,-21.15,,adl
10.604567,0.6103,0.3482,-1.1591,-0.1732,1.7542,-0.5343,-40.8,5.925,-21.15,,adl
10.616649,0.6103,0.3482,-1.1591,-0.4311,1.7392,-0.4187,-40.8,5.925,-21.15,,adl
10.622717,0.6103,0.3482,-1.1591,-0.4311,1.7392,-0.4187,-40.8,5.925,-21.15,,adl
10.624091,0.845,0.3366,-0.8629,-0.4311,1.7392,-0.4187,-40.8,5.925,-21.15,,adl
10.641042,0.845,0.3366,-0.8629,-0.4311,1.7392,-0.4187,-40.8,5.925,-21.15,,adl
10.643218,0.9978,0.3744,-0.8042,-0.4311,1.7392,-0.4187,-40.8,5.925,-21.15,,adl
10.644696,0.9978,0.3744,-0.8042,-0.4311,1.7392,-0.4187,-38.7,6.15,-26.25,,adl
10.661308,0.9978,0.3744,-0.8042,-0.4311,1.7392,-0.4187,-38.7,6.15,-26.25,,adl
10.662827,1.0564,0.4459,-0.8389,-0.4311,1.7392,-0.4187,-38.7,6.15,-26.25,,adl
10.68046,1.0564,0.4459,-0.8389,-0.4311,1.7392,-0.4187,-38.7,6.15,-26.25,,adl
10.681709,1.2517,0.5105,-0.8244,-0.4311,1.7392,-0.4187,-38.7,6.15,-26.25,,adl
10.685591,1.2517,0.5105,-0.8244,-0.389,1.7947,-0.3764,-38.7,6.15,-26.25,,adl
10.701765,1.2517,0.5105,-0.8244,-0.389,1.7947,-0.3764,-38.7,6.15,-26.25,,adl
10.70307,1.4932,0.4373,-0.7894,-0.389,1.7947,-0.3764,-38.7,6.15,-26.25,,adl
10.712511,1.4932,0.4373,-0.7894,-0.389,1.7947,-0.3764,-34.725,4.875,-30.75,,adl
10.720942,1.4932,0.4373,-0.7894,-0.389,1.7947,-0.3764,-34.725,4.875,-30.75,,adl
10.722075,1.5433,0.3808,-0.6118,-0.389,1.7947,-0.3764,-34.725,4.875,-30.75,,adl
10.739365,1.5433,0.3808,-0.6118,-0.389,1.7947,-0.3764,-34.725,4.875,-30.75,,adl
10.740594,1.4679,0.2102,-0.549,-0.389,1.7947,-0.3764,-34.725,4.875,-30.75,,adl
10.75537,1.4679,0.2102,-0.549,-0.4126,1.9083,-0.3654,-34.725,4.875,-30.75,,adl
10.760251,1.4679,0.2102,-0.549,-0.4126,1.9083,-0.3654,-34.725,4.875,-30.75,,adl
10.76212,1.2334,0.0105,-0.8277,-0.4126,1.9083,-0.3654,-34.725,4.875,-30.75,,adl
10.780557,1.2334,0.0105,-0.8277,-0.4126,1.9083,-0.3654,-34.725,4.875,-30.75,,adl
10.782753,0.8538,0.0218,-1.0989,-0.4126,1.9083,-0.3654,-34.725,4.875,-30.75,,adl
10.784305,0.8538,0.0218,-1.0989,-0.4126,1.9083,-0.3654,-30.825,5.55,-34.95,,adl
10.798017,0.8538,0.0218,-1.0989,-0.4126,1.9083,-0.3654,-30.825,5.55,-34.95,,adl
10.801985,0.7231,-0.0478,-0.9178,-0.4126,1.9083,-0.3654,-30.825,5.55,-34.95,,adl
10.817437,0.7231,-0.0478,-0.9178,-0.4126,1.9083,-0.3654,-30.825,5.55,-34.95,,adl
10.819762,0.7816,0.1783,0.0793,-0.4126,1.9083,-0.3654,-30.825,5.55,-34.95,,adl
10.82223,0.7816,0.1783,0.0793,-0.6683,1.9481,-0.3462,-30.825,5.55,-34.95,,adl
10.836575,0.7816,0.1783,0.0793,-0.6683,1.9481,-0.3462,-30.825,5.55,-34.95,,adl
10.83835,0.8849,0.4802,0.9471,-0.6683,1.9481,-0.3462,-30.825,5.55,-34.95,,adl
10.850254,0.8849,0.4802,0.9471,-0.6683,1.9481,-0.3462,-26.625,6.975,-37.95,,adl
10.858042,0.8849,0.4802,0.9471,-0.6683,1.9481,-0.3462,-26.625,6.975,-37.95,,adl
10.861514,1.0492,0.6166,0.8229,-0.6683,1.9481,-0.3462,-26.625,6.975,-37.95,,adl
10.876381,1.0492,0.6166,0.8229,-0.6683,1.9481,-0.3462,-26.625,6.975,-37.95,,adl
10.879848,1.2082,0.5229,0.1077,-0.6683,1.9481,-0.3462,-26.625,6.975,-37.95,,adl
10.895087,1.2082,0.5229,0.1077,-0.3561,2.114,-0.2162,-26.625,6.975,-37.95,,adl
10.900104,1.2082,0.5229,0.1077,-0.3561,2.114,-0.2162,-26.625,6.975,-37.95,,adl
10.901812,1.1835,0.1889,-0.3999,-0.3561,2.114,-0.2162,-26.625,6.975,-37.95,,adl
10.919571,1.1835,0.1889,-0.3999,-0.3561,2.114,-0.2162,-26.625,6.975,-37.95,,adl
10.921579,0.9857,0.0621,-0.4127,-0.3561,2.114,-0.2162,-26.625,6.975,-37.95,,adl
10.923185,0.9857,0.0621,-0.4127,-0.3561,2.114,-0.2162,-20.625,8.475,-40.425,,adl
10.938986,0.9857,0.0621,-0.4127,-0.3561,2.114,-0.2162,-20.625,8.475,-40.425,,adl
10.941604,0.7611,0.0468,-0.2263,-0.3561,2.114,-0.2162,-20.625,8.475,-40.425,,adl
10.961956,0.7611,0.0468,-0.2263,-0.3561,2.114,-0.2162,-20.625,8.475,-40.425,,adl
10.96593,0.6696,0.0874,-0.1751,-0.3561,2.114,-0.2162,-20.625,8.475,-40.425,,adl
10.968378,0.6696,0.0874,-0.1751,-0.2521,2.2395,-0.082,-20.625,8.475,-40.425,,adl
10.979,0.6696,0.0874,-0.1751,-0.2521,2.2395,-0.082,-20.625,8.475,-40.425,,adl
10.982087,0.5961,0.1956,-0.1485,-0.2521,2.2395,-0.082,-20.625,8.475,-40.425,,adl
10.995921,0.5961,0.1956,-0.1485,-0.2521,2.2395,-0.082,-14.7,8.925,-43.35,,adl
11.000069,0.5961,0.1956,-0.1485,-0.2521,2.2395,-0.082,-14.7,8.925,-43.35,,adl
11.002104,0.4864,0.3052,-0.2677,-0.2521,2.2395,-0.082,-14.7,8.925,-43.35,,adl
11.017969,0.4864,0.3052,-0.2677,-0.2521,2.2395,-0.082,-14.7,8.925,-43.35,,adl
11.020113,0.382,0.2398,-0.3222,-0.2521,2.2395,-0.082,-14.7,8.925,-43.35,,adl
11.03198,0.382,0.2398,-0.3222,-0.2126,2.0944,-0.0069,-14.7,8.925,-43.35,,adl
11.037163,0.382,0.2398,-0.3222,-0.2126,2.0944,-0.0069,-14.7,8.925,-43.35,,adl
11.03875,0.3312,0.1638,-0.2296,-0.2126,2.0944,-0.0069,-14.7,8.925,-43.35,,adl
11.056526,0.3312,0.1638,-0.2296,-0.2126,2.0944,-0.0069,-14.7,8.925,-43.35,,adl
11.059567,0.2735,0.2265,-0.3047,-0.2126,2.0944,-0.0069,-14.7,8.925,-43.35,,adl
11.062303,0.2735,0.2265,-0.3047,-0.2126,2.0944,-0.0069,-8.25,9.975,-45.375,,adl
11.076818,0.2735,0.2265,-0.3047,-0.2126,2.0944,-0.0069,-8.25,9.975,-45.375,,adl
11.080247,0.189,0.3595,-0.1821,-0.2126,2.0944,-0.0069,-8.25,9.975,-45.375,,adl
11.096277,0.189,0.3595,-0.1821,-0.2126,2.0944,-0.0069,-8.25,9.975,-45.375,,adl
11.09935,0.0871,0.2966,0.1453,-0.2126,2.0944,-0.0069,-8.25,9.975,-45.375,,adl
11.10222,0.0871,0.2966,0.1453,-0.2642,1.7832,0.1457,-8.25,9.975,-45.375,,adl
11.115292,0.0871,0.2966,0.1453,-0.2642,1.7832,0.1457,-8.25,9.975,-45.375,,adl
11.11692,-0.0265,-0.0192,0.3082,-0.2642,1.7832,0.1457,-8.25,9.975,-45.375,,adl
11.129921,-0.0265,-0.0192,0.3082,-0.2642,1.7832,0.1457,-3.075,11.1,-45.15,,adl
11.14095,-0.0265,-0.0192,0.3082,-0.2642,1.7832,0.1457,-3.075,11.1,-45.15,,adl
11.143556,-0.2351,-0.2066,0.2558,-0.2642,1.7832,0.1457,-3.075,11.1,-45.15,,adl
11.159958,-0.2351,-0.2066,0.2558,-0.2642,1.7832,0.1457,-3.075,11.1,-45.15,,adl
11.162477,-0.0779,-0.3862,0.2037,-0.2642,1.7832,0.1457,-3.075,11.1,-45.15,,adl
11.17763,-0.0779,-0.3862,0.2037,-0.2323,1.518,0.3105,-3.075,11.1,-45.15,,adl
11.181642,-0.0779,-0.3862,0.2037,-0.2323,1.518,0.3105,-3.075,11.1,-45.15,,adl
11.183692,0.1278,-0.6771,0.2841,-0.2323,1.518,0.3105,-3.075,11.1,-45.15,,adl
11.198502,0.1278,-0.6771,0.2841,-0.2323,1.518,0.3105,-3.075,11.1,-45.15,,adl
11.200439,0.6315,-1.119,0.5464,-0.2323,1.518,0.3105,-3.075,11.1,-45.15,,adl
11.202339,0.6315,-1.119,0.5464,-0.2323,1.518,0.3105,1.5,12.0,-45.375,,adl
11.214484,0.6315,-1.119,0.5464,-0.2323,1.518,0.3105,1.5,12.0,-45.375,,adl
11.216316,1.3767,-1.5976,0.4292,-0.2323,1.518,0.3105,1.5,12.0,-45.375,,adl
11.234026,1.3767,-1.5976,0.4292,-0.2323,1.518,0.3105,1.5,12.0,-45.375,,adl
11.236119,1.6735,-1.3927,0.1808,-0.2323,1.518,0.3105,1.5,12.0,-45.375,,adl
11.242697,1.6735,-1.3927,0.1808,-0.0996,1.5221,0.2714,1.5,12.0,-45.375,,adl
11.258607,1.6735,-1.3927,0.1808,-0.0996,1.5221,0.2714,1.5,12.0,-45.375,,adl
11.261439,1.4764,-0.8767,0.1423,-0.0996,1.5221,0.2714,1.5,12.0,-45.375,,adl
11.270267,1.4764,-0.8767,0.1423,-0.0996,1.5221,0.2714,6.15,12.3,-44.25,,adl
11.272089,1.4764,-0.8767,0.1423,-0.0996,1.5221,0.2714,6.15,12.3,-44.25,,adl
11.273573,0.8016,-0.3079,-0.0385,-0.0996,1.5221,0.2714,6.15,12.3,-44.25,,adl
11.292444,0.8016,-0.3079,-0.0385,-0.0996,1.5221,0.2714,6.15,12.3,-44.25,,adl
11.295198,0.1039,0.2113,-0.4255,-0.0996,1.5221,0.2714,6.15,12.3,-44.25,,adl
11.311754,0.1039,0.2113,-0.4255,0.188,1.2438,-0.013,6.15,12.3,-44.25,,adl
11.316944,0.1039,0.2113,-0.4255,0.188,1.2438,-0.013,6.15,12.3,-44.25,,adl
11.318357,-0.3595,0.5693,-0.9391,0.188,1.2438,-0.013,6.15,12.3,-44.25,,adl
11.336909,-0.3595,0.5693,-0.9391,0.188,1.2438,-0.013,6.15,12.3,-44.25,,adl
11.338749,-0.5979,0.696,-1.43,0.188,1.2438,-0.013,6.15,12.3,-44.25,,adl
11.342987,-0.5979,0.696,-1.43,0.188,1.2438,-0.013,10.2,11.925,-43.05,,adl
11.356143,-0.5979,0.696,-1.43,0.188,1.2438,-0.013,10.2,11.925,-43.05,,adl
11.35775,-0.7442,0.5052,-1.8693,0.188,1.2438,-0.013,10.2,11.925,-43.05,,adl
11.377908,-0.7442,0.5052,-1.8693,0.188,1.2438,-0.013,10.2,11.925,-43.05,,adl
11.383646,-0.9002,0.1942,-2.018,0.188,1.2438,-0.013,10.2,11.925,-43.05,,adl
11.38837,-0.9002,0.1942,-2.018,0.2657,0.9911,-0.1135,10.2,11.925,-43.05,,adl
11.400386,-0.9002,0.1942,-2.018,0.2657,0.9911,-0.1135,10.2,11.925,-43.05,,adl
11.405402,-1.0434,0.1005,-1.9757,0.2657,0.9911,-0.1135,10.2,11.925,-43.05,,adl
11.410467,-1.0434,0.1005,-1.9757,0.2657,0.9911,-0.1135,12.975,11.925,-42.15,,adl
11.419734,-1.0434,0.1005,-1.9757,0.2657,0.9911,-0.1135,12.975,11.925,-42.15,,adl
11.422669,-1.0035,0.1986,-1.8235,0.2657,0.9911,-0.1135,12.975,11.925,-42.15,,adl
11.438522,-1.0035,0.1986,-1.8235,0.2657,0.9911,-0.1135,12.975,11.925,-42.15,,adl
11.441837,-0.8633,0.1243,-1.5276,0.2657,0.9911,-0.1135,12.975,11.925,-42.15,,adl
11.454046,-0.8633,0.1243,-1.5276,0.0593,0.9294,-0.106,12.975,11.925,-42.15,,adl
11.45901,-0.8633,0.1243,-1.5276,0.0593,0.9294,-0.106,12.975,11.925,-42.15,,adl
11.461826,-0.6357,-0.1283,-1.0046,0.0593,0.9294,-0.106,12.975,11.925,-42.15,,adl
11.482299,-0.6357,-0.1283,-1.0046,0.0593,0.9294,-0.106,12.975,11.925,-42.15,,adl
11.485755,-0.4724,-0.6144,-0.564,0.0593,0.9294,-0.106,12.975,11.925,-42.15,,adl
11.489083,-0.4724,-0.6144,-0.564,0.0593,0.9294,-0.106,15.45,11.625,-41.175,,adl
11.49791,-0.4724,-0.6144,-0.564,0.0593,0.9294,-0.106,15.45,11.625,-41.175,,adl
11.500742,-0.4255,-0.8591,-0.5341,0.0593,0.9294,-0.106,15.45,11.625,-41.175,,adl
11.51599,-0.4255,-0.8591,-0.5341,0.0593,0.9294,-0.106,15.45,11.625,-41.175,,adl
11.51787,-0.4696,-0.5396,-0.6794,0.0593,0.9294,-0.106,15.45,11.625,-41.175,,adl
11.520745,-0.4696,-0.5396,-0.6794,0.0363,1.0004,-0.0466,15.45,11.625,-41.175,,adl
11.535589,-0.4696,-0.5396,-0.6794,0.0363,1.0004,-0.0466,15.45,11.625,-41.175,,adl
11.538154,-0.6549,-0.052,-0.6299,0.0363,1.0004,-0.0466,15.45,11.625,-41.175,,adl
11.553899,-0.6549,-0.052,-0.6299,0.0363,1.0004,-0.0466,18.15,11.475,-40.125,,adl
11.556584,-0.6549,-0.052,-0.6299,0.0363,1.0004,-0.0466,18.15,11.475,-40.125,,adl
11.558041,-0.891,0.3798,-0.3825,0.0363,1.0004,-0.0466,18.15,11.475,-40.125,,adl
11.57909,-0.891,0.3798,-0.3825,0.0363,1.0004,-0.0466,18.15,11.475,-40.125,,adl
11.581989,-0.9956,0.7096,-0.1066,0.0363,1.0004,-0.0466,18.15,11.475,-40.125,,adl
11.591177,-0.9956,0.7096,-0.1066,0.0363,1.0004,-0.0466,18.15,11.475,-40.125,,adl
11.594365,-0.9894,0.8537,-0.031,0.0363,1.0004,-0.0466,18.15,11.475,-40.125,,adl
11.596584,-0.9894,0.8537,-0.031,-0.0745,0.8903,-0.0043,18.15,11.475,-40.125,,adl
11.614983,-0.9894,0.8537,-0.031,-0.0745,0.8903,-0.0043,18.15,11.475,-40.125,,adl
11.616697,-0.9732,0.896,-0.0779,-0.0745,0.8903,-0.0043,18.15,11.475,-40.125,,adl
11.61941,-0.9732,0.896,-0.0779,-0.0745,0.8903,-0.0043,20.25,11.55,-38.55,,adl
11.634171,-0.9732,0.896,-0.0779,-0.0745,0.8903,-0.0043,20.25,11.55,-38.55,,adl
11.637109,-0.9185,0.8639,-0.0593,-0.0745,0.8903,-0.0043,20.25,11.55,-38.55,,adl
11.654555,-0.9185,0.8639,-0.0593,-0.0745,0.8903,-0.0043,20.25,11.55,-38.55,,adl
11.659456,-0.7276,0.6289,0.0667,-0.0745,0.8903,-0.0043,20.25,11.55,-38.55,,adl
11.66361,-0.7276,0.6289,0.0667,-0.102,0.7558,0.0208,20.25,11.55,-38.55,,adl
11.68302,-0.7276,0.6289,0.0667,-0.102,0.7558,0.0208,20.25,11.55,-38.55,,adl
11.687016,-0.5832,0.3329,0.0792,-0.102,0.7558,0.0208,20.25,11.55,-38.55,,adl
11.694299,-0.5832,0.3329,0.0792,-0.102,0.7558,0.0208,22.95,11.775,-37.35,,adl
11.697809,-0.5832,0.3329,0.0792,-0.102,0.7558,0.0208,22.95,11.775,-37.35,,adl
11.700034,-0.4353,0.1707,0.2633,-0.102,0.7558,0.0208,22.95,11.775,-37.35,,adl
11.712288,-0.4353,0.1707,0.2633,-0.102,0.7558,0.0208,22.95,11.775,-37.35,,adl
11.716083,-0.3857,0.0556,0.5226,-0.102,0.7558,0.0208,22.95,11.775,-37.35,,adl
11.726834,-0.3857,0.0556,0.5226,-0.0826,0.618,0.0002,22.95,11.775,-37.35,,adl
11.731344,-0.3857,0.0556,0.5226,-0.0826,0.618,0.0002,22.95,11.775,-37.35,,adl
11.732877,-0.4242,0.0152,0.6395,-0.0826,0.618,0.0002,22.95,11.775,-37.35,,adl
11.751216,-0.4242,0.0152,0.6395,-0.0826,0.618,0.0002,22.95,11.775,-37.35,,adl
11.754076,-0.4891,0.136,0.6762,-0.0826,0.618,0.0002,22.95,11.775,-37.35,,adl
11.759667,-0.4891,0.136,0.6762,-0.0826,0.618,0.0002,23.1,12.15,-36.15,,adl
11.775999,-0.4891,0.136,0.6762,-0.0826,0.618,0.0002,23.1,12.15,-36.15,,adl
11.779363,-0.5879,0.1914,0.5744,-0.0826,0.618,0.0002,23.1,12.15,-36.15,,adl
11.795592,-0.5879,0.1914,0.5744,-0.0826,0.618,0.0002,23.1,12.15,-36.15,,adl
11.799163,-0.5733,0.3757,0.1948,-0.0826,0.618,0.0002,23.1,12.15,-36.15,,adl
11.801138,-0.5733,0.3757,0.1948,0.0392,0.5664,-0.0576,23.1,12.15,-36.15,,adl
11.81494,-0.5733,0.3757,0.1948,0.0392,0.5664,-0.0576,23.1,12.15,-36.15,,adl
11.818086,-0.5976,0.4928,0.1016,0.0392,0.5664,-0.0576,23.1,12.15,-36.15,,adl
11.824771,-0.5976,0.4928,0.1016,0.0392,0.5664,-0.0576,24.3,11.85,-35.25,,adl
11.833948,-0.5976,0.4928,0.1016,0.0392,0.5664,-0.0576,24.3,11.85,-35.25,,adl
11.835427,-0.6014,0.2539,-0.0916,0.0392,0.5664,-0.0576,24.3,11.85,-35.25,,adl
11.854563,-0.6014,0.2539,-0.0916,0.0392,0.5664,-0.0576,24.3,11.85,-35.25,,adl
11.859173,-0.6632,-0.0157,-0.2208,0.0392,0.5664,-0.0576,24.3,11.85,-35.25,,adl
11.868838,-0.6632,-0.0157,-0.2208,0.1513,0.4887,-0.1242,24.3,11.85,-35.25,,adl
11.877536,-0.6632,-0.0157,-0.2208,0.1513,0.4887,-0.1242,24.3,11.85,-35.25,,adl
11.879503,-0.8455,-0.3132,-0.2066,0.1513,0.4887,-0.1242,24.3,11.85,-35.25,,adl
11.890647,-0.8455,-0.3132,-0.2066,0.1513,0.4887,-0.1242,24.3,11.85,-35.25,,adl
11.892791,-0.9903,-0.6039,0.2141,0.1513,0.4887,-0.1242,24.3,11.85,-35.25,,adl
11.894787,-0.9903,-0.6039,0.2141,0.1513,0.4887,-0.1242,24.45,12.525,-34.575,,adl
11.9125,-0.9903,-0.6039,0.2141,0.1513,0.4887,-0.1242,24.45,12.525,-34.575,,adl
11.914533,-0.9775,-0.9791,0.8577,0.1513,0.4887,-0.1242,24.45,12.525,-34.575,,adl
11.932181,-0.9775,-0.9791,0.8577,0.1513,0.4887,-0.1242,24.45,12.525,-34.575,,adl
11.935347,-0.6116,-1.5089,1.0609,0.1513,0.4887,-0.1242,24.45,12.525,-34.575,,adl
11.937514,-0.6116,-1.5089,1.0609,0.2008,0.4792,-0.1019,24.45,12.525,-34.575,,adl
11.946953,-0.6116,-1.5089,1.0609,0.2008,0.4792,-0.1019,24.45,12.525,-34.575,,adl
11.948932,-0.1265,-2.6873,0.1226,0.2008,0.4792,-0.1019,24.45,12.525,-34.575,,adl
11.962529,-0.1265,-2.6873,0.1226,0.2008,0.4792,-0.1019,26.025,11.85,-33.45,,adl
11.967443,-0.1265,-2.6873,0.1226,0.2008,0.4792,-0.1019,26.025,11.85,-33.45,,adl
11.968613,-0.3142,-1.3431,-0.2763,0.2008,0.4792,-0.1019,26.025,11.85,-33.45,,adl
11.989553,-0.3142,-1.3431,-0.2763,0.2008,0.4792,-0.1019,26.025,11.85,-33.45,,adl
11.991445,0.2205,-1.1463,-0.6324,0.2008,0.4792,-0.1019,26.025,11.85,-33.45,,adl
12.011881,0.2205,-1.1463,-0.6324,0.3453,0.4589,-0.1509,26.025,11.85,-33.45,,adl
12.014297,0.2205,-1.1463,-0.6324,0.3453,0.4589,-0.1509,26.025,11.85,-33.45,,adl
12.015703,0.0815,-1.3086,-1.0468,0.3453,0.4589,-0.1509,26.025,11.85,-33.45,,adl
12.027735,0.0815,-1.3086,-1.0468,0.3453,0.4589,-0.1509,26.025,11.85,-33.45,,adl
12.031224,-0.3627,-0.3206,-0.8469,0.3453,0.4589,-0.1509,26.025,11.85,-33.45,,adl
12.035411,-0.3627,-0.3206,-0.8469,0.3453,0.4589,-0.1509,26.4,11.175,-32.925,,adl
