time,gFx,gFy,gFz,ax,ay,az,wx,wy,wz,Bx,By,Bz,Unnamed: 13,label
0.026127,0.0,0.0,0.0,0.0652,0.1673,-0.2948,0.0,0.0,0.0,0.0,0.0,0.0,,adl
0.034589,-0.025,-0.0959,0.9574,0.0652,0.1673,-0.2948,0.0,0.0,0.0,0.0,0.0,0.0,,adl
0.044932,-0.025,-0.0959,0.9574,0.2728,0.071,-0.5651,0.0,0.0,0.0,0.0,0.0,0.0,,adl
0.06261,-0.025,-0.0959,0.9574,0.2728,0.071,-0.5651,0.0,0.0,0.0,2.175,-43.3125,-12.0563,,adl
0.064729,-0.025,-0.0959,0.9574,0.2729,0.0472,-0.4986,0.0,0.0,0.0,2.175,-43.3125,-12.0563,,adl
0.068203,-0.025,-0.0959,0.9574,0.2729,0.0472,-0.4986,-0.1041,-0.1609,0.0293,2.175,-43.3125,-12.0563,,adl
0.083722,-0.0028,-0.0933,0.9848,0.2729,0.0472,-0.4986,-0.1041,-0.1609,0.0293,2.175,-43.3125,-12.0563,,adl
0.085171,-0.0028,-0.0933,0.9848,0.2761,0.1776,-0.0825,-0.1041,-0.1609,0.0293,2.175,-43.3125,-12.0563,,adl
0.102243,-0.0028,-0.0933,0.9848,0.3682,0.0678,0.4932,-0.1041,-0.1609,0.0293,2.175,-43.3125,-12.0563,,adl
0.122102,-0.0028,-0.0933,0.9848,0.2576,0.0131,0.6255,-0.1041,-0.1609,0.0293,2.175,-43.3125,-12.0563,,adl
0.126374,-0.0028,-0.0933,0.9848,0.2576,0.0131,0.6255,-0.1041,-0.1609,0.0293,2.2688,-43.2,-12.5625,,adl
0.132656,-0.0059,-0.1169,1.0537,0.2576,0.0131,0.6255,-0.1041,-0.1609,0.0293,2.2688,-43.2,-12.5625,,adl
0.133758,-0.0059,-0.1169,1.0537,0.2576,0.0131,0.6255,-0.0784,0.0041,0.0012,2.2688,-43.2,-12.5625,,adl
0.140203,-0.0059,-0.1169,1.0537,0.1756,-0.0201,0.5599,-0.0784,0.0041,0.0012,2.2688,-43.2,-12.5625,,adl
0.15921,-0.0059,-0.1169,1.0537,0.0807,-0.0607,0.3522,-0.0784,0.0041,0.0012,2.2688,-43.2,-12.5625,,adl
0.17917,-0.0282,-0.1277,1.0125,0.0807,-0.0607,0.3522,-0.0784,0.0041,0.0012,2.2688,-43.2,-12.5625,,adl
0.184842,-0.0282,-0.1277,1.0125,0.0224,-0.0804,0.1971,-0.0784,0.0041,0.0012,2.2688,-43.2,-12.5625,,adl
0.187969,-0.0282,-0.1277,1.0125,0.0224,-0.0804,0.1971,-0.0784,0.0041,0.0012,2.3438,-42.6,-12.5625,,adl
0.191603,-0.0282,-0.1277,1.0125,0.0224,-0.0804,0.1971,0.0352,0.1434,0.006,2.3438,-42.6,-12.5625,,adl
0.198081,-0.0282,-0.1277,1.0125,-0.1001,-0.0657,0.152,0.0352,0.1434,0.006,2.3438,-42.6,-12.5625,,adl
0.218088,-0.0282,-0.1277,1.0125,-0.2524,-0.0371,0.0514,0.0352,0.1434,0.006,2.3438,-42.6,-12.5625,,adl
0.225847,-0.0648,-0.1204,0.9897,-0.2524,-0.0371,0.0514,0.0352,0.1434,0.006,2.3438,-42.6,-12.5625,,adl
0.237953,-0.0648,-0.1204,0.9897,-0.2744,-0.0579,-0.1192,0.0352,0.1434,0.006,2.3438,-42.6,-12.5625,,adl
0.244727,-0.0648,-0.1204,0.9897,-0.2744,-0.0579,-0.1192,0.0352,0.1434,0.006,2.25,-42.6188,-12.2438,,adl
0.254174,-0.0648,-0.1204,0.9897,-0.2744,-0.0579,-0.1192,0.045,-0.0203,0.0513,2.25,-42.6188,-12.2438,,adl
0.255726,-0.0648,-0.1204,0.9897,-0.2215,0.0079,-0.1392,0.045,-0.0203,0.0513,2.25,-42.6188,-12.2438,,adl
0.273615,-0.0448,-0.1157,0.9956,-0.2215,0.0079,-0.1392,0.045,-0.0203,0.0513,2.25,-42.6188,-12.2438,,adl
0.27513,-0.0448,-0.1157,0.9956,-0.0771,0.0026,0.03,0.045,-0.0203,0.0513,2.25,-42.6188,-12.2438,,adl
0.294203,-0.0448,-0.1157,0.9956,0.0892,0.0045,-0.0522,0.045,-0.0203,0.0513,2.25,-42.6188,-12.2438,,adl
0.303678,-0.0448,-0.1157,0.9956,0.0892,0.0045,-0.0522,0.045,-0.0203,0.0513,2.175,-43.1813,-12.5625,,adl
0.312423,-0.0448,-0.1157,0.9956,0.2225,0.0309,-0.0457,0.045,-0.0203,0.0513,2.175,-43.1813,-12.5625,,adl
0.31732,-0.0448,-0.1157,0.9956,0.2225,0.0309,-0.0457,0.0071,-0.0289,0.066,2.175,-43.1813,-12.5625,,adl
0.321383,-0.0084,-0.1094,0.9944,0.2225,0.0309,-0.0457,0.0071,-0.0289,0.066,2.175,-43.1813,-12.5625,,adl
0.332088,-0.0084,-0.1094,0.9944,0.2319,0.0914,0.0975,0.0071,-0.0289,0.066,2.175,-43.1813,-12.5625,,adl
0.35138,-0.0084,-0.1094,0.9944,0.216,0.0785,0.1662,0.0071,-0.0289,0.066,2.175,-43.1813,-12.5625,,adl
0.364086,-0.0084,-0.1094,0.9944,0.216,0.0785,0.1662,0.0071,-0.0289,0.066,2.0813,-43.1063,-12.15,,adl
0.369718,-0.0096,-0.1038,0.9926,0.216,0.0785,0.1662,0.0071,-0.0289,0.066,2.0813,-43.1063,-12.15,,adl
0.373062,-0.0096,-0.1038,0.9926,0.2169,0.1014,-0.0026,0.0071,-0.0289,0.066,2.0813,-43.1063,-12.15,,adl
0.378191,-0.0096,-0.1038,0.9926,0.2169,0.1014,-0.0026,0.0426,0.0004,0.033,2.0813,-43.1063,-12.15,,adl
0.388858,-0.0096,-0.1038,0.9926,0.2222,0.1111,-0.0564,0.0426,0.0004,0.033,2.0813,-43.1063,-12.15,,adl
0.409475,-0.0096,-0.1038,0.9926,0.2272,0.0728,-0.0594,0.0426,0.0004,0.033,2.0813,-43.1063,-12.15,,adl
0.417818,-0.0087,-0.1059,0.99,0.2272,0.0728,-0.0594,0.0426,0.0004,0.033,2.0813,-43.1063,-12.15,,adl
0.422958,-0.0087,-0.1059,0.99,0.2272,0.0728,-0.0594,0.0426,0.0004,0.033,1.6688,-43.1438,-11.4,,adl
0.429285,-0.0087,-0.1059,0.99,0.2019,0.0659,0.0221,0.0426,0.0004,0.033,1.6688,-43.1438,-11.4,,adl
0.440823,-0.0087,-0.1059,0.99,0.2019,0.0659,0.0221,-0.0038,0.0494,-0.0122,1.6688,-43.1438,-11.4,,adl
0.446626,-0.0087,-0.1059,0.99,0.1673,-0.0022,0.0296,-0.0038,0.0494,-0.0122,1.6688,-43.1438,-11.4,,adl
0.46486,-0.0194,-0.1094,0.99,0.1673,-0.0022,0.0296,-0.0038,0.0494,-0.0122,1.6688,-43.1438,-11.4,,adl
0.468674,-0.0194,-0.1094,0.99,0.1391,0.0322,-0.03,-0.0038,0.0494,-0.0122,1.6688,-43.1438,-11.4,,adl
0.484491,-0.0194,-0.1094,0.99,0.1391,0.0322,-0.03,-0.0038,0.0494,-0.0122,1.9688,-43.0125,-12.0375,,adl
0.485935,-0.0194,-0.1094,0.99,0.1372,-0.0021,-0.008,-0.0038,0.0494,-0.0122,1.9688,-43.0125,-12.0375,,adl
0.503272,-0.0194,-0.1094,0.99,0.1372,-0.0021,-0.008,0.0034,0.0701,-0.0428,1.9688,-43.0125,-12.0375,,adl
0.504594,-0.0194,-0.1094,0.99,0.1109,0.0261,-0.0675,0.0034,0.0701,-0.0428,1.9688,-43.0125,-12.0375,,adl
0.512416,-0.0333,-0.1035,0.9923,0.1109,0.0261,-0.0675,0.0034,0.0701,-0.0428,1.9688,-43.0125,-12.0375,,adl
0.529891,-0.0333,-0.1035,0.9923,-0.0024,0.0039,-0.0334,0.0034,0.0701,-0.0428,1.9688,-43.0125,-12.0375,,adl
0.542482,-0.0333,-0.1035,0.9923,-0.0389,-0.0117,-0.0564,0.0034,0.0701,-0.0428,1.9688,-43.0125,-12.0375,,adl
0.545468,-0.0333,-0.1035,0.9923,-0.0389,-0.0117,-0.0564,0.0034,0.0701,-0.0428,2.0625,-43.0312,-11.9438,,adl
0.560829,-0.0401,-0.1133,1.0117,-0.0389,-0.0117,-0.0564,0.0034,0.0701,-0.0428,2.0625,-43.0312,-11.9438,,adl
0.562067,-0.0401,-0.1133,1.0117,-0.0064,0.0063,0.1867,0.0034,0.0701,-0.0428,2.0625,-43.0312,-11.9438,,adl
0.56536,-0.0401,-0.1133,1.0117,-0.0064,0.0063,0.1867,-0.0246,0.0627,-0.0208,2.0625,-43.0312,-11.9438,,adl
0.580579,-0.0401,-0.1133,1.0117,0.0198,-0.0623,0.2234,-0.0246,0.0627,-0.0208,2.0625,-43.0312,-11.9438,,adl
0.599822,-0.0401,-0.1133,1.0117,0.0079,0.0056,0.1539,-0.0246,0.0627,-0.0208,2.0625,-43.0312,-11.9438,,adl
0.603563,-0.0401,-0.1133,1.0117,0.0079,0.0056,0.1539,-0.0246,0.0627,-0.0208,2.0625,-42.825,-11.9438,,adl
0.609216,-0.045,-0.1071,1.0119,0.0079,0.0056,0.1539,-0.0246,0.0627,-0.0208,2.0625,-42.825,-11.9438,,adl
0.618367,-0.045,-0.1071,1.0119,0.0113,0.0243,0.1628,-0.0246,0.0627,-0.0208,2.0625,-42.825,-11.9438,,adl
0.629463,-0.045,-0.1071,1.0119,0.0113,0.0243,0.1628,0.0389,-0.0191,-0.0268,2.0625,-42.825,-11.9438,,adl
0.637524,-0.045,-0.1071,1.0119,0.0444,0.0029,-0.0081,0.0389,-0.0191,-0.0268,2.0625,-42.825,-11.9438,,adl
0.655163,-0.0399,-0.1079,0.9902,0.0444,0.0029,-0.0081,0.0389,-0.0191,-0.0268,2.0625,-42.825,-11.9438,,adl
0.657328,-0.0399,-0.1079,0.9902,0.0206,0.0365,-0.0256,0.0389,-0.0191,-0.0268,2.0625,-42.825,-11.9438,,adl
0.662203,-0.0399,-0.1079,0.9902,0.0206,0.0365,-0.0256,0.0389,-0.0191,-0.0268,2.85,-42.9938,-12.9,,adl
0.676531,-0.0399,-0.1079,0.9902,0.0148,-0.0146,-0.0307,0.0389,-0.0191,-0.0268,2.85,-42.9938,-12.9,,adl
0.689033,-0.0399,-0.1079,0.9902,0.0148,-0.0146,-0.0307,0.0291,0.0322,-0.0049,2.85,-42.9938,-12.9,,adl
0.695399,-0.0399,-0.1079,0.9902,0.0025,0.0402,-0.031,0.0291,0.0322,-0.0049,2.85,-42.9938,-12.9,,adl
0.704339,-0.0446,-0.1033,0.9909,0.0025,0.0402,-0.031,0.0291,0.0322,-0.0049,2.85,-42.9938,-12.9,,adl
0.714244,-0.0446,-0.1033,0.9909,0.0776,0.0383,0.0095,0.0291,0.0322,-0.0049,2.85,-42.9938,-12.9,,adl
0.724529,-0.0446,-0.1033,0.9909,0.0776,0.0383,0.0095,0.0291,0.0322,-0.0049,2.3813,-43.5,-12.375,,adl
0.732947,-0.0446,-0.1033,0.9909,0.1037,0.0185,0.0906,0.0291,0.0322,-0.0049,2.3813,-43.5,-12.375,,adl
0.751665,-0.0387,-0.1084,0.9956,0.1037,0.0185,0.0906,0.0291,0.0322,-0.0049,2.3813,-43.5,-12.375,,adl
0.752952,-0.0387,-0.1084,0.9956,0.1037,0.0185,0.0906,0.0181,-0.0021,-0.0073,2.3813,-43.5,-12.375,,adl
0.753946,-0.0387,-0.1084,0.9956,0.0532,0.0103,0.0256,0.0181,-0.0021,-0.0073,2.3813,-43.5,-12.375,,adl
0.771995,-0.0387,-0.1084,0.9956,0.0384,0.0485,0.0134,0.0181,-0.0021,-0.0073,2.3813,-43.5,-12.375,,adl
0.784519,-0.0387,-0.1084,0.9956,0.0384,0.0485,0.0134,0.0181,-0.0021,-0.0073,2.5688,-43.1063,-12.5813,,adl
0.79105,-0.0387,-0.1084,0.9956,0.0877,0.0098,-0.0222,0.0181,-0.0021,-0.0073,2.5688,-43.1063,-12.5813,,adl
0.800473,-0.0394,-0.1111,0.996,0.0877,0.0098,-0.0222,0.0181,-0.0021,-0.0073,2.5688,-43.1063,-12.5813,,adl
0.810148,-0.0394,-0.1111,0.996,0.0465,-0.0167,0.0169,0.0181,-0.0021,-0.0073,2.5688,-43.1063,-12.5813,,adl
0.814469,-0.0394,-0.1111,0.996,0.0465,-0.0167,0.0169,-0.0111,0.0712,0.0085,2.5688,-43.1063,-12.5813,,adl
0.829091,-0.0394,-0.1111,0.996,0.0426,-0.0048,0.0274,-0.0111,0.0712,0.0085,2.5688,-43.1063,-12.5813,,adl
0.843801,-0.0394,-0.1111,0.996,0.0426,-0.0048,0.0274,-0.0111,0.0712,0.0085,2.1562,-42.9563,-11.325,,adl
0.847811,-0.0394,-0.1054,0.9921,0.0426,-0.0048,0.0274,-0.0111,0.0712,0.0085,2.1562,-42.9563,-11.325,,adl
0.849141,-0.0394,-0.1054,0.9921,0.0958,0.042,-0.0052,-0.0111,0.0712,0.0085,2.1562,-42.9563,-11.325,,adl
0.867999,-0.0394,-0.1054,0.9921,0.0363,0.0132,0.0888,-0.0111,0.0712,0.0085,2.1562,-42.9563,-11.325,,adl
0.87589,-0.0394,-0.1054,0.9921,0.0363,0.0132,0.0888,-0.0124,-0.0166,-0.0062,2.1562,-42.9563,-11.325,,adl
0.887079,-0.0394,-0.1054,0.9921,0.045,0.0185,-0.026,-0.0124,-0.0166,-0.0062,2.1562,-42.9563,-11.325,,adl
0.896674,-0.0494,-0.1066,0.9867,0.045,0.0185,-0.026,-0.0124,-0.0166,-0.0062,2.1562,-42.9563,-11.325,,adl
0.903352,-0.0494,-0.1066,0.9867,0.045,0.0185,-0.026,-0.0124,-0.0166,-0.0062,2.3813,-43.5375,-11.85,,adl
0.905633,-0.0494,-0.1066,0.9867,-0.0441,0.0215,-0.0375,-0.0124,-0.0166,-0.0062,2.3813,-43.5375,-11.85,,adl
0.92441,-0.0494,-0.1066,0.9867,-0.1323,-0.0003,0.1601,-0.0124,-0.0166,-0.0062,2.3813,-43.5375,-11.85,,adl
0.939679,-0.0494,-0.1066,0.9867,-0.1323,-0.0003,0.1601,-0.0551,0.0701,0.0415,2.3813,-43.5375,-11.85,,adl
0.942951,-0.0712,-0.1147,1.0193,-0.1323,-0.0003,0.1601,-0.0551,0.0701,0.0415,2.3813,-43.5375,-11.85,,adl
0.944405,-0.0712,-0.1147,1.0193,-0.1922,-0.0192,0.265,-0.0551,0.0701,0.0415,2.3813,-43.5375,-11.85,,adl
0.963516,-0.0712,-0.1147,1.0193,-0.1385,-0.0755,0.6072,-0.0551,0.0701,0.0415,2.3813,-43.5375,-11.85,,adl
0.967831,-0.0712,-0.1147,1.0193,-0.1385,-0.0755,0.6072,-0.0551,0.0701,0.0415,2.55,-42.9375,-11.85,,adl
0.982228,-0.0712,-0.1147,1.0193,-0.0009,-0.0237,0.591,-0.0551,0.0701,0.0415,2.55,-42.9375,-11.85,,adl
0.991298,-0.0497,-0.1155,1.0484,-0.0009,-0.0237,0.591,-0.0551,0.0701,0.0415,2.55,-42.9375,-11.85,,adl
1.000713,-0.0497,-0.1155,1.0484,-0.0009,-0.0237,0.591,0.1452,0.0604,0.088,2.55,-42.9375,-11.85,,adl
1.004114,-0.0497,-0.1155,1.0484,0.1553,-0.0246,0.4028,0.1452,0.0604,0.088,2.55,-42.9375,-11.85,,adl
1.020261,-0.0497,-0.1155,1.0484,0.2024,0.001,0.0446,0.1452,0.0604,0.088,2.55,-42.9375,-11.85,,adl
1.023019,-0.0497,-0.1155,1.0484,0.2024,0.001,0.0446,0.1452,0.0604,0.088,2.2688,-43.35,-11.4188,,adl
1.039569,-0.0411,-0.0961,0.9589,0.2024,0.001,0.0446,0.1452,0.0604,0.088,2.2688,-43.35,-11.4188,,adl
1.04341,-0.0411,-0.0961,0.9589,0.1529,0.0689,-0.3338,0.1452,0.0604,0.088,2.2688,-43.35,-11.4188,,adl
1.058353,-0.0411,-0.0961,0.9589,0.1422,0.1191,-0.4699,0.1452,0.0604,0.088,2.2688,-43.35,-11.4188,,adl
1.062127,-0.0411,-0.0961,0.9589,0.1422,0.1191,-0.4699,0.1012,-0.1401,0.0232,2.2688,-43.35,-11.4188,,adl
1.07814,-0.0411,-0.0961,0.9589,0.2036,0.0746,-0.4606,0.1012,-0.1401,0.0232,2.2688,-43.35,-11.4188,,adl
1.083178,-0.0411,-0.0961,0.9589,0.2036,0.0746,-0.4606,0.1012,-0.1401,0.0232,2.0625,-42.8438,-11.5125,,adl
1.086088,-0.0248,-0.092,0.958,0.2036,0.0746,-0.4606,0.1012,-0.1401,0.0232,2.0625,-42.8438,-11.5125,,adl
1.096681,-0.0248,-0.092,0.958,0.2783,0.0594,-0.2871,0.1012,-0.1401,0.0232,2.0625,-42.8438,-11.5125,,adl
1.118646,-0.0248,-0.092,0.958,0.3062,0.0939,-0.2974,0.1012,-0.1401,0.0232,2.0625,-42.8438,-11.5125,,adl
1.124948,-0.0248,-0.092,0.958,0.3062,0.0939,-0.2974,-0.0186,-0.0399,-0.0073,2.0625,-42.8438,-11.5125,,adl
1.134184,-0.0213,-0.0857,0.9709,0.3062,0.0939,-0.2974,-0.0186,-0.0399,-0.0073,2.0625,-42.8438,-11.5125,,adl
1.135918,-0.0213,-0.0857,0.9709,0.267,0.121,-0.2259,-0.0186,-0.0399,-0.0073,2.0625,-42.8438,-11.5125,,adl
1.143307,-0.0213,-0.0857,0.9709,0.267,0.121,-0.2259,-0.0186,-0.0399,-0.0073,2.25,-42.975,-11.325,,adl
1.154364,-0.0213,-0.0857,0.9709,0.2417,0.0768,-0.0294,-0.0186,-0.0399,-0.0073,2.25,-42.975,-11.325,,adl
1.173413,-0.0213,-0.0857,0.9709,0.1524,0.0517,0.0738,-0.0186,-0.0399,-0.0073,2.25,-42.975,-11.325,,adl
1.18264,-0.0345,-0.0977,0.9975,0.1524,0.0517,0.0738,-0.0186,-0.0399,-0.0073,2.25,-42.975,-11.325,,adl
1.189492,-0.0345,-0.0977,0.9975,0.1524,0.0517,0.0738,-0.0319,0.0004,-0.0513,2.25,-42.975,-11.325,,adl
1.192752,-0.0345,-0.0977,0.9975,0.0437,0.0156,0.0337,-0.0319,0.0004,-0.0513,2.25,-42.975,-11.325,,adl
1.202534,-0.0345,-0.0977,0.9975,0.0437,0.0156,0.0337,-0.0319,0.0004,-0.0513,1.7813,-43.4438,-11.5125,,adl
1.211795,-0.0345,-0.0977,0.9975,-0.0329,0.0126,0.1232,-0.0319,0.0004,-0.0513,1.7813,-43.4438,-11.5125,,adl
1.230189,-0.0474,-0.1035,1.007,-0.0329,0.0126,0.1232,-0.0319,0.0004,-0.0513,1.7813,-43.4438,-11.5125,,adl
1.231719,-0.0474,-0.1035,1.007,-0.0184,-0.0101,0.1315,-0.0319,0.0004,-0.0513,1.7813,-43.4438,-11.5125,,adl
1.249062,-0.0474,-0.1035,1.007,-0.0184,-0.0101,0.1315,-0.0418,0.0016,-0.0195,1.7813,-43.4438,-11.5125,,adl
1.250209,-0.0474,-0.1035,1.007,-0.1168,-0.0321,0.1373,-0.0418,0.0016,-0.0195,1.7813,-43.4438,-11.5125,,adl
1.263325,-0.0474,-0.1035,1.007,-0.1168,-0.0321,0.1373,-0.0418,0.0016,-0.0195,2.55,-43.1438,-11.85,,adl
1.268981,-0.0474,-0.1035,1.007,-0.1186,-0.0373,0.1312,-0.0418,0.0016,-0.0195,2.55,-43.1438,-11.85,,adl
1.277537,-0.0592,-0.1079,1.0058,-0.1186,-0.0373,0.1312,-0.0418,0.0016,-0.0195,2.55,-43.1438,-11.85,,adl
1.288238,-0.0592,-0.1079,1.0058,-0.1191,-0.0366,0.1443,-0.0418,0.0016,-0.0195,2.55,-43.1438,-11.85,,adl
1.308236,-0.0592,-0.1079,1.0058,-0.05,-0.0261,0.193,-0.0418,0.0016,-0.0195,2.55,-43.1438,-11.85,,adl
1.311791,-0.0592,-0.1079,1.0058,-0.05,-0.0261,0.193,0.0022,0.0371,0.0378,2.55,-43.1438,-11.85,,adl
1.323491,-0.0592,-0.1079,1.0058,-0.05,-0.0261,0.193,0.0022,0.0371,0.0378,1.9875,-43.3313,-11.625,,adl
1.324871,-0.0504,-0.1091,1.0044,-0.05,-0.0261,0.193,0.0022,0.0371,0.0378,1.9875,-43.3313,-11.625,,adl
1.325856,-0.0504,-0.1091,1.0044,0.0003,-0.046,0.1095,0.0022,0.0371,0.0378,1.9875,-43.3313,-11.625,,adl
1.345837,-0.0504,-0.1091,1.0044,0.0371,-0.0142,0.0377,0.0022,0.0371,0.0378,1.9875,-43.3313,-11.625,,adl
1.364556,-0.0504,-0.1091,1.0044,0.0803,-0.0124,0.0402,0.0022,0.0371,0.0378,1.9875,-43.3313,-11.625,,adl
1.37409,-0.0426,-0.1031,0.99,0.0803,-0.0124,0.0402,0.0022,0.0371,0.0378,1.9875,-43.3313,-11.625,,adl
1.375878,-0.0426,-0.1031,0.99,0.0803,-0.0124,0.0402,0.0194,0.0261,0.0488,1.9875,-43.3313,-11.625,,adl
1.384958,-0.0426,-0.1031,0.99,0.1136,0.0364,-0.0318,0.0194,0.0261,0.0488,1.9875,-43.3313,-11.625,,adl
1.386292,-0.0426,-0.1031,0.99,0.1136,0.0364,-0.0318,0.0194,0.0261,0.0488,2.1562,-43.0312,-11.9438,,adl
1.402668,-0.0426,-0.1031,0.99,0.2192,0.0613,-0.0682,0.0194,0.0261,0.0488,2.1562,-43.0312,-11.9438,,adl
1.421409,-0.0243,-0.095,0.9878,0.2192,0.0613,-0.0682,0.0194,0.0261,0.0488,2.1562,-43.0312,-11.9438,,adl
1.425639,-0.0243,-0.095,0.9878,0.2636,0.0774,-0.0546,0.0194,0.0261,0.0488,2.1562,-43.0312,-11.9438,,adl
1.434944,-0.0243,-0.095,0.9878,0.2636,0.0774,-0.0546,-0.0014,-0.0386,-0.0098,2.1562,-43.0312,-11.9438,,adl
1.440991,-0.0243,-0.095,0.9878,0.2669,0.1096,-0.0337,-0.0014,-0.0386,-0.0098,2.1562,-43.0312,-11.9438,,adl
1.442185,-0.0243,-0.095,0.9878,0.2669,0.1096,-0.0337,-0.0014,-0.0386,-0.0098,1.6688,-43.0312,-11.5125,,adl
1.460652,-0.0243,-0.095,0.9878,0.2036,0.0976,0.0089,-0.0014,-0.0386,-0.0098,1.6688,-43.0312,-11.5125,,adl
1.469232,-0.0313,-0.0938,0.9958,0.2036,0.0976,0.0089,-0.0014,-0.0386,-0.0098,1.6688,-43.0312,-11.5125,,adl
1.479564,-0.0313,-0.0938,0.9958,0.1545,0.0964,0.0255,-0.0014,-0.0386,-0.0098,1.6688,-43.0312,-11.5125,,adl
1.498385,-0.0313,-0.0938,0.9958,0.1545,0.0964,0.0255,-0.0234,-0.0203,-0.044,1.6688,-43.0312,-11.5125,,adl
1.502208,-0.0313,-0.0938,0.9958,-0.0104,0.0592,0.0209,-0.0234,-0.0203,-0.044,1.6688,-43.0312,-11.5125,,adl
1.505618,-0.0313,-0.0938,0.9958,-0.0104,0.0592,0.0209,-0.0234,-0.0203,-0.044,2.0813,-43.35,-11.325,,adl
1.516887,-0.0543,-0.1069,0.9909,-0.0104,0.0592,0.0209,-0.0234,-0.0203,-0.044,2.0813,-43.35,-11.325,,adl
1.518133,-0.0543,-0.1069,0.9909,-0.0599,-0.0306,-0.024,-0.0234,-0.0203,-0.044,2.0813,-43.35,-11.325,,adl
1.536469,-0.0543,-0.1069,0.9909,-0.0996,-0.0207,0.0706,-0.0234,-0.0203,-0.044,2.0813,-43.35,-11.325,,adl
1.556596,-0.0543,-0.1069,0.9909,-0.0212,-0.0793,0.1128,-0.0234,-0.0203,-0.044,2.0813,-43.35,-11.325,,adl
1.560119,-0.0543,-0.1069,0.9909,-0.0212,-0.0793,0.1128,-0.0344,0.0542,0.0146,2.0813,-43.35,-11.325,,adl
1.565297,-0.0543,-0.1069,0.9909,-0.0212,-0.0793,0.1128,-0.0344,0.0542,0.0146,2.175,-43.35,-11.625,,adl
1.566234,-0.0536,-0.1096,1.0049,-0.0212,-0.0793,0.1128,-0.0344,0.0542,0.0146,2.175,-43.35,-11.625,,adl
1.574587,-0.0536,-0.1096,1.0049,-0.0067,-0.0295,0.1644,-0.0344,0.0542,0.0146,2.175,-43.35,-11.625,,adl
1.596411,-0.0536,-0.1096,1.0049,-0.0124,-0.0361,0.2132,-0.0344,0.0542,0.0146,2.175,-43.35,-11.625,,adl
1.61277,-0.0595,-0.0998,1.0058,-0.0124,-0.0361,0.2132,-0.0344,0.0542,0.0146,2.175,-43.35,-11.625,,adl
1.616164,-0.0595,-0.0998,1.0058,-0.0602,0.0625,0.1272,-0.0344,0.0542,0.0146,2.175,-43.35,-11.625,,adl
1.621223,-0.0595,-0.0998,1.0058,-0.0602,0.0625,0.1272,0.0144,0.0029,0.0256,2.175,-43.35,-11.625,,adl
1.622532,-0.0595,-0.0998,1.0058,-0.0602,0.0625,0.1272,0.0144,0.0029,0.0256,2.175,-43.3313,-11.7375,,adl
1.632278,-0.0595,-0.0998,1.0058,-0.0497,0.0375,-0.0023,0.0144,0.0029,0.0256,2.175,-43.3313,-11.7375,,adl
1.652176,-0.0595,-0.0998,1.0058,0.0266,0.0807,-0.1054,0.0144,0.0029,0.0256,2.175,-43.3313,-11.7375,,adl
1.6607,-0.0441,-0.0979,0.977,0.0266,0.0807,-0.1054,0.0144,0.0029,0.0256,2.175,-43.3313,-11.7375,,adl
1.671531,-0.0441,-0.0979,0.977,0.1393,0.0442,-0.0978,0.0144,0.0029,0.0256,2.175,-43.3313,-11.7375,,adl
1.685261,-0.0441,-0.0979,0.977,0.1393,0.0442,-0.0978,0.0144,0.0029,0.0256,2.175,-43.125,-12.0375,,adl
1.686543,-0.0441,-0.0979,0.977,0.1393,0.0442,-0.0978,-0.0246,0.0432,0.0403,2.175,-43.125,-12.0375,,adl
1.689971,-0.0441,-0.0979,0.977,0.1774,0.0078,-0.0155,-0.0246,0.0432,0.0403,2.175,-43.125,-12.0375,,adl
1.708552,-0.0409,-0.1042,1.0007,0.1774,0.0078,-0.0155,-0.0246,0.0432,0.0403,2.175,-43.125,-12.0375,,adl
1.71283,-0.0409,-0.1042,1.0007,0.1417,0.0236,0.0784,-0.0246,0.0432,0.0403,2.175,-43.125,-12.0375,,adl
1.72843,-0.0409,-0.1042,1.0007,0.139,0.0181,0.1263,-0.0246,0.0432,0.0403,2.175,-43.125,-12.0375,,adl
1.743341,-0.0409,-0.1042,1.0007,0.139,0.0181,0.1263,-0.0246,0.0432,0.0403,1.7813,-43.125,-11.8313,,adl
1.746561,-0.0409,-0.1042,1.0007,0.139,0.0181,0.1263,-0.0161,-0.0461,0.0085,1.7813,-43.125,-11.8313,,adl
1.748494,-0.0409,-0.1042,1.0007,0.1586,-0.0162,0.0639,-0.0161,-0.0461,0.0085,1.7813,-43.125,-11.8313,,adl
1.755974,-0.0357,-0.1079,0.9981,0.1586,-0.0162,0.0639,-0.0161,-0.0461,0.0085,1.7813,-43.125,-11.8313,,adl
1.766355,-0.0357,-0.1079,0.9981,0.1623,0.0176,0.0688,-0.0161,-0.0461,0.0085,1.7813,-43.125,-11.8313,,adl
1.785121,-0.0357,-0.1079,0.9981,0.1419,0.0144,0.0693,-0.0161,-0.0461,0.0085,1.7813,-43.125,-11.8313,,adl
1.803193,-0.0357,-0.1079,0.9981,0.1419,0.0144,0.0693,-0.0161,-0.0461,0.0085,2.1562,-43.1625,-11.4188,,adl
1.804568,-0.0465,-0.1042,1.0016,0.1419,0.0144,0.0693,-0.0161,-0.0461,0.0085,2.1562,-43.1625,-11.4188,,adl
1.805618,-0.0465,-0.1042,1.0016,0.079,0.037,0.089,-0.0161,-0.0461,0.0085,2.1562,-43.1625,-11.4188,,adl
1.809751,-0.0465,-0.1042,1.0016,0.079,0.037,0.089,-0.0051,0.0384,-0.011,2.1562,-43.1625,-11.4188,,adl
1.823417,-0.0465,-0.1042,1.0016,-0.0393,0.0564,0.0654,-0.0051,0.0384,-0.011,2.1562,-43.1625,-11.4188,,adl
1.843456,-0.0465,-0.1042,1.0016,-0.0302,0.0444,0.0105,-0.0051,0.0384,-0.011,2.1562,-43.1625,-11.4188,,adl
1.853751,-0.058,-0.1045,0.9944,-0.0302,0.0444,0.0105,-0.0051,0.0384,-0.011,2.1562,-43.1625,-11.4188,,adl
1.863731,-0.058,-0.1045,0.9944,0.0425,0.0211,-0.0111,-0.0051,0.0384,-0.011,2.1562,-43.1625,-11.4188,,adl
1.865159,-0.058,-0.1045,0.9944,0.0425,0.0211,-0.0111,-0.0051,0.0384,-0.011,2.2688,-43.4438,-11.7375,,adl
1.870652,-0.058,-0.1045,0.9944,0.0425,0.0211,-0.0111,-0.0111,-0.0118,0.0085,2.2688,-43.4438,-11.7375,,adl
1.881466,-0.058,-0.1045,0.9944,0.0652,0.0086,0.0154,-0.0111,-0.0118,0.0085,2.2688,-43.4438,-11.7375,,adl
1.899494,-0.0487,-0.1076,0.9968,0.0652,0.0086,0.0154,-0.0111,-0.0118,0.0085,2.2688,-43.4438,-11.7375,,adl
1.900564,-0.0487,-0.1076,0.9968,0.0635,0.0091,0.0421,-0.0111,-0.0118,0.0085,2.2688,-43.4438,-11.7375,,adl
1.919576,-0.0487,-0.1076,0.9968,0.0544,0.024,0.0855,-0.0111,-0.0118,0.0085,2.2688,-43.4438,-11.7375,,adl
1.922379,-0.0487,-0.1076,0.9968,0.0544,0.024,0.0855,-0.0111,-0.0118,0.0085,2.0625,-43.0125,-12.15,,adl
1.932655,-0.0487,-0.1076,0.9968,0.0544,0.024,0.0855,-0.0161,-0.0131,0.0073,2.0625,-43.0125,-12.15,,adl
1.9386,-0.0487,-0.1076,0.9968,0.0146,0.0458,0.1001,-0.0161,-0.0131,0.0073,2.0625,-43.0125,-12.15,,adl
1.947509,-0.0485,-0.1096,1.0053,0.0146,0.0458,0.1001,-0.0161,-0.0131,0.0073,2.0625,-43.0125,-12.15,,adl
1.957707,-0.0485,-0.1096,1.0053,0.0904,-0.0049,0.1599,-0.0161,-0.0131,0.0073,2.0625,-43.0125,-12.15,,adl
1.976938,-0.0485,-0.1096,1.0053,0.0787,-0.02,0.2455,-0.0161,-0.0131,0.0073,2.0625,-43.0125,-12.15,,adl
1.983434,-0.0485,-0.1096,1.0053,0.0787,-0.02,0.2455,-0.0161,-0.0131,0.0073,1.9875,-43.3313,-11.7375,,adl
1.995345,-0.0392,-0.1106,1.009,0.0787,-0.02,0.2455,-0.0161,-0.0131,0.0073,1.9875,-43.3313,-11.7375,,adl
1.996844,-0.0392,-0.1106,1.009,0.0787,-0.02,0.2455,0.0389,-0.0411,-0.0012,1.9875,-43.3313,-11.7375,,adl
1.997706,-0.0392,-0.1106,1.009,0.1311,-0.0181,0.1606,0.0389,-0.0411,-0.0012,1.9875,-43.3313,-11.7375,,adl
2.014711,-0.0392,-0.1106,1.009,0.0754,0.0577,0.0087,0.0389,-0.0411,-0.0012,1.9875,-43.3313,-11.7375,,adl
2.034929,-0.0392,-0.1106,1.009,0.0998,0.0687,0.0989,0.0389,-0.0411,-0.0012,1.9875,-43.3313,-11.7375,,adl
2.043332,-0.0434,-0.1001,1.0056,0.0998,0.0687,0.0989,0.0389,-0.0411,-0.0012,1.9875,-43.3313,-11.7375,,adl
2.044877,-0.0434,-0.1001,1.0056,0.0998,0.0687,0.0989,0.0389,-0.0411,-0.0012,1.3688,-42.9188,-11.7,,adl
2.053051,-0.0434,-0.1001,1.0056,0.13,0.0459,0.0597,0.0389,-0.0411,-0.0012,1.3688,-42.9188,-11.7,,adl
2.056926,-0.0434,-0.1001,1.0056,0.13,0.0459,0.0597,0.0291,-0.0448,-0.011,1.3688,-42.9188,-11.7,,adl
2.072454,-0.0434,-0.1001,1.0056,0.0124,0.0492,-0.097,0.0291,-0.0448,-0.011,1.3688,-42.9188,-11.7,,adl
2.091507,-0.0482,-0.1015,0.9727,0.0124,0.0492,-0.097,0.0291,-0.0448,-0.011,1.3688,-42.9188,-11.7,,adl
2.094286,-0.0482,-0.1015,0.9727,0.029,0.0365,-0.2006,0.0291,-0.0448,-0.011,1.3688,-42.9188,-11.7,,adl
2.103685,-0.0482,-0.1015,0.9727,0.029,0.0365,-0.2006,0.0291,-0.0448,-0.011,1.875,-43.2188,-12.0375,,adl
2.110528,-0.0482,-0.1015,0.9727,0.0496,0.0489,-0.0258,0.0291,-0.0448,-0.011,1.875,-43.2188,-12.0375,,adl
2.119925,-0.0482,-0.1015,0.9727,0.0496,0.0489,-0.0258,-0.0051,0.0054,0.006,1.875,-43.2188,-12.0375,,adl
2.129654,-0.0482,-0.1015,0.9727,0.0509,0.0044,-0.0687,-0.0051,0.0054,0.006,1.875,-43.2188,-12.0375,,adl
2.13891,-0.0485,-0.1047,0.9848,0.0509,0.0044,-0.0687,-0.0051,0.0054,0.006,1.875,-43.2188,-12.0375,,adl
2.151113,-0.0485,-0.1047,0.9848,0.0035,-0.0016,-0.0466,-0.0051,0.0054,0.006,1.875,-43.2188,-12.0375,,adl
2.163885,-0.0485,-0.1047,0.9848,0.0035,-0.0016,-0.0466,-0.0051,0.0054,0.006,1.4813,-43.125,-11.7188,,adl
2.167425,-0.0485,-0.1047,0.9848,0.0636,-0.0073,0.0859,-0.0051,0.0054,0.006,1.4813,-43.125,-11.7188,,adl
2.18131,-0.0485,-0.1047,0.9848,0.0636,-0.0073,0.0859,-0.0283,0.0102,0.0135,1.4813,-43.125,-11.7188,,adl
2.186682,-0.0504,-0.1076,1.0044,0.0636,-0.0073,0.0859,-0.0283,0.0102,0.0135,1.4813,-43.125,-11.7188,,adl
2.187961,-0.0504,-0.1076,1.0044,0.0204,-0.0087,0.113,-0.0283,0.0102,0.0135,1.4813,-43.125,-11.7188,,adl
2.207186,-0.0504,-0.1076,1.0044,0.034,0.0109,0.085,-0.0283,0.0102,0.0135,1.4813,-43.125,-11.7188,,adl
2.22355,-0.0504,-0.1076,1.0044,0.034,0.0109,0.085,-0.0283,0.0102,0.0135,2.2688,-43.125,-12.15,,adl
2.226637,-0.0504,-0.1076,1.0044,0.0438,0.0322,0.1242,-0.0283,0.0102,0.0135,2.2688,-43.125,-12.15,,adl
2.234514,-0.0509,-0.1052,1.0085,0.0438,0.0322,0.1242,-0.0283,0.0102,0.0135,2.2688,-43.125,-12.15,,adl
2.243547,-0.0509,-0.1052,1.0085,0.0438,0.0322,0.1242,0.0047,0.0909,0.0525,2.2688,-43.125,-12.15,,adl
2.244802,-0.0509,-0.1052,1.0085,0.124,0.014,0.1251,0.0047,0.0909,0.0525,2.2688,-43.125,-12.15,,adl
2.263927,-0.0509,-0.1052,1.0085,0.091,0.0701,0.0611,0.0047,0.0909,0.0525,2.2688,-43.125,-12.15,,adl
2.282387,-0.0482,-0.1015,0.9981,0.091,0.0701,0.0611,0.0047,0.0909,0.0525,2.2688,-43.125,-12.15,,adl
2.285696,-0.0482,-0.1015,0.9981,0.1132,0.0501,0.0546,0.0047,0.0909,0.0525,2.2688,-43.125,-12.15,,adl
2.288796,-0.0482,-0.1015,0.9981,0.1132,0.0501,0.0546,0.0047,0.0909,0.0525,1.7813,-43.0125,-11.8313,,adl
2.30143,-0.0482,-0.1015,0.9981,0.0816,0.0394,0.0479,0.0047,0.0909,0.0525,1.7813,-43.0125,-11.8313,,adl
2.305097,-0.0482,-0.1015,0.9981,0.0816,0.0394,0.0479,0.0034,0.0309,0.0146,1.7813,-43.0125,-11.8313,,adl
2.320591,-0.0482,-0.1015,0.9981,0.0677,0.0139,0.0096,0.0034,0.0309,0.0146,1.7813,-43.0125,-11.8313,,adl
2.331377,-0.0553,-0.1042,0.9872,0.0677,0.0139,0.0096,0.0034,0.0309,0.0146,1.7813,-43.0125,-11.8313,,adl
2.341407,-0.0553,-0.1042,0.9872,0.006,0.0392,-0.0385,0.0034,0.0309,0.0146,1.7813,-43.0125,-11.8313,,adl
2.342951,-0.0553,-0.1042,0.9872,0.006,0.0392,-0.0385,0.0034,0.0309,0.0146,1.6875,-43.3125,-11.925,,adl
2.359869,-0.0553,-0.1042,0.9872,0.0053,-0.0131,-0.108,0.0034,0.0309,0.0146,1.6875,-43.3125,-11.925,,adl
2.368454,-0.0553,-0.1042,0.9872,0.0053,-0.0131,-0.108,-0.0173,0.0089,0.0158,1.6875,-43.3125,-11.925,,adl
2.377126,-0.0574,-0.1089,0.9888,0.0053,-0.0131,-0.108,-0.0173,0.0089,0.0158,1.6875,-43.3125,-11.925,,adl
2.379187,-0.0574,-0.1089,0.9888,0.0346,-0.021,-0.0355,-0.0173,0.0089,0.0158,1.6875,-43.3125,-11.925,,adl
2.396452,-0.0574,-0.1089,0.9888,0.0898,-0.0021,0.0707,-0.0173,0.0089,0.0158,1.6875,-43.3125,-11.925,,adl
2.402542,-0.0574,-0.1089,0.9888,0.0898,-0.0021,0.0707,-0.0173,0.0089,0.0158,1.875,-42.8813,-12.45,,adl
2.416218,-0.0574,-0.1089,0.9888,0.1071,-0.0198,0.0786,-0.0173,0.0089,0.0158,1.875,-42.8813,-12.45,,adl
2.425357,-0.0521,-0.1074,1.0007,0.1071,-0.0198,0.0786,-0.0173,0.0089,0.0158,1.875,-42.8813,-12.45,,adl
2.433022,-0.0521,-0.1074,1.0007,0.1071,-0.0198,0.0786,-0.0148,-0.0069,0.0133,1.875,-42.8813,-12.45,,adl
2.435796,-0.0521,-0.1074,1.0007,0.0389,0.0765,0.11,-0.0148,-0.0069,0.0133,1.875,-42.8813,-12.45,,adl
2.455442,-0.0521,-0.1074,1.0007,0.0437,0.0895,0.0428,-0.0148,-0.0069,0.0133,1.875,-42.8813,-12.45,,adl
2.465805,-0.0521,-0.1074,1.0007,0.0437,0.0895,0.0428,-0.0148,-0.0069,0.0133,1.4813,-43.0312,-11.5125,,adl
2.473899,-0.057,-0.1022,1.0032,0.0437,0.0895,0.0428,-0.0148,-0.0069,0.0133,1.4813,-43.0312,-11.5125,,adl
2.476888,-0.057,-0.1022,1.0032,0.0302,0.0629,0.1073,-0.0148,-0.0069,0.0133,1.4813,-43.0312,-11.5125,,adl
2.491852,-0.057,-0.1022,1.0032,0.0302,0.0629,0.1073,-0.0111,-0.0203,0.0121,1.4813,-43.0312,-11.5125,,adl
2.492365,-0.057,-0.1022,1.0032,0.0991,-0.0158,0.1479,-0.0111,-0.0203,0.0121,1.4813,-43.0312,-11.5125,,adl
2.512602,-0.057,-0.1022,1.0032,0.0568,-0.0244,0.1096,-0.0111,-0.0203,0.0121,1.4813,-43.0312,-11.5125,,adl
2.521094,-0.0553,-0.1101,1.0044,0.0568,-0.0244,0.1096,-0.0111,-0.0203,0.0121,1.4813,-43.0312,-11.5125,,adl
2.522417,-0.0553,-0.1101,1.0044,0.0568,-0.0244,0.1096,-0.0111,-0.0203,0.0121,1.6688,-42.9188,-11.8313,,adl
2.531232,-0.0553,-0.1101,1.0044,0.041,-0.0065,0.1217,-0.0111,-0.0203,0.0121,1.6688,-42.9188,-11.8313,,adl
2.552395,-0.0553,-0.1101,1.0044,0.0213,0.0059,0.045,-0.0111,-0.0203,0.0121,1.6688,-42.9188,-11.8313,,adl
2.555507,-0.0553,-0.1101,1.0044,0.0213,0.0059,0.045,0.0107,-0.0008,0.0158,1.6688,-42.9188,-11.8313,,adl
2.568951,-0.0551,-0.1076,0.9936,0.0213,0.0059,0.045,0.0107,-0.0008,0.0158,1.6688,-42.9188,-11.8313,,adl
2.570227,-0.0551,-0.1076,0.9936,0.0478,0.0085,0.0136,0.0107,-0.0008,0.0158,1.6688,-42.9188,-11.8313,,adl
2.584491,-0.0551,-0.1076,0.9936,0.0478,0.0085,0.0136,0.0107,-0.0008,0.0158,1.2938,-43.2,-12.0188,,adl
2.59106,-0.0551,-0.1076,0.9936,0.0596,0.0121,-0.056,0.0107,-0.0008,0.0158,1.2938,-43.2,-12.0188,,adl
2.607786,-0.0551,-0.1076,0.9936,0.1315,0.0208,-0.0033,0.0107,-0.0008,0.0158,1.2938,-43.2,-12.0188,,adl
2.616861,-0.046,-0.1018,0.9968,0.1315,0.0208,-0.0033,0.0107,-0.0008,0.0158,1.2938,-43.2,-12.0188,,adl
2.618008,-0.046,-0.1018,0.9968,0.1315,0.0208,-0.0033,-0.0136,-0.0143,0.0073,1.2938,-43.2,-12.0188,,adl
2.62703,-0.046,-0.1018,0.9968,0.1373,0.0536,0.0733,-0.0136,-0.0143,0.0073,1.2938,-43.2,-12.0188,,adl
2.643394,-0.046,-0.1018,0.9968,0.1373,0.0536,0.0733,-0.0136,-0.0143,0.0073,1.575,-43.2375,-11.5125,,adl
2.647443,-0.046,-0.1018,0.9968,0.1127,0.0276,0.1163,-0.0136,-0.0143,0.0073,1.575,-43.2375,-11.5125,,adl
2.664189,-0.0467,-0.104,1.0004,0.1127,0.0276,0.1163,-0.0136,-0.0143,0.0073,1.575,-43.2375,-11.5125,,adl
2.666713,-0.0467,-0.104,1.0004,0.116,0.0453,0.0799,-0.0136,-0.0143,0.0073,1.575,-43.2375,-11.5125,,adl
2.67923,-0.0467,-0.104,1.0004,0.116,0.0453,0.0799,0.0096,-0.0093,-0.0,1.575,-43.2375,-11.5125,,adl
2.684579,-0.0467,-0.104,1.0004,0.1246,0.0336,-0.0139,0.0096,-0.0093,-0.0,1.575,-43.2375,-11.5125,,adl
2.70299,-0.0467,-0.104,1.0004,0.0935,0.0056,0.0509,0.0096,-0.0093,-0.0,1.575,-43.2375,-11.5125,,adl
2.703423,-0.0467,-0.104,1.0004,0.0935,0.0056,0.0509,0.0096,-0.0093,-0.0,1.7813,-42.9,-12.3375,,adl
2.712467,-0.0499,-0.1082,1.0037,0.0935,0.0056,0.0509,0.0096,-0.0093,-0.0,1.7813,-42.9,-12.3375,,adl
2.722734,-0.0499,-0.1082,1.0037,0.061,-0.0193,0.1157,0.0096,-0.0093,-0.0,1.7813,-42.9,-12.3375,,adl
2.741656,-0.0499,-0.1082,1.0037,0.061,-0.0193,0.1157,0.0059,0.0114,-0.0049,1.7813,-42.9,-12.3375,,adl
2.743085,-0.0499,-0.1082,1.0037,-0.0111,-0.0002,0.0943,0.0059,0.0114,-0.0049,1.7813,-42.9,-12.3375,,adl
2.760782,-0.0614,-0.1096,1.0032,-0.0111,-0.0002,0.0943,0.0059,0.0114,-0.0049,1.7813,-42.9,-12.3375,,adl
2.762149,-0.0614,-0.1096,1.0032,-0.0239,-0.0115,0.1063,0.0059,0.0114,-0.0049,1.7813,-42.9,-12.3375,,adl
2.763409,-0.0614,-0.1096,1.0032,-0.0239,-0.0115,0.1063,0.0059,0.0114,-0.0049,1.6688,-42.9563,-11.1,,adl
2.780066,-0.0614,-0.1096,1.0032,-0.0339,-0.0092,0.0798,0.0059,0.0114,-0.0049,1.6688,-42.9563,-11.1,,adl
2.799557,-0.0614,-0.1096,1.0032,-0.0766,0.0009,0.0367,0.0059,0.0114,-0.0049,1.6688,-42.9563,-11.1,,adl
2.803871,-0.0614,-0.1096,1.0032,-0.0766,0.0009,0.0367,0.0071,0.0114,0.0219,1.6688,-42.9563,-11.1,,adl
2.808917,-0.0683,-0.1091,0.9936,-0.0766,0.0009,0.0367,0.0071,0.0114,0.0219,1.6688,-42.9563,-11.1,,adl
2.819552,-0.0683,-0.1091,0.9936,-0.0772,0.0021,0.0154,0.0071,0.0114,0.0219,1.6688,-42.9563,-11.1,,adl
2.823635,-0.0683,-0.1091,0.9936,-0.0772,0.0021,0.0154,0.0071,0.0114,0.0219,1.2,-43.3875,-12.0188,,adl
2.837633,-0.0683,-0.1091,0.9936,0.0192,0.0176,0.0611,0.0071,0.0114,0.0219,1.2,-43.3875,-12.0188,,adl
2.856056,-0.0509,-0.1059,0.9929,0.0192,0.0176,0.0611,0.0071,0.0114,0.0219,1.2,-43.3875,-12.0188,,adl
2.860328,-0.0509,-0.1059,0.9929,0.0975,0.0166,0.006,0.0071,0.0114,0.0219,1.2,-43.3875,-12.0188,,adl
2.866568,-0.0509,-0.1059,0.9929,0.0975,0.0166,0.006,0.0034,0.0102,0.0378,1.2,-43.3875,-12.0188,,adl
2.875136,-0.0509,-0.1059,0.9929,0.1157,0.0228,0.0539,0.0034,0.0102,0.0378,1.2,-43.3875,-12.0188,,adl
2.883917,-0.0509,-0.1059,0.9929,0.1157,0.0228,0.0539,0.0034,0.0102,0.0378,1.3875,-43.3125,-11.7188,,adl
2.895765,-0.0509,-0.1059,0.9929,0.1509,0.0377,0.0177,0.0034,0.0102,0.0378,1.3875,-43.3125,-11.7188,,adl
2.903765,-0.0474,-0.1026,0.9953,0.1509,0.0377,0.0177,0.0034,0.0102,0.0378,1.3875,-43.3125,-11.7188,,adl
2.913574,-0.0474,-0.1026,0.9953,0.1266,0.0416,0.0534,0.0034,0.0102,0.0378,1.3875,-43.3125,-11.7188,,adl
2.927167,-0.0474,-0.1026,0.9953,0.1266,0.0416,0.0534,-0.0063,-0.0241,0.0121,1.3875,-43.3125,-11.7188,,adl
2.932793,-0.0474,-0.1026,0.9953,0.1188,0.0587,0.0722,-0.0063,-0.0241,0.0121,1.3875,-43.3125,-11.7188,,adl
2.943164,-0.0474,-0.1026,0.9953,0.1188,0.0587,0.0722,-0.0063,-0.0241,0.0121,1.2938,-43.2,-11.925,,adl
2.953855,-0.046,-0.1057,1.0039,0.1188,0.0587,0.0722,-0.0063,-0.0241,0.0121,1.2938,-43.2,-11.925,,adl
2.957621,-0.046,-0.1057,1.0039,0.1316,0.0162,0.1126,-0.0063,-0.0241,0.0121,1.2938,-43.2,-11.925,,adl
2.971107,-0.046,-0.1057,1.0039,0.135,0.019,0.1049,-0.0063,-0.0241,0.0121,1.2938,-43.2,-11.925,,adl
2.989747,-0.046,-0.1057,1.0039,0.135,0.019,0.1049,0.0254,-0.0131,-0.0062,1.2938,-43.2,-11.925,,adl
2.993431,-0.046,-0.1057,1.0039,0.0978,0.0265,0.0658,0.0254,-0.0131,-0.0062,1.2938,-43.2,-11.925,,adl
2.998284,-0.0502,-0.1026,0.9981,0.0978,0.0265,0.0658,0.0254,-0.0131,-0.0062,1.2938,-43.2,-11.925,,adl
3.002974,-0.0502,-0.1026,0.9981,0.0978,0.0265,0.0658,0.0254,-0.0131,-0.0062,1.575,-42.825,-11.8125,,adl
3.009343,-0.0502,-0.1026,0.9981,0.061,0.0193,-0.021,0.0254,-0.0131,-0.0062,1.575,-42.825,-11.8125,,adl
3.028716,-0.0502,-0.1026,0.9981,0.0132,0.0366,-0.0166,0.0254,-0.0131,-0.0062,1.575,-42.825,-11.8125,,adl
3.047572,-0.0523,-0.1057,0.9951,0.0132,0.0366,-0.0166,0.0254,-0.0131,-0.0062,1.575,-42.825,-11.8125,,adl
3.051224,-0.0523,-0.1057,0.9951,0.054,0.0044,0.0243,0.0254,-0.0131,-0.0062,1.575,-42.825,-11.8125,,adl
3.053855,-0.0523,-0.1057,0.9951,0.054,0.0044,0.0243,-0.01,0.0004,0.0023,1.575,-42.825,-11.8125,,adl
3.064928,-0.0523,-0.1057,0.9951,0.054,0.0044,0.0243,-0.01,0.0004,0.0023,1.1813,-43.125,-11.4938,,adl
3.066343,-0.0523,-0.1057,0.9951,-0.0053,0.0105,0.1322,-0.01,0.0004,0.0023,1.1813,-43.125,-11.4938,,adl
3.085556,-0.0523,-0.1057,0.9951,0.02,-0.0183,0.101,-0.01,0.0004,0.0023,1.1813,-43.125,-11.4938,,adl
3.094503,-0.058,-0.1076,1.0046,0.02,-0.0183,0.101,-0.01,0.0004,0.0023,1.1813,-43.125,-11.4938,,adl
3.106307,-0.058,-0.1076,1.0046,0.0173,-0.0001,0.1127,-0.01,0.0004,0.0023,1.1813,-43.125,-11.4938,,adl
3.113214,-0.058,-0.1076,1.0046,0.0173,-0.0001,0.1127,0.0096,-0.0203,0.0133,1.1813,-43.125,-11.4938,,adl
3.122365,-0.058,-0.1076,1.0046,0.0173,-0.0001,0.1127,0.0096,-0.0203,0.0133,1.1063,-43.275,-12.3188,,adl
3.124211,-0.058,-0.1076,1.0046,0.0595,-0.0089,0.1075,0.0096,-0.0203,0.0133,1.1063,-43.275,-12.3188,,adl
3.142739,-0.048,-0.1045,0.9953,0.0595,-0.0089,0.1075,0.0096,-0.0203,0.0133,1.1063,-43.275,-12.3188,,adl
3.144213,-0.048,-0.1045,0.9953,0.0884,0.0118,0.0257,0.0096,-0.0203,0.0133,1.1063,-43.275,-12.3188,,adl
3.163932,-0.048,-0.1045,0.9953,0.0597,0.0323,0.0349,0.0096,-0.0203,0.0133,1.1063,-43.275,-12.3188,,adl
3.176957,-0.048,-0.1045,0.9953,0.0597,0.0323,0.0349,0.0107,0.0065,0.0121,1.1063,-43.275,-12.3188,,adl
3.181698,-0.048,-0.1045,0.9953,0.08,0.0013,0.0131,0.0107,0.0065,0.0121,1.1063,-43.275,-12.3188,,adl
3.182614,-0.048,-0.1045,0.9953,0.08,0.0013,0.0131,0.0107,0.0065,0.0121,1.575,-42.975,-12.45,,adl
3.189691,-0.0492,-0.1031,0.999,0.08,0.0013,0.0131,0.0107,0.0065,0.0121,1.575,-42.975,-12.45,,adl
3.200709,-0.0492,-0.1031,0.999,0.0906,0.0162,0.0777,0.0107,0.0065,0.0121,1.575,-42.975,-12.45,,adl
3.219863,-0.0492,-0.1031,0.999,0.117,0.042,0.0317,0.0107,0.0065,0.0121,1.575,-42.975,-12.45,,adl
3.24274,-0.0438,-0.0994,0.9802,0.117,0.042,0.0317,0.0107,0.0065,0.0121,1.575,-42.975,-12.45,,adl
3.246441,-0.0438,-0.0994,0.9802,0.117,0.042,0.0317,0.0107,0.0004,0.006,1.575,-42.975,-12.45,,adl
3.249362,-0.0438,-0.0994,0.9802,0.1267,0.0485,-0.1244,0.0107,0.0004,0.006,1.575,-42.975,-12.45,,adl
3.252219,-0.0438,-0.0994,0.9802,0.1267,0.0485,-0.1244,0.0107,0.0004,0.006,0.8063,-43.2,-11.5875,,adl
3.257455,-0.0438,-0.0994,0.9802,0.1192,0.0656,-0.0955,0.0107,0.0004,0.006,0.8063,-43.2,-11.5875,,adl
3.277011,-0.0438,-0.0994,0.9802,0.1155,0.0296,-0.0086,0.0107,0.0004,0.006,0.8063,-43.2,-11.5875,,adl
3.287298,-0.0499,-0.101,0.9934,0.1155,0.0296,-0.0086,0.0107,0.0004,0.006,0.8063,-43.2,-11.5875,,adl
3.297971,-0.0499,-0.101,0.9934,0.0522,0.0491,0.0305,0.0107,0.0004,0.006,0.8063,-43.2,-11.5875,,adl
3.301857,-0.0499,-0.101,0.9934,0.0522,0.0491,0.0305,-0.0271,0.0187,-0.0025,0.8063,-43.2,-11.5875,,adl
3.304665,-0.0499,-0.101,0.9934,0.0522,0.0491,0.0305,-0.0271,0.0187,-0.0025,0.7125,-43.3125,-11.475,,adl
3.315059,-0.0499,-0.101,0.9934,0.0735,0.0579,0.0526,-0.0271,0.0187,-0.0025,0.7125,-43.3125,-11.475,,adl
3.333958,-0.0506,-0.1033,0.9953,0.0735,0.0579,0.0526,-0.0271,0.0187,-0.0025,0.7125,-43.3125,-11.475,,adl
3.335856,-0.0506,-0.1033,0.9953,0.0739,0.0286,0.0269,-0.0271,0.0187,-0.0025,0.7125,-43.3125,-11.475,,adl
3.35401,-0.0506,-0.1033,0.9953,0.1166,-0.0027,0.0782,-0.0271,0.0187,-0.0025,0.7125,-43.3125,-11.475,,adl
3.365893,-0.0506,-0.1033,0.9953,0.1166,-0.0027,0.0782,-0.0161,0.081,0.0109,0.7125,-43.3125,-11.475,,adl
3.368242,-0.0506,-0.1033,0.9953,0.1166,-0.0027,0.0782,-0.0161,0.081,0.0109,1.0875,-43.1063,-11.8125,,adl
3.373587,-0.0506,-0.1033,0.9953,0.1379,-0.0142,0.1679,-0.0161,0.081,0.0109,1.0875,-43.1063,-11.8125,,adl
3.381301,-0.0453,-0.1091,1.0088,0.1379,-0.0142,0.1679,-0.0161,0.081,0.0109,1.0875,-43.1063,-11.8125,,adl
3.3923,-0.0453,-0.1091,1.0088,0.0946,0.0407,0.2314,-0.0161,0.081,0.0109,1.0875,-43.1063,-11.8125,,adl
3.410323,-0.0453,-0.1091,1.0088,0.0941,0.007,0.2518,-0.0161,0.081,0.0109,1.0875,-43.1063,-11.8125,,adl
3.422164,-0.0453,-0.1091,1.0088,0.0941,0.007,0.2518,-0.0161,0.081,0.0109,1.3688,-42.7313,-11.6063,,adl
3.426194,-0.0453,-0.1091,1.0088,0.0941,0.007,0.2518,0.034,0.1067,-0.0049,1.3688,-42.7313,-11.6063,,adl
3.431147,-0.0604,-0.1071,1.0183,0.0941,0.007,0.2518,0.034,0.1067,-0.0049,1.3688,-42.7313,-11.6063,,adl
3.432793,-0.0604,-0.1071,1.0183,0.0581,-0.0052,0.2574,0.034,0.1067,-0.0049,1.3688,-42.7313,-11.6063,,adl
3.449804,-0.0604,-0.1071,1.0183,-0.0156,0.0309,0.2387,0.034,0.1067,-0.0049,1.3688,-42.7313,-11.6063,,adl
3.468813,-0.0604,-0.1071,1.0183,-0.0063,0.0082,0.0975,0.034,0.1067,-0.0049,1.3688,-42.7313,-11.6063,,adl
3.4776,-0.08,-0.0979,0.9983,-0.0063,0.0082,0.0975,0.034,0.1067,-0.0049,1.3688,-42.7313,-11.6063,,adl
3.483518,-0.08,-0.0979,0.9983,-0.0063,0.0082,0.0975,0.034,0.1067,-0.0049,1.2938,-43.0875,-12.0188,,adl
3.48651,-0.08,-0.0979,0.9983,-0.0063,0.0082,0.0975,0.0682,0.0799,-0.0074,1.2938,-43.0875,-12.0188,,adl
3.488218,-0.08,-0.0979,0.9983,-0.0532,0.0328,0.0137,0.0682,0.0799,-0.0074,1.2938,-43.0875,-12.0188,,adl
3.507019,-0.08,-0.0979,0.9983,-0.0925,0.0026,0.0285,0.0682,0.0799,-0.0074,1.2938,-43.0875,-12.0188,,adl
3.525252,-0.0781,-0.1045,0.9939,-0.0925,0.0026,0.0285,0.0682,0.0799,-0.0074,1.2938,-43.0875,-12.0188,,adl
3.527207,-0.0781,-0.1045,0.9939,-0.0118,-0.0355,0.0195,0.0682,0.0799,-0.0074,1.2938,-43.0875,-12.0188,,adl
3.543075,-0.0781,-0.1045,0.9939,-0.0118,-0.0355,0.0195,0.0682,0.0799,-0.0074,0.8813,-43.05,-10.9688,,adl
3.544791,-0.0781,-0.1045,0.9939,0.0343,0.0032,-0.1433,0.0682,0.0799,-0.0074,0.8813,-43.05,-10.9688,,adl
3.54954,-0.0781,-0.1045,0.9939,0.0343,0.0032,-0.1433,0.056,0.0371,0.0353,0.8813,-43.05,-10.9688,,adl
3.564644,-0.0781,-0.1045,0.9939,0.0415,0.064,-0.2368,0.056,0.0371,0.0353,0.8813,-43.05,-10.9688,,adl
3.573007,-0.0758,-0.0954,0.975,0.0415,0.064,-0.2368,0.056,0.0371,0.0353,0.8813,-43.05,-10.9688,,adl
3.583133,-0.0758,-0.0954,0.975,0.0314,0.0613,-0.0884,0.056,0.0371,0.0353,0.8813,-43.05,-10.9688,,adl
3.602708,-0.0758,-0.0954,0.975,0.0988,0.0578,-0.0196,0.056,0.0371,0.0353,0.8813,-43.05,-10.9688,,adl
3.606081,-0.0758,-0.0954,0.975,0.0988,0.0578,-0.0196,0.056,0.0371,0.0353,1.1063,-43.5188,-11.4,,adl
3.611614,-0.0758,-0.0954,0.975,0.0988,0.0578,-0.0196,-0.0136,-0.0754,0.0183,1.1063,-43.5188,-11.4,,adl
3.620183,-0.0609,-0.0933,0.9911,0.0988,0.0578,-0.0196,-0.0136,-0.0754,0.0183,1.1063,-43.5188,-11.4,,adl
3.621602,-0.0609,-0.0933,0.9911,0.1577,0.0585,-0.0083,-0.0136,-0.0754,0.0183,1.1063,-43.5188,-11.4,,adl
3.641619,-0.0609,-0.0933,0.9911,0.178,0.0466,0.0871,-0.0136,-0.0754,0.0183,1.1063,-43.5188,-11.4,,adl
3.660191,-0.0609,-0.0933,0.9911,0.19,0.0436,0.2233,-0.0136,-0.0754,0.0183,1.1063,-43.5188,-11.4,,adl
3.663928,-0.0609,-0.0933,0.9911,0.19,0.0436,0.2233,-0.0136,-0.0754,0.0183,1.575,-43.0125,-11.8125,,adl
3.668319,-0.0558,-0.094,1.0097,0.19,0.0436,0.2233,-0.0136,-0.0754,0.0183,1.575,-43.0125,-11.8125,,adl
3.673731,-0.0558,-0.094,1.0097,0.19,0.0436,0.2233,-0.01,-0.0509,-0.0087,1.575,-43.0125,-11.8125,,adl
3.679198,-0.0558,-0.094,1.0097,0.1635,0.0459,0.1078,-0.01,-0.0509,-0.0087,1.575,-43.0125,-11.8125,,adl
3.698441,-0.0558,-0.094,1.0097,0.1497,0.0373,0.1317,-0.01,-0.0509,-0.0087,1.575,-43.0125,-11.8125,,adl
3.71702,-0.0541,-0.0957,1.0032,0.1497,0.0373,0.1317,-0.01,-0.0509,-0.0087,1.575,-43.0125,-11.8125,,adl
3.720542,-0.0541,-0.0957,1.0032,0.1974,0.0453,0.108,-0.01,-0.0509,-0.0087,1.575,-43.0125,-11.8125,,adl
3.723188,-0.0541,-0.0957,1.0032,0.1974,0.0453,0.108,-0.01,-0.0509,-0.0087,1.2,-43.4438,-11.1938,,adl
3.737033,-0.0541,-0.0957,1.0032,0.1974,0.0453,0.108,0.023,0.0041,-0.0135,1.2,-43.4438,-11.1938,,adl
3.739846,-0.0541,-0.0957,1.0032,0.169,0.0606,0.1102,0.023,0.0041,-0.0135,1.2,-43.4438,-11.1938,,adl
3.75561,-0.0541,-0.0957,1.0032,0.1074,0.0494,0.052,0.023,0.0041,-0.0135,1.2,-43.4438,-11.1938,,adl
3.76502,-0.0675,-0.095,0.9883,0.1074,0.0494,0.052,0.023,0.0041,-0.0135,1.2,-43.4438,-11.1938,,adl
3.777542,-0.0675,-0.095,0.9883,0.027,0.0442,-0.0515,0.023,0.0041,-0.0135,1.2,-43.4438,-11.1938,,adl
3.783224,-0.0675,-0.095,0.9883,0.027,0.0442,-0.0515,0.023,0.0041,-0.0135,1.2938,-43.5188,-11.4,,adl
3.794118,-0.0675,-0.095,0.9883,0.0236,0.0125,-0.0417,0.023,0.0041,-0.0135,1.2938,-43.5188,-11.4,,adl
3.797498,-0.0675,-0.095,0.9883,0.0236,0.0125,-0.0417,0.0059,0.0261,-0.0111,1.2938,-43.5188,-11.4,,adl
3.81205,-0.067,-0.0964,0.9907,0.0236,0.0125,-0.0417,0.0059,0.0261,-0.0111,1.2938,-43.5188,-11.4,,adl
3.81472,-0.067,-0.0964,0.9907,0.0771,0.0274,-0.0147,0.0059,0.0261,-0.0111,1.2938,-43.5188,-11.4,,adl
3.832155,-0.067,-0.0964,0.9907,0.0597,0.0318,0.0123,0.0059,0.0261,-0.0111,1.2938,-43.5188,-11.4,,adl
3.845541,-0.067,-0.0964,0.9907,0.0597,0.0318,0.0123,0.0059,0.0261,-0.0111,1.0875,-43.1438,-10.875,,adl
3.851122,-0.067,-0.0964,0.9907,0.0513,0.0285,0.0726,0.0059,0.0261,-0.0111,1.0875,-43.1438,-10.875,,adl
3.859592,-0.0712,-0.0969,0.9988,0.0513,0.0285,0.0726,0.0059,0.0261,-0.0111,1.0875,-43.1438,-10.875,,adl
3.861567,-0.0712,-0.0969,0.9988,0.0513,0.0285,0.0726,-0.0136,-0.0276,-0.0184,1.0875,-43.1438,-10.875,,adl
3.870133,-0.0712,-0.0969,0.9988,0.0453,0.0081,0.0177,-0.0136,-0.0276,-0.0184,1.0875,-43.1438,-10.875,,adl
3.889564,-0.0712,-0.0969,0.9988,0.0315,0.0025,0.0513,-0.0136,-0.0276,-0.0184,1.0875,-43.1438,-10.875,,adl
3.903716,-0.0712,-0.0969,0.9988,0.0315,0.0025,0.0513,-0.0136,-0.0276,-0.0184,1.6688,-43.1438,-11.3063,,adl
3.909251,-0.0644,-0.1033,1.0063,0.0315,0.0025,0.0513,-0.0136,-0.0276,-0.0184,1.6688,-43.1438,-11.3063,,adl
3.91346,-0.0644,-0.1033,1.0063,0.0983,-0.022,0.1399,-0.0136,-0.0276,-0.0184,1.6688,-43.1438,-11.3063,,adl
3.921069,-0.0644,-0.1033,1.0063,0.0983,-0.022,0.1399,-0.01,-0.0436,0.0036,1.6688,-43.1438,-11.3063,,adl
3.927659,-0.0644,-0.1033,1.0063,0.1651,-0.0114,0.0799,-0.01,-0.0436,0.0036,1.6688,-43.1438,-11.3063,,adl
3.947042,-0.0644,-0.1033,1.0063,0.2759,-0.005,0.1611,-0.01,-0.0436,0.0036,1.6688,-43.1438,-11.3063,,adl
3.955322,-0.0387,-0.0991,1.0061,0.2759,-0.005,0.1611,-0.01,-0.0436,0.0036,1.6688,-43.1438,-11.3063,,adl
3.965612,-0.0387,-0.0991,1.0061,0.2759,-0.005,0.1611,-0.01,-0.0436,0.0036,1.4813,-43.1438,-11.1938,,adl
3.969391,-0.0387,-0.0991,1.0061,0.3441,0.0709,0.1053,-0.01,-0.0436,0.0036,1.4813,-43.1438,-11.1938,,adl
3.98392,-0.0387,-0.0991,1.0061,0.3441,0.0709,0.1053,0.0402,-0.0166,-0.0392,1.4813,-43.1438,-11.1938,,adl
3.985298,-0.0387,-0.0991,1.0061,0.2285,0.1144,0.0467,0.0402,-0.0166,-0.0392,1.4813,-43.1438,-11.1938,,adl
4.00315,-0.0626,-0.0842,0.9944,0.2285,0.1144,0.0467,0.0402,-0.0166,-0.0392,1.4813,-43.1438,-11.1938,,adl
4.0049,-0.0626,-0.0842,0.9944,0.0864,0.1521,0.0192,0.0402,-0.0166,-0.0392,1.4813,-43.1438,-11.1938,,adl
4.023535,-0.0626,-0.0842,0.9944,-0.0118,0.1446,-0.0966,0.0402,-0.0166,-0.0392,1.4813,-43.1438,-11.1938,,adl
4.028648,-0.0626,-0.0842,0.9944,-0.0118,0.1446,-0.0966,0.0402,-0.0166,-0.0392,1.6875,-43.2375,-11.4,,adl
4.043572,-0.0626,-0.0842,0.9944,0.0172,0.1217,-0.0315,0.0402,-0.0166,-0.0392,1.6875,-43.2375,-11.4,,adl
4.046116,-0.0626,-0.0842,0.9944,0.0172,0.1217,-0.0315,0.001,0.0774,-0.0111,1.6875,-43.2375,-11.4,,adl
4.052707,-0.0672,-0.0877,0.9951,0.0172,0.1217,-0.0315,0.001,0.0774,-0.0111,1.6875,-43.2375,-11.4,,adl
4.061502,-0.0672,-0.0877,0.9951,0.0096,0.1181,0.183,0.001,0.0774,-0.0111,1.6875,-43.2375,-11.4,,adl
4.08142,-0.0672,-0.0877,0.9951,0.0831,0.0493,0.3208,0.001,0.0774,-0.0111,1.6875,-43.2375,-11.4,,adl
4.087342,-0.0672,-0.0877,0.9951,0.0831,0.0493,0.3208,0.001,0.0774,-0.0111,0.9938,-43.0312,-11.175,,adl
4.098753,-0.0702,-0.0998,1.0156,0.0831,0.0493,0.3208,0.001,0.0774,-0.0111,0.9938,-43.0312,-11.175,,adl
4.100586,-0.0702,-0.0998,1.0156,0.0782,-0.0218,0.2304,0.001,0.0774,-0.0111,0.9938,-43.0312,-11.175,,adl
4.109444,-0.0702,-0.0998,1.0156,0.0782,-0.0218,0.2304,0.0707,0.0859,-0.0014,0.9938,-43.0312,-11.175,,adl
4.119383,-0.0702,-0.0998,1.0156,0.0174,-0.0528,0.1541,0.0707,0.0859,-0.0014,0.9938,-43.0312,-11.175,,adl
4.138079,-0.0702,-0.0998,1.0156,-0.1162,-0.0374,0.0752,0.0707,0.0859,-0.0014,0.9938,-43.0312,-11.175,,adl
4.146963,-0.0702,-0.0998,1.0156,-0.1162,-0.0374,0.0752,0.0707,0.0859,-0.0014,1.5938,-43.3313,-11.5125,,adl
4.149299,-0.097,-0.0973,0.9932,-0.1162,-0.0374,0.0752,0.0707,0.0859,-0.0014,1.5938,-43.3313,-11.5125,,adl
4.156524,-0.097,-0.0973,0.9932,-0.2103,-0.0219,-0.0107,0.0707,0.0859,-0.0014,1.5938,-43.3313,-11.5125,,adl
4.17045,-0.097,-0.0973,0.9932,-0.2103,-0.0219,-0.0107,0.1072,0.0835,0.0744,1.5938,-43.3313,-11.5125,,adl
4.175721,-0.097,-0.0973,0.9932,-0.144,-0.0238,-0.0823,0.1072,0.0835,0.0744,1.5938,-43.3313,-11.5125,,adl
4.194477,-0.0944,-0.0877,0.9802,-0.144,-0.0238,-0.0823,0.1072,0.0835,0.0744,1.5938,-43.3313,-11.5125,,adl
4.198275,-0.0944,-0.0877,0.9802,-0.062,0.022,-0.1158,0.1072,0.0835,0.0744,1.5938,-43.3313,-11.5125,,adl
4.203004,-0.0944,-0.0877,0.9802,-0.062,0.022,-0.1158,0.1072,0.0835,0.0744,1.7813,-43.3688,-11.1,,adl
4.215062,-0.0944,-0.0877,0.9802,0.103,0.0856,-0.08,0.1072,0.0835,0.0744,1.7813,-43.3688,-11.1,,adl
4.232206,-0.0944,-0.0877,0.9802,0.103,0.0856,-0.08,0.0327,0.0382,0.1123,1.7813,-43.3688,-11.1,,adl
4.233627,-0.0944,-0.0877,0.9802,0.2102,0.1281,-0.0466,0.0327,0.0382,0.1123,1.7813,-43.3688,-11.1,,adl
4.243031,-0.0644,-0.0744,0.9897,0.2102,0.1281,-0.0466,0.0327,0.0382,0.1123,1.7813,-43.3688,-11.1,,adl
4.255194,-0.0644,-0.0744,0.9897,0.2836,0.1043,0.0109,0.0327,0.0382,0.1123,1.7813,-43.3688,-11.1,,adl
4.26505,-0.0644,-0.0744,0.9897,0.2836,0.1043,0.0109,0.0327,0.0382,0.1123,0.8063,-43.5375,-10.9688,,adl
4.271452,-0.0644,-0.0744,0.9897,0.2695,0.0973,-0.0154,0.0327,0.0382,0.1123,0.8063,-43.5375,-10.9688,,adl
4.290081,-0.0626,-0.0798,0.9997,0.2695,0.0973,-0.0154,0.0327,0.0382,0.1123,0.8063,-43.5375,-10.9688,,adl
4.291904,-0.0626,-0.0798,0.9997,0.2867,0.0597,0.0757,0.0327,0.0382,0.1123,0.8063,-43.5375,-10.9688,,adl
4.294738,-0.0626,-0.0798,0.9997,0.2867,0.0597,0.0757,0.0205,0.0249,0.0781,0.8063,-43.5375,-10.9688,,adl
4.31069,-0.0626,-0.0798,0.9997,0.2875,0.1204,0.0491,0.0205,0.0249,0.0781,0.8063,-43.5375,-10.9688,,adl
4.324446,-0.0626,-0.0798,0.9997,0.2875,0.1204,0.0491,0.0205,0.0249,0.0781,0.9,-43.4625,-10.5563,,adl
4.328966,-0.0626,-0.0798,0.9997,0.3404,0.0874,0.0272,0.0205,0.0249,0.0781,0.9,-43.4625,-10.5563,,adl
4.337928,-0.0611,-0.0705,0.9997,0.3404,0.0874,0.0272,0.0205,0.0249,0.0781,0.9,-43.4625,-10.5563,,adl
4.348692,-0.0611,-0.0705,0.9997,0.2545,0.1389,0.0459,0.0205,0.0249,0.0781,0.9,-43.4625,-10.5563,,adl
4.356768,-0.0611,-0.0705,0.9997,0.2545,0.1389,0.0459,0.0157,-0.0241,-0.0087,0.9,-43.4625,-10.5563,,adl
4.367163,-0.0611,-0.0705,0.9997,0.2574,0.0767,-0.0196,0.0157,-0.0241,-0.0087,0.9,-43.4625,-10.5563,,adl
4.384678,-0.0611,-0.0705,0.9997,0.2574,0.0767,-0.0196,0.0157,-0.0241,-0.0087,1.0125,-43.6688,-10.5563,,adl
4.388585,-0.0709,-0.0761,0.9895,0.2574,0.0767,-0.0196,0.0157,-0.0241,-0.0087,1.0125,-43.6688,-10.5563,,adl
4.390039,-0.0709,-0.0761,0.9895,0.1979,0.0759,-0.0272,0.0157,-0.0241,-0.0087,1.0125,-43.6688,-10.5563,,adl
4.40576,-0.0709,-0.0761,0.9895,0.1417,0.0526,0.0474,0.0157,-0.0241,-0.0087,1.0125,-43.6688,-10.5563,,adl
4.41956,-0.0709,-0.0761,0.9895,0.1417,0.0526,0.0474,-0.0063,0.0297,-0.0209,1.0125,-43.6688,-10.5563,,adl
4.42491,-0.0709,-0.0761,0.9895,0.0429,0.0363,0.065,-0.0063,0.0297,-0.0209,1.0125,-43.6688,-10.5563,,adl
4.433622,-0.0909,-0.0805,1.0021,0.0429,0.0363,0.065,-0.0063,0.0297,-0.0209,1.0125,-43.6688,-10.5563,,adl
4.444593,-0.0909,-0.0805,1.0021,-0.0028,0.0448,0.1019,-0.0063,0.0297,-0.0209,1.0125,-43.6688,-10.5563,,adl
4.445987,-0.0909,-0.0805,1.0021,-0.0028,0.0448,0.1019,-0.0063,0.0297,-0.0209,0.525,-43.5,-11.2688,,adl
4.463292,-0.0909,-0.0805,1.0021,0.0552,0.026,0.1455,-0.0063,0.0297,-0.0209,0.525,-43.5,-11.2688,,adl
4.481564,-0.0821,-0.0847,0.9988,0.0552,0.026,0.1455,-0.0063,0.0297,-0.0209,0.525,-43.5,-11.2688,,adl
4.485515,-0.0821,-0.0847,0.9988,0.0552,0.026,0.1455,0.0047,-0.0338,-0.0001,0.525,-43.5,-11.2688,,adl
4.488083,-0.0821,-0.0847,0.9988,0.107,0.0002,0.0662,0.0047,-0.0338,-0.0001,0.525,-43.5,-11.2688,,adl
4.501062,-0.0821,-0.0847,0.9988,0.0141,0.0048,0.1257,0.0047,-0.0338,-0.0001,0.525,-43.5,-11.2688,,adl
4.504022,-0.0821,-0.0847,0.9988,0.0141,0.0048,0.1257,0.0047,-0.0338,-0.0001,0.9938,-43.3875,-10.35,,adl
4.521069,-0.0821,-0.0847,0.9988,0.0003,0.03,0.0057,0.0047,-0.0338,-0.0001,0.9938,-43.3875,-10.35,,adl
4.529556,-0.0932,-0.0796,0.9951,0.0003,0.03,0.0057,0.0047,-0.0338,-0.0001,0.9938,-43.3875,-10.35,,adl
4.539665,-0.0932,-0.0796,0.9951,0.0095,0.0559,0.0346,0.0047,-0.0338,-0.0001,0.9938,-43.3875,-10.35,,adl
4.543574,-0.0932,-0.0796,0.9951,0.0095,0.0559,0.0346,-0.0038,-0.0056,0.028,0.9938,-43.3875,-10.35,,adl
4.558719,-0.0932,-0.0796,0.9951,0.1228,0.0349,0.1209,-0.0038,-0.0056,0.028,0.9938,-43.3875,-10.35,,adl
4.564834,-0.0932,-0.0796,0.9951,0.1228,0.0349,0.1209,-0.0038,-0.0056,0.028,0.6188,-43.65,-10.65,,adl
4.577084,-0.0724,-0.0779,1.0032,0.1228,0.0349,0.1209,-0.0038,-0.0056,0.028,0.6188,-43.65,-10.65,,adl
4.581278,-0.0724,-0.0779,1.0032,0.1962,0.0638,0.1084,-0.0038,-0.0056,0.028,0.6188,-43.65,-10.65,,adl
4.597623,-0.0724,-0.0779,1.0032,0.2158,0.0792,0.0883,-0.0038,-0.0056,0.028,0.6188,-43.65,-10.65,,adl
4.605478,-0.0724,-0.0779,1.0032,0.2158,0.0792,0.0883,0.0389,-0.0253,0.0183,0.6188,-43.65,-10.65,,adl
4.616082,-0.0724,-0.0779,1.0032,0.22,0.0909,-0.0062,0.0389,-0.0253,0.0183,0.6188,-43.65,-10.65,,adl
4.622637,-0.0724,-0.0779,1.0032,0.22,0.0909,-0.0062,0.0389,-0.0253,0.0183,0.9,-43.2563,-10.7625,,adl
4.624239,-0.0688,-0.0719,0.9921,0.22,0.0909,-0.0062,0.0389,-0.0253,0.0183,0.9,-43.2563,-10.7625,,adl
4.635242,-0.0688,-0.0719,0.9921,0.2065,0.1,-0.0359,0.0389,-0.0253,0.0183,0.9,-43.2563,-10.7625,,adl
4.654618,-0.0688,-0.0719,0.9921,0.168,0.1029,-0.0461,0.0389,-0.0253,0.0183,0.9,-43.2563,-10.7625,,adl
4.668005,-0.0688,-0.0719,0.9921,0.168,0.1029,-0.0461,0.0059,0.0029,0.0011,0.9,-43.2563,-10.7625,,adl
4.672906,-0.0707,-0.0759,0.9941,0.168,0.1029,-0.0461,0.0059,0.0029,0.0011,0.9,-43.2563,-10.7625,,adl
4.67604,-0.0707,-0.0759,0.9941,0.1915,0.061,0.016,0.0059,0.0029,0.0011,0.9,-43.2563,-10.7625,,adl
4.68258,-0.0707,-0.0759,0.9941,0.1915,0.061,0.016,0.0059,0.0029,0.0011,0.6938,-43.2563,-10.65,,adl
4.692407,-0.0707,-0.0759,0.9941,0.1712,0.1003,-0.0129,0.0059,0.0029,0.0011,0.6938,-43.2563,-10.65,,adl
4.712276,-0.0707,-0.0759,0.9941,0.1804,0.0386,-0.0155,0.0059,0.0029,0.0011,0.6938,-43.2563,-10.65,,adl
4.721493,-0.0721,-0.0776,0.9948,0.1804,0.0386,-0.0155,0.0059,0.0029,0.0011,0.6938,-43.2563,-10.65,,adl
4.729958,-0.0721,-0.0776,0.9948,0.1804,0.0386,-0.0155,-0.01,-0.0301,-0.0124,0.6938,-43.2563,-10.65,,adl
4.731135,-0.0721,-0.0776,0.9948,0.1467,0.0315,0.0608,-0.01,-0.0301,-0.0124,0.6938,-43.2563,-10.65,,adl
4.743142,-0.0721,-0.0776,0.9948,0.1467,0.0315,0.0608,-0.01,-0.0301,-0.0124,1.0125,-43.6875,-10.2563,,adl
4.74985,-0.0721,-0.0776,0.9948,0.1675,0.0166,0.1084,-0.01,-0.0301,-0.0124,1.0125,-43.6875,-10.2563,,adl
4.767622,-0.0748,-0.08,1.0012,0.1675,0.0166,0.1084,-0.01,-0.0301,-0.0124,1.0125,-43.6875,-10.2563,,adl
4.769288,-0.0748,-0.08,1.0012,0.1311,0.0242,0.084,-0.01,-0.0301,-0.0124,1.0125,-43.6875,-10.2563,,adl
4.787291,-0.0748,-0.08,1.0012,0.0834,0.0474,0.0456,-0.01,-0.0301,-0.0124,1.0125,-43.6875,-10.2563,,adl
4.791169,-0.0748,-0.08,1.0012,0.0834,0.0474,0.0456,0.0047,0.0055,-0.0037,1.0125,-43.6875,-10.2563,,adl
4.802936,-0.0748,-0.08,1.0012,0.0834,0.0474,0.0456,0.0047,0.0055,-0.0037,1.0125,-43.8563,-10.7625,,adl
4.807479,-0.0748,-0.08,1.0012,0.0658,0.0689,0.108,0.0047,0.0055,-0.0037,1.0125,-43.8563,-10.7625,,adl
4.816158,-0.0785,-0.0756,1.0029,0.0658,0.0689,0.108,0.0047,0.0055,-0.0037,1.0125,-43.8563,-10.7625,,adl
4.826126,-0.0785,-0.0756,1.0029,0.1356,0.0569,0.0839,0.0047,0.0055,-0.0037,1.0125,-43.8563,-10.7625,,adl
4.846536,-0.0785,-0.0756,1.0029,0.1558,0.0643,0.0597,0.0047,0.0055,-0.0037,1.0125,-43.8563,-10.7625,,adl
4.855413,-0.0785,-0.0756,1.0029,0.1558,0.0643,0.0597,0.0169,-0.0005,-0.0014,1.0125,-43.8563,-10.7625,,adl
4.863163,-0.0785,-0.0756,1.0029,0.1558,0.0643,0.0597,0.0169,-0.0005,-0.0014,1.0125,-43.7625,-10.5563,,adl
4.866146,-0.076,-0.0773,0.9919,0.1558,0.0643,0.0597,0.0169,-0.0005,-0.0014,1.0125,-43.7625,-10.5563,,adl
4.868031,-0.076,-0.0773,0.9919,0.1183,0.0447,-0.0075,0.0169,-0.0005,-0.0014,1.0125,-43.7625,-10.5563,,adl
4.883997,-0.076,-0.0773,0.9919,0.0859,0.0663,0.0548,0.0169,-0.0005,-0.0014,1.0125,-43.7625,-10.5563,,adl
4.903626,-0.076,-0.0773,0.9919,0.1322,0.0196,0.055,0.0169,-0.0005,-0.0014,1.0125,-43.7625,-10.5563,,adl
4.912325,-0.0734,-0.0764,1.0024,0.1322,0.0196,0.055,0.0169,-0.0005,-0.0014,1.0125,-43.7625,-10.5563,,adl
4.916305,-0.0734,-0.0764,1.0024,0.1322,0.0196,0.055,0.0107,0.0044,0.0109,1.0125,-43.7625,-10.5563,,adl
4.923678,-0.0734,-0.0764,1.0024,0.162,0.0684,0.0909,0.0107,0.0044,0.0109,1.0125,-43.7625,-10.5563,,adl
4.924877,-0.0734,-0.0764,1.0024,0.162,0.0684,0.0909,0.0107,0.0044,0.0109,0.9938,-43.4813,-10.35,,adl
4.941519,-0.0734,-0.0764,1.0024,0.168,0.0698,-0.0532,0.0107,0.0044,0.0109,0.9938,-43.4813,-10.35,,adl
4.959888,-0.0719,-0.0749,0.9851,0.168,0.0698,-0.0532,0.0107,0.0044,0.0109,0.9938,-43.4813,-10.35,,adl
4.963913,-0.0719,-0.0749,0.9851,0.1599,0.0642,-0.0749,0.0107,0.0044,0.0109,0.9938,-43.4813,-10.35,,adl
4.97865,-0.0719,-0.0749,0.9851,0.1599,0.0642,-0.0749,-0.0247,-0.0078,0.0096,0.9938,-43.4813,-10.35,,adl
4.98049,-0.0719,-0.0749,0.9851,0.1135,0.0818,-0.0412,-0.0247,-0.0078,0.0096,0.9938,-43.4813,-10.35,,adl
4.982567,-0.0719,-0.0749,0.9851,0.1135,0.0818,-0.0412,-0.0247,-0.0078,0.0096,1.2188,-43.8188,-11.4,,adl
4.998504,-0.0719,-0.0749,0.9851,0.1809,0.07,0.0526,-0.0247,-0.0078,0.0096,1.2188,-43.8188,-11.4,,adl
5.011999,-0.0683,-0.0771,0.9983,0.1809,0.07,0.0526,-0.0247,-0.0078,0.0096,1.2188,-43.8188,-11.4,,adl
5.01793,-0.0683,-0.0771,0.9983,0.202,0.0584,0.0506,-0.0247,-0.0078,0.0096,1.2188,-43.8188,-11.4,,adl
5.037139,-0.0683,-0.0771,0.9983,0.1824,0.0602,0.1276,-0.0247,-0.0078,0.0096,1.2188,-43.8188,-11.4,,adl
5.042167,-0.0683,-0.0771,0.9983,0.1824,0.0602,0.1276,-0.0161,-0.0066,-0.0037,1.2188,-43.8188,-11.4,,adl
5.044426,-0.0683,-0.0771,0.9983,0.1824,0.0602,0.1276,-0.0161,-0.0066,-0.0037,0.9,-43.575,-10.35,,adl
5.05465,-0.0727,-0.0784,1.0044,0.1824,0.0602,0.1276,-0.0161,-0.0066,-0.0037,0.9,-43.575,-10.35,,adl
5.056383,-0.0727,-0.0784,1.0044,0.1488,0.0508,0.1156,-0.0161,-0.0066,-0.0037,0.9,-43.575,-10.35,,adl
5.075594,-0.0727,-0.0784,1.0044,0.1486,0.0445,0.0987,-0.0161,-0.0066,-0.0037,0.9,-43.575,-10.35,,adl
5.094627,-0.0727,-0.0784,1.0044,0.1422,0.0354,0.0725,-0.0161,-0.0066,-0.0037,0.9,-43.575,-10.35,,adl
5.103809,-0.0719,-0.0786,0.999,0.1422,0.0354,0.0725,-0.0161,-0.0066,-0.0037,0.9,-43.575,-10.35,,adl
5.108336,-0.0719,-0.0786,0.999,0.1422,0.0354,0.0725,0.0022,0.03,0.0096,0.9,-43.575,-10.35,,adl
5.11042,-0.0719,-0.0786,0.999,0.1422,0.0354,0.0725,0.0022,0.03,0.0096,1.1063,-43.6125,-11.4,,adl
5.114911,-0.0719,-0.0786,0.999,0.1436,0.0829,0.0778,0.0022,0.03,0.0096,1.1063,-43.6125,-11.4,,adl
5.132615,-0.0719,-0.0786,0.999,0.1134,0.0863,0.0377,0.0022,0.03,0.0096,1.1063,-43.6125,-11.4,,adl
5.151008,-0.0809,-0.074,0.997,0.1134,0.0863,0.0377,0.0022,0.03,0.0096,1.1063,-43.6125,-11.4,,adl
5.155087,-0.0809,-0.074,0.997,0.0856,0.0921,0.0452,0.0022,0.03,0.0096,1.1063,-43.6125,-11.4,,adl
5.163008,-0.0809,-0.074,0.997,0.0856,0.0921,0.0452,0.0022,0.03,0.0096,0.975,-43.0688,-10.6688,,adl
5.164424,-0.0809,-0.074,0.997,0.0856,0.0921,0.0452,0.0095,-0.0115,0.0023,0.975,-43.0688,-10.6688,,adl
5.171073,-0.0809,-0.074,0.997,0.0979,0.0592,0.0044,0.0095,-0.0115,0.0023,0.975,-43.0688,-10.6688,,adl
5.190028,-0.0809,-0.074,0.997,0.1059,0.0634,-0.0293,0.0095,-0.0115,0.0023,0.975,-43.0688,-10.6688,,adl
5.200399,-0.0741,-0.0786,0.9883,0.1059,0.0634,-0.0293,0.0095,-0.0115,0.0023,0.975,-43.0688,-10.6688,,adl
5.212281,-0.0741,-0.0786,0.9883,0.161,0.037,-0.0147,0.0095,-0.0115,0.0023,0.975,-43.0688,-10.6688,,adl
5.22315,-0.0741,-0.0786,0.9883,0.161,0.037,-0.0147,0.0095,-0.0115,0.0023,1.2,-43.5563,-10.9875,,adl
5.226967,-0.0741,-0.0786,0.9883,0.161,0.037,-0.0147,-0.0198,0.0104,0.0158,1.2,-43.5563,-10.9875,,adl
5.227939,-0.0741,-0.0786,0.9883,0.1793,0.0694,0.0671,-0.0198,0.0104,0.0158,1.2,-43.5563,-10.9875,,adl
5.246563,-0.0734,-0.0791,1.0063,0.1793,0.0694,0.0671,-0.0198,0.0104,0.0158,1.2,-43.5563,-10.9875,,adl
5.248232,-0.0734,-0.0791,1.0063,0.1626,0.048,0.137,-0.0198,0.0104,0.0158,1.2,-43.5563,-10.9875,,adl
5.267113,-0.0734,-0.0791,1.0063,0.1367,0.0572,0.1827,-0.0198,0.0104,0.0158,1.2,-43.5563,-10.9875,,adl
5.283363,-0.0734,-0.0791,1.0063,0.1367,0.0572,0.1827,-0.0198,0.0104,0.0158,1.0125,-43.6875,-10.2563,,adl
5.286235,-0.0734,-0.0791,1.0063,0.1504,0.0488,0.1443,-0.0198,0.0104,0.0158,1.0125,-43.6875,-10.2563,,adl
5.288814,-0.0734,-0.0791,1.0063,0.1504,0.0488,0.1443,0.0254,0.0067,0.0121,1.0125,-43.6875,-10.2563,,adl
5.293416,-0.076,-0.0796,1.0083,0.1504,0.0488,0.1443,0.0254,0.0067,0.0121,1.0125,-43.6875,-10.2563,,adl
5.304316,-0.076,-0.0796,1.0083,0.1888,0.037,0.1199,0.0254,0.0067,0.0121,1.0125,-43.6875,-10.2563,,adl
5.32356,-0.076,-0.0796,1.0083,0.1518,0.0772,-0.0001,0.0254,0.0067,0.0121,1.0125,-43.6875,-10.2563,,adl
5.342634,-0.0797,-0.0732,0.9895,0.1518,0.0772,-0.0001,0.0254,0.0067,0.0121,1.0125,-43.6875,-10.2563,,adl
5.346577,-0.0797,-0.0732,0.9895,0.1131,0.0873,-0.0286,0.0254,0.0067,0.0121,1.0125,-43.6875,-10.2563,,adl
5.349232,-0.0797,-0.0732,0.9895,0.1131,0.0873,-0.0286,0.0254,0.0067,0.0121,0.525,-43.5375,-10.8563,,adl
5.351708,-0.0797,-0.0732,0.9895,0.1131,0.0873,-0.0286,0.0082,0.041,0.0109,0.525,-43.5375,-10.8563,,adl
5.361637,-0.0797,-0.0732,0.9895,0.1181,0.0975,0.0963,0.0082,0.041,0.0109,0.525,-43.5375,-10.8563,,adl
5.381233,-0.0797,-0.0732,0.9895,0.2104,0.0591,0.1556,0.0082,0.041,0.0109,0.525,-43.5375,-10.8563,,adl
5.389433,-0.0641,-0.074,0.9934,0.2104,0.0591,0.1556,0.0082,0.041,0.0109,0.525,-43.5375,-10.8563,,adl
5.400582,-0.0641,-0.074,0.9934,0.2485,0.1368,-0.0707,0.0082,0.041,0.0109,0.525,-43.5375,-10.8563,,adl
5.402375,-0.0641,-0.074,0.9934,0.2485,0.1368,-0.0707,0.0082,0.041,0.0109,1.3125,-43.8563,-10.7812,,adl
5.413586,-0.0641,-0.074,0.9934,0.2485,0.1368,-0.0707,0.0034,-0.0018,-0.0429,1.3125,-43.8563,-10.7812,,adl
5.421219,-0.0641,-0.074,0.9934,0.1933,0.1281,0.0604,0.0034,-0.0018,-0.0429,1.3125,-43.8563,-10.7812,,adl
5.437886,-0.0807,-0.0715,1.0144,0.1933,0.1281,0.0604,0.0034,-0.0018,-0.0429,1.3125,-43.8563,-10.7812,,adl
5.439921,-0.0807,-0.0715,1.0144,0.0868,0.1003,0.2138,0.0034,-0.0018,-0.0429,1.3125,-43.8563,-10.7812,,adl
5.457638,-0.0807,-0.0715,1.0144,0.196,-0.0308,0.1909,0.0034,-0.0018,-0.0429,1.3125,-43.8563,-10.7812,,adl
5.463362,-0.0807,-0.0715,1.0144,0.196,-0.0308,0.1909,0.0034,-0.0018,-0.0429,0.8063,-43.6688,-10.35,,adl
5.475825,-0.0807,-0.0715,1.0144,0.196,-0.0308,0.1909,0.0192,0.0825,-0.0747,0.8063,-43.6688,-10.35,,adl
5.477601,-0.0807,-0.0715,1.0144,0.3065,0.0997,0.0434,0.0192,0.0825,-0.0747,0.8063,-43.6688,-10.35,,adl
5.485942,-0.0732,-0.0612,0.9734,0.3065,0.0997,0.0434,0.0192,0.0825,-0.0747,0.8063,-43.6688,-10.35,,adl
5.496295,-0.0732,-0.0612,0.9734,0.1273,0.1784,-0.1481,0.0192,0.0825,-0.0747,0.8063,-43.6688,-10.35,,adl
5.515604,-0.0732,-0.0612,0.9734,0.1187,0.0618,-0.0238,0.0192,0.0825,-0.0747,0.8063,-43.6688,-10.35,,adl
5.523322,-0.0732,-0.0612,0.9734,0.1187,0.0618,-0.0238,0.0192,0.0825,-0.0747,1.275,-43.1063,-10.1438,,adl
5.532863,-0.0878,-0.0659,0.9611,0.1187,0.0618,-0.0238,0.0192,0.0825,-0.0747,1.275,-43.1063,-10.1438,,adl
5.534632,-0.0878,-0.0659,0.9611,-0.0665,0.1796,-0.3133,0.0192,0.0825,-0.0747,1.275,-43.1063,-10.1438,,adl
5.537554,-0.0878,-0.0659,0.9611,-0.0665,0.1796,-0.3133,-0.1236,-0.3341,-0.1797,1.275,-43.1063,-10.1438,,adl
5.553378,-0.0878,-0.0659,0.9611,-0.0766,-0.0495,-0.4268,-0.1236,-0.3341,-0.1797,1.275,-43.1063,-10.1438,,adl
5.572427,-0.0878,-0.0659,0.9611,-0.1424,-0.0311,0.1266,-0.1236,-0.3341,-0.1797,1.275,-43.1063,-10.1438,,adl
5.580962,-0.0868,-0.094,1.0279,-0.1424,-0.0311,0.1266,-0.1236,-0.3341,-0.1797,1.275,-43.1063,-10.1438,,adl
5.585544,-0.0868,-0.094,1.0279,-0.1424,-0.0311,0.1266,-0.1236,-0.3341,-0.1797,1.2938,-43.425,-11.4938,,adl
5.591344,-0.0868,-0.094,1.0279,-0.0552,0.0148,0.5758,-0.1236,-0.3341,-0.1797,1.2938,-43.425,-11.4938,,adl
5.599978,-0.0868,-0.094,1.0279,-0.0552,0.0148,0.5758,-0.0381,-0.1911,0.0109,1.2938,-43.425,-11.4938,,adl
5.610939,-0.0868,-0.094,1.0279,0.1094,0.0012,0.4966,-0.0381,-0.1911,0.0109,1.2938,-43.425,-11.4938,,adl
5.629986,-0.0553,-0.0776,1.0029,0.1094,0.0012,0.4966,-0.0381,-0.1911,0.0109,1.2938,-43.425,-11.4938,,adl
5.633436,-0.0553,-0.0776,1.0029,0.1038,0.1467,0.0925,-0.0381,-0.1911,0.0109,1.2938,-43.425,-11.4938,,adl
5.644509,-0.0553,-0.0776,1.0029,0.1038,0.1467,0.0925,-0.0381,-0.1911,0.0109,1.2938,-43.6875,-10.2563,,adl
5.649787,-0.0553,-0.0776,1.0029,0.0363,0.051,-0.078,-0.0381,-0.1911,0.0109,1.2938,-43.6875,-10.2563,,adl
5.662172,-0.0553,-0.0776,1.0029,0.0363,0.051,-0.078,0.04,-0.1239,0.0146,1.2938,-43.6875,-10.2563,,adl
5.667952,-0.0553,-0.0776,1.0029,0.107,0.0473,-0.0178,0.04,-0.1239,0.0146,1.2938,-43.6875,-10.2563,,adl
5.678267,-0.0473,-0.081,0.9997,0.107,0.0473,-0.0178,0.04,-0.1239,0.0146,1.2938,-43.6875,-10.2563,,adl
5.687339,-0.0473,-0.081,0.9997,0.1195,0.0991,0.0366,0.04,-0.1239,0.0146,1.2938,-43.6875,-10.2563,,adl
5.703358,-0.0473,-0.081,0.9997,0.1195,0.0991,0.0366,0.04,-0.1239,0.0146,1.2938,-43.275,-10.6688,,adl
5.706488,-0.0473,-0.081,0.9997,0.1628,0.0372,-0.3642,0.04,-0.1239,0.0146,1.2938,-43.275,-10.6688,,adl
5.724671,-0.0372,-0.0837,0.9384,0.1628,0.0372,-0.3642,0.04,-0.1239,0.0146,1.2938,-43.275,-10.6688,,adl
5.726359,-0.0372,-0.0837,0.9384,0.1628,0.0372,-0.3642,-0.0051,-0.0996,0.0414,1.2938,-43.275,-10.6688,,adl
5.72753,-0.0372,-0.0837,0.9384,0.1015,0.0566,-0.5527,-0.0051,-0.0996,0.0414,1.2938,-43.275,-10.6688,,adl
5.744506,-0.0372,-0.0837,0.9384,0.1046,0.0543,-0.1905,-0.0051,-0.0996,0.0414,1.2938,-43.275,-10.6688,,adl
5.76313,-0.0372,-0.0837,0.9384,0.2136,0.1311,0.2537,-0.0051,-0.0996,0.0414,1.2938,-43.275,-10.6688,,adl
5.764825,-0.0372,-0.0837,0.9384,0.2136,0.1311,0.2537,-0.0051,-0.0996,0.0414,1.1063,-43.4438,-10.875,,adl
5.772991,-0.0176,-0.0857,1.0214,0.2136,0.1311,0.2537,-0.0051,-0.0996,0.0414,1.1063,-43.4438,-10.875,,adl
5.782646,-0.0176,-0.0857,1.0214,0.266,0.0685,0.1609,-0.0051,-0.0996,0.0414,1.1063,-43.4438,-10.875,,adl
5.78799,-0.0176,-0.0857,1.0214,0.266,0.0685,0.1609,-0.0271,-0.0128,0.0609,1.1063,-43.4438,-10.875,,adl
5.801845,-0.0176,-0.0857,1.0214,0.2489,0.1343,0.1681,-0.0271,-0.0128,0.0609,1.1063,-43.4438,-10.875,,adl
5.82046,-0.0201,-0.0871,1.027,0.2489,0.1343,0.1681,-0.0271,-0.0128,0.0609,1.1063,-43.4438,-10.875,,adl
5.824355,-0.0201,-0.0871,1.027,0.2353,0.0656,0.3188,-0.0271,-0.0128,0.0609,1.1063,-43.4438,-10.875,,adl
5.826482,-0.0201,-0.0871,1.027,0.2353,0.0656,0.3188,-0.0271,-0.0128,0.0609,0.4125,-43.2938,-11.5875,,adl
5.840063,-0.0201,-0.0871,1.027,0.1654,0.0129,0.3115,-0.0271,-0.0128,0.0609,0.4125,-43.2938,-11.5875,,adl
5.849297,-0.0201,-0.0871,1.027,0.1654,0.0129,0.3115,0.0364,0.0459,0.0169,0.4125,-43.2938,-11.5875,,adl
5.859114,-0.0201,-0.0871,1.027,0.0233,0.0196,0.2777,0.0364,0.0459,0.0169,0.4125,-43.2938,-11.5875,,adl
5.868251,-0.0431,-0.0908,1.0219,0.0233,0.0196,0.2777,0.0364,0.0459,0.0169,0.4125,-43.2938,-11.5875,,adl
5.8785,-0.0431,-0.0908,1.0219,0.0171,0.0154,0.1833,0.0364,0.0459,0.0169,0.4125,-43.2938,-11.5875,,adl
5.883485,-0.0431,-0.0908,1.0219,0.0171,0.0154,0.1833,0.0364,0.0459,0.0169,0.5063,-43.2,-11.475,,adl
5.898049,-0.0431,-0.0908,1.0219,0.0232,0.0409,0.0235,0.0364,0.0459,0.0169,0.5063,-43.2,-11.475,,adl
5.910522,-0.0431,-0.0908,1.0219,0.0232,0.0409,0.0235,0.1182,-0.0494,0.0549,0.5063,-43.2,-11.475,,adl
5.9159,-0.0382,-0.0861,0.9843,0.0232,0.0409,0.0235,0.1182,-0.0494,0.0549,0.5063,-43.2,-11.475,,adl
5.917149,-0.0382,-0.0861,0.9843,0.0639,0.0125,-0.1056,0.1182,-0.0494,0.0549,0.5063,-43.2,-11.475,,adl
5.93629,-0.0382,-0.0861,0.9843,0.1148,0.1067,-0.4048,0.1182,-0.0494,0.0549,0.5063,-43.2,-11.475,,adl
5.946051,-0.0382,-0.0861,0.9843,0.1148,0.1067,-0.4048,0.1182,-0.0494,0.0549,0.4125,-43.5563,-10.5375,,adl
5.955009,-0.0382,-0.0861,0.9843,0.1506,0.161,-0.4783,0.1182,-0.0494,0.0549,0.4125,-43.5563,-10.5375,,adl
5.963855,-0.0252,-0.0673,0.9513,0.1506,0.161,-0.4783,0.1182,-0.0494,0.0549,0.4125,-43.5563,-10.5375,,adl
5.973673,-0.0252,-0.0673,0.9513,0.1506,0.161,-0.4783,-0.0308,-0.0531,0.0414,0.4125,-43.5563,-10.5375,,adl
5.977577,-0.0252,-0.0673,0.9513,0.1482,0.1518,-0.359,-0.0308,-0.0531,0.0414,0.4125,-43.5563,-10.5375,,adl
5.99342,-0.0252,-0.0673,0.9513,0.1974,0.1681,-0.1696,-0.0308,-0.0531,0.0414,0.4125,-43.5563,-10.5375,,adl
6.003183,-0.0252,-0.0673,0.9513,0.1974,0.1681,-0.1696,-0.0308,-0.0531,0.0414,0.0188,-43.4438,-10.3313,,adl
6.011342,-0.012,-0.0773,0.9981,0.1974,0.1681,-0.1696,-0.0308,-0.0531,0.0414,0.0188,-43.4438,-10.3313,,adl
6.012975,-0.012,-0.0773,0.9981,0.2516,0.0896,0.0248,-0.0308,-0.0531,0.0414,0.0188,-43.4438,-10.3313,,adl
6.031839,-0.012,-0.0773,0.9981,0.2248,0.0724,0.0876,-0.0308,-0.0531,0.0414,0.0188,-43.4438,-10.3313,,adl
6.035494,-0.012,-0.0773,0.9981,0.2248,0.0724,0.0876,-0.0808,-0.0934,-0.0014,0.0188,-43.4438,-10.3313,,adl
6.050629,-0.012,-0.0773,0.9981,0.2247,0.0636,0.1482,-0.0808,-0.0934,-0.0014,0.0188,-43.4438,-10.3313,,adl
6.059062,-0.0128,-0.0825,1.0161,0.2247,0.0636,0.1482,-0.0808,-0.0934,-0.0014,0.0188,-43.4438,-10.3313,,adl
6.062867,-0.0128,-0.0825,1.0161,0.2247,0.0636,0.1482,-0.0808,-0.0934,-0.0014,0.4313,-43.6125,-11.2688,,adl
6.069269,-0.0128,-0.0825,1.0161,0.1589,0.0453,0.228,-0.0808,-0.0934,-0.0014,0.4313,-43.6125,-11.2688,,adl
6.088783,-0.0128,-0.0825,1.0161,0.1433,0.0472,0.1186,-0.0808,-0.0934,-0.0014,0.4313,-43.6125,-11.2688,,adl
6.098135,-0.0128,-0.0825,1.0161,0.1433,0.0472,0.1186,-0.0368,0.0447,-0.0184,0.4313,-43.6125,-11.2688,,adl
6.107013,-0.0243,-0.0828,1.0093,0.1433,0.0472,0.1186,-0.0368,0.0447,-0.0184,0.4313,-43.6125,-11.2688,,adl
6.109279,-0.0243,-0.0828,1.0093,0.0825,0.0969,0.1386,-0.0368,0.0447,-0.0184,0.4313,-43.6125,-11.2688,,adl
6.122575,-0.0243,-0.0828,1.0093,0.0825,0.0969,0.1386,-0.0368,0.0447,-0.0184,0.5063,-43.425,-10.8563,,adl
6.127163,-0.0243,-0.0828,1.0093,0.0635,0.0602,-0.0042,-0.0368,0.0447,-0.0184,0.5063,-43.425,-10.8563,,adl
6.146389,-0.0243,-0.0828,1.0093,-0.014,0.0628,-0.0512,-0.0368,0.0447,-0.0184,0.5063,-43.425,-10.8563,,adl
6.157083,-0.0341,-0.0893,0.9787,-0.014,0.0628,-0.0512,-0.0368,0.0447,-0.0184,0.5063,-43.425,-10.8563,,adl
6.160489,-0.0341,-0.0893,0.9787,-0.014,0.0628,-0.0512,-0.0503,0.0287,-0.0074,0.5063,-43.425,-10.8563,,adl
6.165887,-0.0341,-0.0893,0.9787,0.0154,0.0584,-0.1482,-0.0503,0.0287,-0.0074,0.5063,-43.425,-10.8563,,adl
6.183531,-0.0341,-0.0893,0.9787,0.0154,0.0584,-0.1482,-0.0503,0.0287,-0.0074,0.6938,-43.1063,-11.3813,,adl
6.187481,-0.0341,-0.0893,0.9787,0.0104,0.081,0.016,-0.0503,0.0287,-0.0074,0.6938,-43.1063,-11.3813,,adl
6.201798,-0.0299,-0.0973,1.0046,0.0104,0.081,0.016,-0.0503,0.0287,-0.0074,0.6938,-43.1063,-11.3813,,adl
6.203344,-0.0299,-0.0973,1.0046,0.0514,0.0027,0.0987,-0.0503,0.0287,-0.0074,0.6938,-43.1063,-11.3813,,adl
6.22162,-0.0299,-0.0973,1.0046,0.0514,0.0027,0.0987,-0.0418,-0.0641,-0.0087,0.6938,-43.1063,-11.3813,,adl
6.223238,-0.0299,-0.0973,1.0046,-0.0261,0.0881,0.1112,-0.0418,-0.0641,-0.0087,0.6938,-43.1063,-11.3813,,adl
6.24307,-0.0299,-0.0973,1.0046,0.003,0.0316,0.0206,-0.0418,-0.0641,-0.0087,0.6938,-43.1063,-11.3813,,adl
6.24674,-0.0299,-0.0973,1.0046,0.003,0.0316,0.0206,-0.0418,-0.0641,-0.0087,-0.1688,-43.0875,-11.3438,,adl
6.250616,-0.0326,-0.0961,1.0012,0.003,0.0316,0.0206,-0.0418,-0.0641,-0.0087,-0.1688,-43.0875,-11.3438,,adl
6.260556,-0.0326,-0.0961,1.0012,0.058,0.0659,0.0857,-0.0418,-0.0641,-0.0087,-0.1688,-43.0875,-11.3438,,adl
6.280247,-0.0326,-0.0961,1.0012,0.1,0.0682,0.1747,-0.0418,-0.0641,-0.0087,-0.1688,-43.0875,-11.3438,,adl
6.284374,-0.0326,-0.0961,1.0012,0.1,0.0682,0.1747,-0.0076,-0.0055,0.0291,-0.1688,-43.0875,-11.3438,,adl
6.298107,-0.0167,-0.092,1.0273,0.1,0.0682,0.1747,-0.0076,-0.0055,0.0291,-0.1688,-43.0875,-11.3438,,adl
6.299651,-0.0167,-0.092,1.0273,0.1398,0.0833,0.3228,-0.0076,-0.0055,0.0291,-0.1688,-43.0875,-11.3438,,adl
6.304587,-0.0167,-0.092,1.0273,0.1398,0.0833,0.3228,-0.0076,-0.0055,0.0291,0.3938,-43.0312,-10.7438,,adl
6.318416,-0.0167,-0.092,1.0273,0.1545,0.0825,0.1538,-0.0076,-0.0055,0.0291,0.3938,-43.0312,-10.7438,,adl
6.3374,-0.0167,-0.092,1.0273,0.1237,0.0936,-0.0035,-0.0076,-0.0055,0.0291,0.3938,-43.0312,-10.7438,,adl
6.346231,-0.0174,-0.0901,0.9855,0.1237,0.0936,-0.0035,-0.0076,-0.0055,0.0291,0.3938,-43.0312,-10.7438,,adl
6.348494,-0.0174,-0.0901,0.9855,0.1237,0.0936,-0.0035,0.045,-0.0836,-0.0099,0.3938,-43.0312,-10.7438,,adl
6.35609,-0.0174,-0.0901,0.9855,0.0846,0.0956,-0.1459,0.045,-0.0836,-0.0099,0.3938,-43.0312,-10.7438,,adl
6.36342,-0.0174,-0.0901,0.9855,0.0846,0.0956,-0.1459,0.045,-0.0836,-0.0099,0.225,-43.2938,-11.2688,,adl
6.376044,-0.0174,-0.0901,0.9855,0.0826,0.0739,-0.0649,0.045,-0.0836,-0.0099,0.225,-43.2938,-11.2688,,adl
6.393973,-0.0192,-0.0896,0.999,0.0826,0.0739,-0.0649,0.045,-0.0836,-0.0099,0.225,-43.2938,-11.2688,,adl
6.395677,-0.0192,-0.0896,0.999,0.0576,0.0782,0.0405,0.045,-0.0836,-0.0099,0.225,-43.2938,-11.2688,,adl
6.408266,-0.0192,-0.0896,0.999,0.0576,0.0782,0.0405,0.0047,0.0032,0.0084,0.225,-43.2938,-11.2688,,adl
6.414714,-0.0192,-0.0896,0.999,0.0579,0.0851,0.0309,0.0047,0.0032,0.0084,0.225,-43.2938,-11.2688,,adl
6.424757,-0.0192,-0.0896,0.999,0.0579,0.0851,0.0309,0.0047,0.0032,0.0084,0.4125,-43.3313,-10.95,,adl
6.43293,-0.0192,-0.0896,0.999,0.0676,0.0705,0.0236,0.0047,0.0032,0.0084,0.4125,-43.3313,-10.95,,adl
6.441189,-0.0171,-0.091,0.9956,0.0676,0.0705,0.0236,0.0047,0.0032,0.0084,0.4125,-43.3313,-10.95,,adl
6.453782,-0.0171,-0.091,0.9956,0.0626,0.0628,0.0452,0.0047,0.0032,0.0084,0.4125,-43.3313,-10.95,,adl
6.470442,-0.0171,-0.091,0.9956,0.0626,0.0628,0.0452,-0.015,-0.0336,-0.0074,0.4125,-43.3313,-10.95,,adl
6.474309,-0.0171,-0.091,0.9956,0.0374,0.0422,0.0909,-0.015,-0.0336,-0.0074,0.4125,-43.3313,-10.95,,adl
6.48317,-0.0171,-0.091,0.9956,0.0374,0.0422,0.0909,-0.015,-0.0336,-0.0074,0.1313,-43.4062,-11.0438,,adl
6.489194,-0.0223,-0.0952,1.0014,0.0374,0.0422,0.0909,-0.015,-0.0336,-0.0074,0.1313,-43.4062,-11.0438,,adl
6.491215,-0.0223,-0.0952,1.0014,0.0093,0.0303,0.0647,-0.015,-0.0336,-0.0074,0.1313,-43.4062,-11.0438,,adl
6.509703,-0.0223,-0.0952,1.0014,0.0006,0.0805,0.0599,-0.015,-0.0336,-0.0074,0.1313,-43.4062,-11.0438,,adl
6.528428,-0.0223,-0.0952,1.0014,0.036,0.0535,0.055,-0.015,-0.0336,-0.0074,0.1313,-43.4062,-11.0438,,adl
6.532407,-0.0223,-0.0952,1.0014,0.036,0.0535,0.055,0.007,-0.0263,0.0133,0.1313,-43.4062,-11.0438,,adl
6.537575,-0.0152,-0.0942,1.0037,0.036,0.0535,0.055,0.007,-0.0263,0.0133,0.1313,-43.4062,-11.0438,,adl
6.543954,-0.0152,-0.0942,1.0037,0.036,0.0535,0.055,0.007,-0.0263,0.0133,0.225,-43.1813,-11.6813,,adl
6.546931,-0.0152,-0.0942,1.0037,0.0129,0.0739,0.1289,0.007,-0.0263,0.0133,0.225,-43.1813,-11.6813,,adl
6.56759,-0.0152,-0.0942,1.0037,0.0386,0.0646,0.0447,0.007,-0.0263,0.0133,0.225,-43.1813,-11.6813,,adl
6.585324,-0.0111,-0.0905,1.0083,0.0386,0.0646,0.0447,0.007,-0.0263,0.0133,0.225,-43.1813,-11.6813,,adl
6.589069,-0.0111,-0.0905,1.0083,0.0863,0.0693,0.1304,0.007,-0.0263,0.0133,0.225,-43.1813,-11.6813,,adl
6.594604,-0.0111,-0.0905,1.0083,0.0863,0.0693,0.1304,0.0205,-0.0678,0.0109,0.225,-43.1813,-11.6813,,adl
6.602993,-0.0111,-0.0905,1.0083,0.0863,0.0693,0.1304,0.0205,-0.0678,0.0109,0.3938,-43.0125,-11.1562,,adl
6.606464,-0.0111,-0.0905,1.0083,0.1164,0.0512,0.0484,0.0205,-0.0678,0.0109,0.3938,-43.0125,-11.1562,,adl
6.624207,-0.0111,-0.0905,1.0083,0.0658,0.0742,0.086,0.0205,-0.0678,0.0109,0.3938,-43.0125,-11.1562,,adl
6.633883,-0.012,-0.0896,1.0049,0.0658,0.0742,0.086,0.0205,-0.0678,0.0109,0.3938,-43.0125,-11.1562,,adl
6.644873,-0.012,-0.0896,1.0049,0.0463,0.0805,0.1045,0.0205,-0.0678,0.0109,0.3938,-43.0125,-11.1562,,adl
6.6565,-0.012,-0.0896,1.0049,0.0463,0.0805,0.1045,0.0327,-0.0384,0.0071,0.3938,-43.0125,-11.1562,,adl
6.662492,-0.012,-0.0896,1.0049,0.0181,0.0864,0.0799,0.0327,-0.0384,0.0071,0.3938,-43.0125,-11.1562,,adl
6.66387,-0.012,-0.0896,1.0049,0.0181,0.0864,0.0799,0.0327,-0.0384,0.0071,0.3188,-43.3125,-11.1562,,adl
6.680984,-0.0103,-0.0868,0.9995,0.0181,0.0864,0.0799,0.0327,-0.0384,0.0071,0.3188,-43.3125,-11.1562,,adl
6.682979,-0.0103,-0.0868,0.9995,0.0545,0.0773,0.0408,0.0327,-0.0384,0.0071,0.3188,-43.3125,-11.1562,,adl
6.701017,-0.0103,-0.0868,0.9995,0.0853,0.0731,-0.0269,0.0327,-0.0384,0.0071,0.3188,-43.3125,-11.1562,,adl
6.719292,-0.0103,-0.0868,0.9995,0.0853,0.0731,-0.0269,0.0254,0.0142,-0.0074,0.3188,-43.3125,-11.1562,,adl
6.722367,-0.0103,-0.0868,0.9995,0.0755,0.1151,-0.0012,0.0254,0.0142,-0.0074,0.3188,-43.3125,-11.1562,,adl
6.724706,-0.0103,-0.0868,0.9995,0.0755,0.1151,-0.0012,0.0254,0.0142,-0.0074,-0.075,-43.5188,-10.6313,,adl
6.728438,-0.0077,-0.0825,1.0085,0.0755,0.1151,-0.0012,0.0254,0.0142,-0.0074,-0.075,-43.5188,-10.6313,,adl
6.739177,-0.0077,-0.0825,1.0085,0.0865,0.1147,0.2953,0.0254,0.0142,-0.0074,-0.075,-43.5188,-10.6313,,adl
6.758567,-0.0077,-0.0825,1.0085,0.1938,0.0773,0.5146,0.0254,0.0142,-0.0074,-0.075,-43.5188,-10.6313,,adl
6.776681,0.0017,-0.0901,1.0109,0.1938,0.0773,0.5146,0.0254,0.0142,-0.0074,-0.075,-43.5188,-10.6313,,adl
6.780644,0.0017,-0.0901,1.0109,0.1712,0.0024,0.1492,0.0254,0.0142,-0.0074,-0.075,-43.5188,-10.6313,,adl
6.783217,0.0017,-0.0901,1.0109,0.1712,0.0024,0.1492,0.1122,0.14,-0.038,-0.075,-43.5188,-10.6313,,adl
6.784937,0.0017,-0.0901,1.0109,0.1712,0.0024,0.1492,0.1122,0.14,-0.038,0.3188,-43.425,-10.95,,adl
6.796636,0.0017,-0.0901,1.0109,0.1272,0.1221,0.1791,0.1122,0.14,-0.038,0.3188,-43.425,-10.95,,adl
6.815322,0.0017,-0.0901,1.0109,0.1836,0.0783,0.1666,0.1122,0.14,-0.038,0.3188,-43.425,-10.95,,adl
6.823886,-0.0038,-0.0854,1.0102,0.1836,0.0783,0.1666,0.1122,0.14,-0.038,0.3188,-43.425,-10.95,,adl
6.834728,-0.0038,-0.0854,1.0102,0.1859,0.0394,0.0681,0.1122,0.14,-0.038,0.3188,-43.425,-10.95,,adl
6.844846,-0.0038,-0.0854,1.0102,0.1859,0.0394,0.0681,0.1268,0.2621,-0.0294,0.3188,-43.425,-10.95,,adl
6.848287,-0.0038,-0.0854,1.0102,0.1859,0.0394,0.0681,0.1268,0.2621,-0.0294,0.4313,-43.725,-10.7438,,adl
6.854934,-0.0038,-0.0854,1.0102,0.0909,0.0898,-0.2222,0.1268,0.2621,-0.0294,0.4313,-43.725,-10.7438,,adl
6.872076,-0.0343,-0.0717,0.9508,0.0909,0.0898,-0.2222,0.1268,0.2621,-0.0294,0.4313,-43.725,-10.7438,,adl
6.87387,-0.0343,-0.0717,0.9508,0.0126,0.0829,-0.4432,0.1268,0.2621,-0.0294,0.4313,-43.725,-10.7438,,adl
6.891491,-0.0343,-0.0717,0.9508,-0.0709,0.0984,-0.6331,0.1268,0.2621,-0.0294,0.4313,-43.725,-10.7438,,adl
6.903172,-0.0343,-0.0717,0.9508,-0.0709,0.0984,-0.6331,0.1268,0.2621,-0.0294,0.7125,-43.4438,-10.7625,,adl
6.907185,-0.0343,-0.0717,0.9508,-0.0709,0.0984,-0.6331,0.023,-0.0238,-0.0331,0.7125,-43.4438,-10.7625,,adl
6.91023,-0.0343,-0.0717,0.9508,-0.0929,0.0844,-0.6646,0.023,-0.0238,-0.0331,0.7125,-43.4438,-10.7625,,adl
6.920106,-0.0511,-0.0644,0.934,-0.0929,0.0844,-0.6646,0.023,-0.0238,-0.0331,0.7125,-43.4438,-10.7625,,adl
6.930033,-0.0511,-0.0644,0.934,-0.1351,0.1022,-0.5349,0.023,-0.0238,-0.0331,0.7125,-43.4438,-10.7625,,adl
6.950284,-0.0511,-0.0644,0.934,-0.0925,0.0622,-0.1718,0.023,-0.0238,-0.0331,0.7125,-43.4438,-10.7625,,adl
6.965133,-0.0511,-0.0644,0.934,-0.0925,0.0622,-0.1718,0.023,-0.0238,-0.0331,0.225,-43.5563,-10.3313,,adl
6.967896,-0.0404,-0.08,1.0095,-0.0925,0.0622,-0.1718,0.023,-0.0238,-0.0331,0.225,-43.5563,-10.3313,,adl
6.969147,-0.0404,-0.08,1.0095,-0.0925,0.0622,-0.1718,-0.1554,-0.0506,0.0096,0.225,-43.5563,-10.3313,,adl
6.970126,-0.0404,-0.08,1.0095,-0.0555,0.0408,0.1344,-0.1554,-0.0506,0.0096,0.225,-43.5563,-10.3313,,adl
6.987904,-0.0404,-0.08,1.0095,0.0623,0.0216,0.4955,-0.1554,-0.0506,0.0096,0.225,-43.5563,-10.3313,,adl
7.007074,-0.0404,-0.08,1.0095,0.0375,0.0541,0.6092,-0.1554,-0.0506,0.0096,0.225,-43.5563,-10.3313,,adl
7.015762,-0.0252,-0.0857,1.0549,0.0375,0.0541,0.6092,-0.1554,-0.0506,0.0096,0.225,-43.5563,-10.3313,,adl
7.023527,-0.0252,-0.0857,1.0549,0.0375,0.0541,0.6092,-0.1554,-0.0506,0.0096,0.225,-43.5188,-10.8563,,adl
7.027151,-0.0252,-0.0857,1.0549,0.0856,0.026,0.5231,-0.1554,-0.0506,0.0096,0.225,-43.5188,-10.8563,,adl
7.028645,-0.0252,-0.0857,1.0549,0.0856,0.026,0.5231,0.018,0.0067,0.0071,0.225,-43.5188,-10.8563,,adl
7.045781,-0.0252,-0.0857,1.0549,0.101,0.0618,0.3671,0.018,0.0067,0.0071,0.225,-43.5188,-10.8563,,adl
7.063718,-0.0206,-0.0812,1.0112,0.101,0.0618,0.3671,0.018,0.0067,0.0071,0.225,-43.5188,-10.8563,,adl
7.067883,-0.0206,-0.0812,1.0112,0.1345,0.0627,0.1539,0.018,0.0067,0.0071,0.225,-43.5188,-10.8563,,adl
7.083414,-0.0206,-0.0812,1.0112,0.1359,0.0695,-0.0206,0.018,0.0067,0.0071,0.225,-43.5188,-10.8563,,adl
7.087584,-0.0206,-0.0812,1.0112,0.1359,0.0695,-0.0206,0.018,0.0067,0.0071,-0.1688,-43.5188,-10.8375,,adl
7.09255,-0.0206,-0.0812,1.0112,0.1359,0.0695,-0.0206,0.0595,0.1937,0.0206,-0.1688,-43.5188,-10.8375,,adl
7.101957,-0.0206,-0.0812,1.0112,0.1121,0.1413,-0.1401,0.0595,0.1937,0.0206,-0.1688,-43.5188,-10.8375,,adl
7.111446,-0.0304,-0.0715,0.9741,0.1121,0.1413,-0.1401,0.0595,0.1937,0.0206,-0.1688,-43.5188,-10.8375,,adl
7.123061,-0.0304,-0.0715,0.9741,0.0895,0.1377,-0.2432,0.0595,0.1937,0.0206,-0.1688,-43.5188,-10.8375,,adl
7.140903,-0.0304,-0.0715,0.9741,0.089,0.1126,-0.3159,0.0595,0.1937,0.0206,-0.1688,-43.5188,-10.8375,,adl
7.145752,-0.0304,-0.0715,0.9741,0.089,0.1126,-0.3159,0.0595,0.1937,0.0206,0.4125,-43.3313,-10.7438,,adl
7.153539,-0.0304,-0.0715,0.9741,0.089,0.1126,-0.3159,0.018,-0.1081,-0.0269,0.4125,-43.3313,-10.7438,,adl
7.158981,-0.0336,-0.0686,0.9599,0.089,0.1126,-0.3159,0.018,-0.1081,-0.0269,0.4125,-43.3313,-10.7438,,adl
7.16027,-0.0336,-0.0686,0.9599,0.0726,0.1394,-0.3505,0.018,-0.1081,-0.0269,0.4125,-43.3313,-10.7438,,adl
7.178389,-0.0336,-0.0686,0.9599,0.0616,0.0932,-0.3606,0.018,-0.1081,-0.0269,0.4125,-43.3313,-10.7438,,adl
7.198192,-0.0336,-0.0686,0.9599,0.0557,0.0308,-0.0915,0.018,-0.1081,-0.0269,0.4125,-43.3313,-10.7438,,adl
7.204185,-0.0336,-0.0686,0.9599,0.0557,0.0308,-0.0915,0.018,-0.1081,-0.0269,0.4875,-43.1813,-10.125,,adl
7.207675,-0.0348,-0.0796,1.0027,0.0557,0.0308,-0.0915,0.018,-0.1081,-0.0269,0.4875,-43.1813,-10.125,,adl
7.216653,-0.0348,-0.0796,1.0027,0.0557,0.0308,-0.0915,-0.1066,0.0165,-0.0014,0.4875,-43.1813,-10.125,,adl
7.218053,-0.0348,-0.0796,1.0027,0.0435,0.0635,0.2814,-0.1066,0.0165,-0.0014,0.4875,-43.1813,-10.125,,adl
7.236243,-0.0348,-0.0796,1.0027,0.0659,0.0184,0.5438,-0.1066,0.0165,-0.0014,0.4875,-43.1813,-10.125,,adl
7.25501,-0.0306,-0.0828,1.043,0.0659,0.0184,0.5438,-0.1066,0.0165,-0.0014,0.4875,-43.1813,-10.125,,adl
7.256683,-0.0306,-0.0828,1.043,0.0645,0.0624,0.4674,-0.1066,0.0165,-0.0014,0.4875,-43.1813,-10.125,,adl
7.26352,-0.0306,-0.0828,1.043,0.0645,0.0624,0.4674,-0.1066,0.0165,-0.0014,0.6938,-43.1438,-10.7625,,adl
7.273997,-0.0306,-0.0828,1.043,0.0174,0.0627,0.1435,-0.1066,0.0165,-0.0014,0.6938,-43.1438,-10.7625,,adl
7.277885,-0.0306,-0.0828,1.043,0.0174,0.0627,0.1435,0.0327,-0.0323,-0.0172,0.6938,-43.1438,-10.7625,,adl
7.294415,-0.0306,-0.0828,1.043,-0.0151,0.0883,-0.1109,0.0327,-0.0323,-0.0172,0.6938,-43.1438,-10.7625,,adl
7.301834,-0.0392,-0.0781,0.9792,-0.0151,0.0883,-0.1109,0.0327,-0.0323,-0.0172,0.6938,-43.1438,-10.7625,,adl
7.312625,-0.0392,-0.0781,0.9792,0.0084,0.0873,-0.1396,0.0327,-0.0323,-0.0172,0.6938,-43.1438,-10.7625,,adl
7.322905,-0.0392,-0.0781,0.9792,0.0084,0.0873,-0.1396,0.0327,-0.0323,-0.0172,0.6938,-43.3688,-10.4438,,adl
7.331764,-0.0392,-0.0781,0.9792,0.0802,0.0849,-0.0459,0.0327,-0.0323,-0.0172,0.6938,-43.3688,-10.4438,,adl
7.341006,-0.0392,-0.0781,0.9792,0.0802,0.0849,-0.0459,-0.0063,-0.0005,-0.0136,0.6938,-43.3688,-10.4438,,adl
7.349708,-0.0311,-0.0822,0.996,0.0802,0.0849,-0.0459,-0.0063,-0.0005,-0.0136,0.6938,-43.3688,-10.4438,,adl
7.35074,-0.0311,-0.0822,0.996,0.0516,0.0598,0.0068,-0.0063,-0.0005,-0.0136,0.6938,-43.3688,-10.4438,,adl
7.370586,-0.0311,-0.0822,0.996,0.0679,0.0648,-0.0106,-0.0063,-0.0005,-0.0136,0.6938,-43.3688,-10.4438,,adl
7.383055,-0.0311,-0.0822,0.996,0.0679,0.0648,-0.0106,-0.0063,-0.0005,-0.0136,0.5813,-42.9563,-10.5375,,adl
7.390019,-0.0311,-0.0822,0.996,0.0857,0.0948,-0.105,-0.0063,-0.0005,-0.0136,0.5813,-42.9563,-10.5375,,adl
7.398078,-0.0223,-0.0773,0.979,0.0857,0.0948,-0.105,-0.0063,-0.0005,-0.0136,0.5813,-42.9563,-10.5375,,adl
7.402449,-0.0223,-0.0773,0.979,0.0857,0.0948,-0.105,-0.0113,-0.0714,-0.0161,0.5813,-42.9563,-10.5375,,adl
7.408839,-0.0223,-0.0773,0.979,0.0753,0.1268,-0.1293,-0.0113,-0.0714,-0.0161,0.5813,-42.9563,-10.5375,,adl
7.427665,-0.0223,-0.0773,0.979,0.0899,0.0885,0.0006,-0.0113,-0.0714,-0.0161,0.5813,-42.9563,-10.5375,,adl
7.443249,-0.0223,-0.0773,0.979,0.0899,0.0885,0.0006,-0.0113,-0.0714,-0.0161,0.8063,-43.425,-11.175,,adl
7.447159,-0.0182,-0.0877,1.0161,0.0899,0.0885,0.0006,-0.0113,-0.0714,-0.0161,0.8063,-43.425,-11.175,,adl
7.450266,-0.0182,-0.0877,1.0161,0.1277,0.0249,0.203,-0.0113,-0.0714,-0.0161,0.8063,-43.425,-11.175,,adl
7.464878,-0.0182,-0.0877,1.0161,0.1277,0.0249,0.203,-0.0235,0.0642,-0.0136,0.8063,-43.425,-11.175,,adl
7.46641,-0.0182,-0.0877,1.0161,0.0862,0.0448,0.2351,-0.0235,0.0642,-0.0136,0.8063,-43.425,-11.175,,adl
7.484636,-0.0182,-0.0877,1.0161,0.0169,0.0694,0.1373,-0.0235,0.0642,-0.0136,0.8063,-43.425,-11.175,,adl
7.494113,-0.0353,-0.0791,1.0012,0.0169,0.0694,0.1373,-0.0235,0.0642,-0.0136,0.8063,-43.425,-11.175,,adl
7.503538,-0.0353,-0.0791,1.0012,-0.0671,0.0731,0.0559,-0.0235,0.0642,-0.0136,0.8063,-43.425,-11.175,,adl
7.504819,-0.0353,-0.0791,1.0012,-0.0671,0.0731,0.0559,-0.0235,0.0642,-0.0136,1.1063,-43.4438,-11.0813,,adl
7.523535,-0.0353,-0.0791,1.0012,0.0035,0.0519,-0.0278,-0.0235,0.0642,-0.0136,1.1063,-43.4438,-11.0813,,adl
7.52784,-0.0353,-0.0791,1.0012,0.0035,0.0519,-0.0278,-0.004,0.0153,0.0023,1.1063,-43.4438,-11.0813,,adl
7.541554,-0.022,-0.0847,0.9892,0.0035,0.0519,-0.0278,-0.004,0.0153,0.0023,1.1063,-43.4438,-11.0813,,adl
7.545482,-0.022,-0.0847,0.9892,0.1197,0.0633,-0.0585,-0.004,0.0153,0.0023,1.1063,-43.4438,-11.0813,,adl
7.561635,-0.022,-0.0847,0.9892,0.0627,0.1257,-0.055,-0.004,0.0153,0.0023,1.1063,-43.4438,-11.0813,,adl
7.563493,-0.022,-0.0847,0.9892,0.0627,0.1257,-0.055,-0.004,0.0153,0.0023,0.7125,-43.7438,-10.65,,adl
7.581223,-0.022,-0.0847,0.9892,0.0936,0.0639,0.1382,-0.004,0.0153,0.0023,0.7125,-43.7438,-10.65,,adl
7.591757,-0.0318,-0.0837,1.0132,0.0936,0.0639,0.1382,-0.004,0.0153,0.0023,0.7125,-43.7438,-10.65,,adl
7.595592,-0.0318,-0.0837,1.0132,0.0936,0.0639,0.1382,-0.0503,0.1057,-0.0148,0.7125,-43.7438,-10.65,,adl
7.601571,-0.0318,-0.0837,1.0132,0.0307,0.1206,0.1422,-0.0503,0.1057,-0.0148,0.7125,-43.7438,-10.65,,adl
7.619082,-0.0318,-0.0837,1.0132,0.0018,0.0657,0.1029,-0.0503,0.1057,-0.0148,0.7125,-43.7438,-10.65,,adl
7.624244,-0.0318,-0.0837,1.0132,0.0018,0.0657,0.1029,-0.0503,0.1057,-0.0148,0.5063,-43.0125,-11.3813,,adl
7.63798,-0.045,-0.0849,1.0021,0.0018,0.0657,0.1029,-0.0503,0.1057,-0.0148,0.5063,-43.0125,-11.3813,,adl
7.641924,-0.045,-0.0849,1.0021,-0.0132,0.1027,0.0759,-0.0503,0.1057,-0.0148,0.5063,-43.0125,-11.3813,,adl
7.651607,-0.045,-0.0849,1.0021,-0.0132,0.1027,0.0759,-0.0418,0.1375,0.0036,0.5063,-43.0125,-11.3813,,adl
7.657391,-0.045,-0.0849,1.0021,0.0858,0.0626,0.0514,-0.0418,0.1375,0.0036,0.5063,-43.0125,-11.3813,,adl
7.676364,-0.045,-0.0849,1.0021,0.0689,0.0529,0.0725,-0.0418,0.1375,0.0036,0.5063,-43.0125,-11.3813,,adl
7.68309,-0.045,-0.0849,1.0021,0.0689,0.0529,0.0725,-0.0418,0.1375,0.0036,0.825,-43.6313,-10.9688,,adl
7.684332,-0.0453,-0.0908,0.9988,0.0689,0.0529,0.0725,-0.0418,0.1375,0.0036,0.825,-43.6313,-10.9688,,adl
7.694975,-0.0453,-0.0908,0.9988,-0.0221,0.0584,0.0239,-0.0418,0.1375,0.0036,0.825,-43.6313,-10.9688,,adl
7.713584,-0.0453,-0.0908,0.9988,-0.0221,0.0584,0.0239,-0.0113,0.041,-0.0111,0.825,-43.6313,-10.9688,,adl
7.715343,-0.0453,-0.0908,0.9988,-0.0093,0.0403,-0.011,-0.0113,0.041,-0.0111,0.825,-43.6313,-10.9688,,adl
7.733302,-0.0516,-0.0959,0.997,-0.0093,0.0403,-0.011,-0.0113,0.041,-0.0111,0.825,-43.6313,-10.9688,,adl
7.73694,-0.0516,-0.0959,0.997,0.009,0.0215,0.0324,-0.0113,0.041,-0.0111,0.825,-43.6313,-10.9688,,adl
7.747099,-0.0516,-0.0959,0.997,0.009,0.0215,0.0324,-0.0113,0.041,-0.0111,0.9,-43.2563,-10.875,,adl
7.752996,-0.0516,-0.0959,0.997,-0.0164,0.0824,-0.1258,-0.0113,0.041,-0.0111,0.9,-43.2563,-10.875,,adl
7.771433,-0.0516,-0.0959,0.997,0.0181,0.1009,-0.1163,-0.0113,0.041,-0.0111,0.9,-43.2563,-10.875,,adl
7.775596,-0.0516,-0.0959,0.997,0.0181,0.1009,-0.1163,-0.0296,-0.025,0.0011,0.9,-43.2563,-10.875,,adl
7.780341,-0.0494,-0.0845,0.9814,0.0181,0.1009,-0.1163,-0.0296,-0.025,0.0011,0.9,-43.2563,-10.875,,adl
7.791173,-0.0494,-0.0845,0.9814,0.023,0.1345,-0.0583,-0.0296,-0.025,0.0011,0.9,-43.2563,-10.875,,adl
7.802564,-0.0494,-0.0845,0.9814,0.023,0.1345,-0.0583,-0.0296,-0.025,0.0011,1.0875,-43.35,-10.7625,,adl
7.809755,-0.0494,-0.0845,0.9814,0.083,0.1089,0.0668,-0.0296,-0.025,0.0011,1.0875,-43.35,-10.7625,,adl
7.828623,-0.0367,-0.0861,1.0024,0.083,0.1089,0.0668,-0.0296,-0.025,0.0011,1.0875,-43.35,-10.7625,,adl
7.832222,-0.0367,-0.0861,1.0024,0.1229,0.1445,0.0862,-0.0296,-0.025,0.0011,1.0875,-43.35,-10.7625,,adl
7.837828,-0.0367,-0.0861,1.0024,0.1229,0.1445,0.0862,-0.0235,-0.0738,-0.0087,1.0875,-43.35,-10.7625,,adl
7.848644,-0.0367,-0.0861,1.0024,0.1042,0.0975,-0.0268,-0.0235,-0.0738,-0.0087,1.0875,-43.35,-10.7625,,adl
7.863284,-0.0367,-0.0861,1.0024,0.1042,0.0975,-0.0268,-0.0235,-0.0738,-0.0087,1.3875,-43.3313,-11.5125,,adl
7.870422,-0.0367,-0.0861,1.0024,0.0157,0.1226,-0.0849,-0.0235,-0.0738,-0.0087,1.3875,-43.3313,-11.5125,,adl
7.87672,-0.0397,-0.0917,0.9816,0.0157,0.1226,-0.0849,-0.0235,-0.0738,-0.0087,1.3875,-43.3313,-11.5125,,adl
7.886611,-0.0397,-0.0917,0.9816,0.0939,0.0972,-0.0711,-0.0235,-0.0738,-0.0087,1.3875,-43.3313,-11.5125,,adl
7.901875,-0.0397,-0.0917,0.9816,0.0939,0.0972,-0.0711,-0.0553,-0.1166,-0.0136,1.3875,-43.3313,-11.5125,,adl
7.907843,-0.0397,-0.0917,0.9816,0.1018,0.0521,-0.0495,-0.0553,-0.1166,-0.0136,1.3875,-43.3313,-11.5125,,adl
7.923602,-0.0397,-0.0917,0.9816,0.1018,0.0521,-0.0495,-0.0553,-0.1166,-0.0136,0.9938,-43.1063,-11.5875,,adl
7.92723,-0.0267,-0.1042,1.0037,0.1018,0.0521,-0.0495,-0.0553,-0.1166,-0.0136,0.9938,-43.1063,-11.5875,,adl
7.929478,-0.0267,-0.1042,1.0037,0.1207,0.0011,0.0972,-0.0553,-0.1166,-0.0136,0.9938,-43.1063,-11.5875,,adl
7.943575,-0.0267,-0.1042,1.0037,0.0491,0.0224,0.2271,-0.0553,-0.1166,-0.0136,0.9938,-43.1063,-11.5875,,adl
7.962332,-0.0267,-0.1042,1.0037,0.0491,0.0224,0.2271,-0.0296,-0.0286,-0.0051,0.9938,-43.1063,-11.5875,,adl
7.965743,-0.0267,-0.1042,1.0037,0.047,0.0199,0.2659,-0.0296,-0.0286,-0.0051,0.9938,-43.1063,-11.5875,,adl
7.971075,-0.0353,-0.1033,1.0174,0.047,0.0199,0.2659,-0.0296,-0.0286,-0.0051,0.9938,-43.1063,-11.5875,,adl
7.981742,-0.0353,-0.1033,1.0174,-0.0176,0.038,0.2231,-0.0296,-0.0286,-0.0051,0.9938,-43.1063,-11.5875,,adl
7.983518,-0.0353,-0.1033,1.0174,-0.0176,0.038,0.2231,-0.0296,-0.0286,-0.0051,1.2938,-43.1438,-11.2875,,adl
8.001435,-0.0353,-0.1033,1.0174,-0.0315,0.0305,0.295,-0.0296,-0.0286,-0.0051,1.2938,-43.1438,-11.2875,,adl
8.020375,-0.0372,-0.0998,1.0127,-0.0315,0.0305,0.295,-0.0296,-0.0286,-0.0051,1.2938,-43.1438,-11.2875,,adl
8.024469,-0.0372,-0.0998,1.0127,0.0055,0.0592,0.1869,-0.0296,-0.0286,-0.0051,1.2938,-43.1438,-11.2875,,adl
8.027047,-0.0372,-0.0998,1.0127,0.0055,0.0592,0.1869,0.04,0.0287,0.0157,1.2938,-43.1438,-11.2875,,adl
8.04002,-0.0372,-0.0998,1.0127,-0.0071,0.0595,0.0737,0.04,0.0287,0.0157,1.2938,-43.1438,-11.2875,,adl
8.043547,-0.0372,-0.0998,1.0127,-0.0071,0.0595,0.0737,0.04,0.0287,0.0157,0.3938,-42.9375,-10.8563,,adl
8.059161,-0.0372,-0.0998,1.0127,0.0065,0.084,-0.0348,0.04,0.0287,0.0157,0.3938,-42.9375,-10.8563,,adl
8.069991,-0.038,-0.0913,0.9807,0.0065,0.084,-0.0348,0.04,0.0287,0.0157,0.3938,-42.9375,-10.8563,,adl
8.078038,-0.038,-0.0913,0.9807,0.0282,0.1322,-0.1696,0.04,0.0287,0.0157,0.3938,-42.9375,-10.8563,,adl
8.086533,-0.038,-0.0913,0.9807,0.0282,0.1322,-0.1696,0.0217,0.0129,0.0157,0.3938,-42.9375,-10.8563,,adl
8.097259,-0.038,-0.0913,0.9807,0.0822,0.1353,-0.1651,0.0217,0.0129,0.0157,0.3938,-42.9375,-10.8563,,adl
8.103073,-0.038,-0.0913,0.9807,0.0822,0.1353,-0.1651,0.0217,0.0129,0.0157,1.0875,-43.2375,-11.175,,adl
8.114906,-0.0264,-0.0933,0.9839,0.0822,0.1353,-0.1651,0.0217,0.0129,0.0157,1.0875,-43.2375,-11.175,,adl
8.116544,-0.0264,-0.0933,0.9839,0.1354,0.0896,-0.0983,0.0217,0.0129,0.0157,1.0875,-43.2375,-11.175,,adl
8.135288,-0.0264,-0.0933,0.9839,0.1851,0.0858,-0.0125,0.0217,0.0129,0.0157,1.0875,-43.2375,-11.175,,adl
8.148971,-0.0264,-0.0933,0.9839,0.1851,0.0858,-0.0125,-0.0076,-0.0703,-0.0172,1.0875,-43.2375,-11.175,,adl
8.154229,-0.0264,-0.0933,0.9839,0.1477,0.1205,-0.0609,-0.0076,-0.0703,-0.0172,1.0875,-43.2375,-11.175,,adl
8.162855,-0.0225,-0.0917,0.988,0.1477,0.1205,-0.0609,-0.0076,-0.0703,-0.0172,1.0875,-43.2375,-11.175,,adl
8.165008,-0.0225,-0.0917,0.988,0.1477,0.1205,-0.0609,-0.0076,-0.0703,-0.0172,1.2938,-43.4438,-10.9875,,adl
8.173045,-0.0225,-0.0917,0.988,0.1347,0.1326,-0.0347,-0.0076,-0.0703,-0.0172,1.2938,-43.4438,-10.9875,,adl
8.19236,-0.0225,-0.0917,0.988,0.1273,0.0765,0.0376,-0.0076,-0.0703,-0.0172,1.2938,-43.4438,-10.9875,,adl
8.211189,-0.0282,-0.0966,1.0151,0.1273,0.0765,0.0376,-0.0076,-0.0703,-0.0172,1.2938,-43.4438,-10.9875,,adl
8.215055,-0.0282,-0.0966,1.0151,0.1273,0.0765,0.0376,-0.0296,0.0104,-0.0282,1.2938,-43.4438,-10.9875,,adl
8.217326,-0.0282,-0.0966,1.0151,0.0741,0.0733,0.2083,-0.0296,0.0104,-0.0282,1.2938,-43.4438,-10.9875,,adl
8.222927,-0.0282,-0.0966,1.0151,0.0741,0.0733,0.2083,-0.0296,0.0104,-0.0282,0.4125,-43.125,-11.0625,,adl
8.231214,-0.0282,-0.0966,1.0151,0.0265,0.0548,0.1654,-0.0296,0.0104,-0.0282,0.4125,-43.125,-11.0625,,adl
8.249827,-0.0282,-0.0966,1.0151,-0.0381,0.0276,0.0815,-0.0296,0.0104,-0.0282,0.4125,-43.125,-11.0625,,adl
8.258688,-0.0418,-0.1015,0.9965,-0.0381,0.0276,0.0815,-0.0296,0.0104,-0.0282,0.4125,-43.125,-11.0625,,adl
8.269921,-0.0418,-0.1015,0.9965,-0.0797,0.0311,0.0264,-0.0296,0.0104,-0.0282,0.4125,-43.125,-11.0625,,adl
8.27248,-0.0418,-0.1015,0.9965,-0.0797,0.0311,0.0264,0.0034,-0.0103,-0.0161,0.4125,-43.125,-11.0625,,adl
8.283711,-0.0418,-0.1015,0.9965,-0.0797,0.0311,0.0264,0.0034,-0.0103,-0.0161,1.2938,-43.1438,-11.1938,,adl
8.290458,-0.0418,-0.1015,0.9965,-0.0924,-0.0038,-0.0047,0.0034,-0.0103,-0.0161,1.2938,-43.1438,-11.1938,,adl
8.306189,-0.0462,-0.101,0.9985,-0.0924,-0.0038,-0.0047,0.0034,-0.0103,-0.0161,1.2938,-43.1438,-11.1938,,adl
8.308002,-0.0462,-0.101,0.9985,-0.1017,0.0336,0.0459,0.0034,-0.0103,-0.0161,1.2938,-43.1438,-11.1938,,adl
8.326273,-0.0462,-0.101,0.9985,-0.0786,0.0196,0.0484,0.0034,-0.0103,-0.0161,1.2938,-43.1438,-11.1938,,adl
8.335252,-0.0462,-0.101,0.9985,-0.0786,0.0196,0.0484,0.0082,0.0032,0.0254,1.2938,-43.1438,-11.1938,,adl
8.343295,-0.0462,-0.101,0.9985,-0.0786,0.0196,0.0484,0.0082,0.0032,0.0254,0.6188,-43.2938,-11.6813,,adl
8.346544,-0.0462,-0.101,0.9985,0.0137,0.0708,0.0412,0.0082,0.0032,0.0254,0.6188,-43.2938,-11.6813,,adl
8.355917,-0.028,-0.095,0.997,0.0137,0.0708,0.0412,0.0082,0.0032,0.0254,0.6188,-43.2938,-11.6813,,adl
8.364231,-0.028,-0.095,0.997,0.1016,0.0953,0.0479,0.0082,0.0032,0.0254,0.6188,-43.2938,-11.6813,,adl
8.384222,-0.028,-0.095,0.997,0.1056,0.074,0.0093,0.0082,0.0032,0.0254,0.6188,-43.2938,-11.6813,,adl
8.39722,-0.028,-0.095,0.997,0.1056,0.074,0.0093,-0.0088,-0.0275,0.0034,0.6188,-43.2938,-11.6813,,adl
8.4019,-0.0257,-0.0973,0.9992,0.1056,0.074,0.0093,-0.0088,-0.0275,0.0034,0.6188,-43.2938,-11.6813,,adl
8.405023,-0.0257,-0.0973,0.9992,0.0822,0.0683,0.0523,-0.0088,-0.0275,0.0034,0.6188,-43.2938,-11.6813,,adl
8.407764,-0.0257,-0.0973,0.9992,0.0822,0.0683,0.0523,-0.0088,-0.0275,0.0034,0.7125,-43.4062,-11.3813,,adl
8.422479,-0.0257,-0.0973,0.9992,0.0711,0.1141,0.062,-0.0088,-0.0275,0.0034,0.7125,-43.4062,-11.3813,,adl
8.442238,-0.0257,-0.0973,0.9992,0.1124,0.1015,0.1386,-0.0088,-0.0275,0.0034,0.7125,-43.4062,-11.3813,,adl
8.450366,-0.0204,-0.0954,1.007,0.1124,0.1015,0.1386,-0.0088,-0.0275,0.0034,0.7125,-43.4062,-11.3813,,adl
8.459684,-0.0204,-0.0954,1.007,0.1124,0.1015,0.1386,0.0168,-0.0043,0.0034,0.7125,-43.4062,-11.3813,,adl
8.463756,-0.0204,-0.0954,1.007,0.1413,0.0828,0.0904,0.0168,-0.0043,0.0034,0.7125,-43.4062,-11.3813,,adl
8.464619,-0.0204,-0.0954,1.007,0.1413,0.0828,0.0904,0.0168,-0.0043,0.0034,1.2938,-43.125,-11.6063,,adl
8.479252,-0.0204,-0.0954,1.007,0.1293,0.0829,-0.0251,0.0168,-0.0043,0.0034,1.2938,-43.125,-11.6063,,adl
8.497365,-0.028,-0.094,0.9843,0.1293,0.0829,-0.0251,0.0168,-0.0043,0.0034,1.2938,-43.125,-11.6063,,adl
8.498926,-0.028,-0.094,0.9843,0.0582,0.0918,-0.0949,0.0168,-0.0043,0.0034,1.2938,-43.125,-11.6063,,adl
8.51786,-0.028,-0.094,0.9843,0.0103,0.084,-0.0755,0.0168,-0.0043,0.0034,1.2938,-43.125,-11.6063,,adl
8.523187,-0.028,-0.094,0.9843,0.0103,0.084,-0.0755,-0.0223,0.0104,-0.0234,1.2938,-43.125,-11.6063,,adl
8.525093,-0.028,-0.094,0.9843,0.0103,0.084,-0.0755,-0.0223,0.0104,-0.0234,0.3188,-43.1063,-11.2688,,adl
8.536469,-0.028,-0.094,0.9843,-0.0214,0.0847,0.0377,-0.0223,0.0104,-0.0234,0.3188,-43.1063,-11.2688,,adl
8.546259,-0.0336,-0.0991,1.0044,-0.0214,0.0847,0.0377,-0.0223,0.0104,-0.0234,0.3188,-43.1063,-11.2688,,adl
8.556856,-0.0336,-0.0991,1.0044,0.0308,0.0606,0.1656,-0.0223,0.0104,-0.0234,0.3188,-43.1063,-11.2688,,adl
8.575866,-0.0336,-0.0991,1.0044,0.0056,0.0498,0.274,-0.0223,0.0104,-0.0234,0.3188,-43.1063,-11.2688,,adl
8.584159,-0.0336,-0.0991,1.0044,0.0056,0.0498,0.274,-0.0223,0.0104,-0.0234,0.975,-42.9375,-11.175,,adl
8.587677,-0.0336,-0.0991,1.0044,0.0056,0.0498,0.274,0.0168,0.0434,-0.0026,0.975,-42.9375,-11.175,,adl
8.594105,-0.0375,-0.1045,1.0202,0.0056,0.0498,0.274,0.0168,0.0434,-0.0026,0.975,-42.9375,-11.175,,adl
8.595825,-0.0375,-0.1045,1.0202,-0.0078,0.0032,0.2596,0.0168,0.0434,-0.0026,0.975,-42.9375,-11.175,,adl
8.613827,-0.0375,-0.1045,1.0202,-0.0376,0.0731,0.0502,0.0168,0.0434,-0.0026,0.975,-42.9375,-11.175,,adl
8.633042,-0.0375,-0.1045,1.0202,-0.0478,0.0972,-0.0995,0.0168,0.0434,-0.0026,0.975,-42.9375,-11.175,,adl
8.641535,-0.0413,-0.0952,0.976,-0.0478,0.0972,-0.0995,0.0168,0.0434,-0.0026,0.975,-42.9375,-11.175,,adl
8.645015,-0.0413,-0.0952,0.976,-0.0478,0.0972,-0.0995,0.0168,0.0434,-0.0026,0.8813,-42.9188,-11.3813,,adl
8.647491,-0.0413,-0.0952,0.976,-0.0478,0.0972,-0.0995,0.0265,-0.0055,0.0084,0.8813,-42.9188,-11.3813,,adl
8.653058,-0.0413,-0.0952,0.976,-0.0047,0.0608,-0.1479,0.0265,-0.0055,0.0084,0.8813,-42.9188,-11.3813,,adl
8.670557,-0.0413,-0.0952,0.976,0.0506,0.1102,-0.1168,0.0265,-0.0055,0.0084,0.8813,-42.9188,-11.3813,,adl
8.689366,-0.0282,-0.092,0.9907,0.0506,0.1102,-0.1168,0.0265,-0.0055,0.0084,0.8813,-42.9188,-11.3813,,adl
8.690978,-0.0282,-0.092,0.9907,0.0921,0.0963,-0.0328,0.0265,-0.0055,0.0084,0.8813,-42.9188,-11.3813,,adl
8.702537,-0.0282,-0.092,0.9907,0.0921,0.0963,-0.0328,0.0265,-0.0055,0.0084,0.3938,-42.825,-10.95,,adl
8.708067,-0.0282,-0.092,0.9907,0.0921,0.0963,-0.0328,-0.0125,-0.0348,0.0034,0.3938,-42.825,-10.95,,adl
8.709123,-0.0282,-0.092,0.9907,0.0928,0.1167,-0.0616,-0.0125,-0.0348,0.0034,0.3938,-42.825,-10.95,,adl
8.728881,-0.0282,-0.092,0.9907,0.0971,0.108,-0.0616,-0.0125,-0.0348,0.0034,0.3938,-42.825,-10.95,,adl
8.736338,-0.0238,-0.0905,0.9907,0.0971,0.108,-0.0616,-0.0125,-0.0348,0.0034,0.3938,-42.825,-10.95,,adl
8.747695,-0.0238,-0.0905,0.9907,0.1199,0.0844,0.044,-0.0125,-0.0348,0.0034,0.3938,-42.825,-10.95,,adl
8.762947,-0.0238,-0.0905,0.9907,0.1199,0.0844,0.044,-0.0125,-0.0348,0.0034,1.2,-43.3688,-10.7812,,adl
8.766309,-0.0238,-0.0905,0.9907,0.1459,0.0611,0.0684,-0.0125,-0.0348,0.0034,1.2,-43.3688,-10.7812,,adl
8.769699,-0.0238,-0.0905,0.9907,0.1459,0.0611,0.0684,-0.0247,0.0153,-0.0087,1.2,-43.3688,-10.7812,,adl
8.785137,-0.0282,-0.0971,1.0132,0.1459,0.0611,0.0684,-0.0247,0.0153,-0.0087,1.2,-43.3688,-10.7812,,adl
8.788593,-0.0282,-0.0971,1.0132,0.0688,0.0648,0.1885,-0.0247,0.0153,-0.0087,1.2,-43.3688,-10.7812,,adl
8.80462,-0.0282,-0.0971,1.0132,0.0234,0.0468,0.1743,-0.0247,0.0153,-0.0087,1.2,-43.3688,-10.7812,,adl
8.824075,-0.0282,-0.0971,1.0132,-0.0193,0.0669,0.0615,-0.0247,0.0153,-0.0087,1.2,-43.3688,-10.7812,,adl
8.827488,-0.0282,-0.0971,1.0132,-0.0193,0.0669,0.0615,-0.0247,0.0153,-0.0087,0.3,-43.125,-11.0625,,adl
8.836739,-0.0385,-0.0952,0.996,-0.0193,0.0669,0.0615,-0.0247,0.0153,-0.0087,0.3,-43.125,-11.0625,,adl
8.83825,-0.0385,-0.0952,0.996,-0.0193,0.0669,0.0615,0.0058,-0.0067,-0.0148,0.3,-43.125,-11.0625,,adl
8.84318,-0.0385,-0.0952,0.996,-0.0472,0.0449,0.0232,0.0058,-0.0067,-0.0148,0.3,-43.125,-11.0625,,adl
8.862551,-0.0385,-0.0952,0.996,-0.0813,0.0452,0.0666,0.0058,-0.0067,-0.0148,0.3,-43.125,-11.0625,,adl
8.880717,-0.0418,-0.0989,1.0032,-0.0813,0.0452,0.0666,0.0058,-0.0067,-0.0148,0.3,-43.125,-11.0625,,adl
8.884678,-0.0418,-0.0989,1.0032,-0.0515,0.0458,0.0906,0.0058,-0.0067,-0.0148,0.3,-43.125,-11.0625,,adl
8.887779,-0.0418,-0.0989,1.0032,-0.0515,0.0458,0.0906,0.0058,-0.0067,-0.0148,0.6938,-43.2375,-11.0625,,adl
8.894719,-0.0418,-0.0989,1.0032,-0.0515,0.0458,0.0906,0.0192,0.008,0.0121,0.6938,-43.2375,-11.0625,,adl
8.901892,-0.0418,-0.0989,1.0032,-0.0263,0.0807,0.0497,0.0192,0.008,0.0121,0.6938,-43.2375,-11.0625,,adl
8.919518,-0.0418,-0.0989,1.0032,-0.0149,0.0635,-0.0655,0.0192,0.008,0.0121,0.6938,-43.2375,-11.0625,,adl
8.928605,-0.0387,-0.0935,0.9914,-0.0149,0.0635,-0.0655,0.0192,0.008,0.0121,0.6938,-43.2375,-11.0625,,adl
8.938469,-0.0387,-0.0935,0.9914,0.0034,0.0839,-0.0106,0.0192,0.008,0.0121,0.6938,-43.2375,-11.0625,,adl
8.944794,-0.0387,-0.0935,0.9914,0.0034,0.0839,-0.0106,0.0192,0.008,0.0121,1.0875,-43.125,-11.4938,,adl
8.956983,-0.0387,-0.0935,0.9914,0.0034,0.0839,-0.0106,0.0107,-0.0103,0.0267,1.0875,-43.125,-11.4938,,adl
8.958913,-0.0387,-0.0935,0.9914,0.1023,0.0774,0.116,0.0107,-0.0103,0.0267,1.0875,-43.125,-11.4938,,adl
8.976519,-0.0248,-0.0889,0.9914,0.1023,0.0774,0.116,0.0107,-0.0103,0.0267,1.0875,-43.125,-11.4938,,adl
8.977875,-0.0248,-0.0889,0.9914,0.1102,0.1315,-0.0258,0.0107,-0.0103,0.0267,1.0875,-43.125,-11.4938,,adl
8.995559,-0.0248,-0.0889,0.9914,0.1086,0.107,-0.0215,0.0107,-0.0103,0.0267,1.0875,-43.125,-11.4938,,adl
9.003834,-0.0248,-0.0889,0.9914,0.1086,0.107,-0.0215,0.0107,-0.0103,0.0267,0.9938,-43.0312,-11.2875,,adl
9.015523,-0.0248,-0.0889,0.9914,0.0751,0.0993,-0.0215,0.0107,-0.0103,0.0267,0.9938,-43.0312,-11.2875,,adl
9.018543,-0.0248,-0.0889,0.9914,0.0751,0.0993,-0.0215,-0.0003,0.0177,0.0133,0.9938,-43.0312,-11.2875,,adl
9.023431,-0.0318,-0.0945,0.9995,0.0751,0.0993,-0.0215,-0.0003,0.0177,0.0133,0.9938,-43.0312,-11.2875,,adl
9.035587,-0.0318,-0.0945,0.9995,0.0368,0.0599,0.1102,-0.0003,0.0177,0.0133,0.9938,-43.0312,-11.2875,,adl
9.05404,-0.0318,-0.0945,0.9995,0.029,0.0493,0.1885,-0.0003,0.0177,0.0133,0.9938,-43.0312,-11.2875,,adl
9.064249,-0.0318,-0.0945,0.9995,0.029,0.0493,0.1885,-0.0003,0.0177,0.0133,0.9938,-43.125,-11.2875,,adl
9.072127,-0.0385,-0.1031,1.0034,0.029,0.0493,0.1885,-0.0003,0.0177,0.0133,0.9938,-43.125,-11.2875,,adl
9.07577,-0.0385,-0.1031,1.0034,-0.0556,-0.0178,0.0893,-0.0003,0.0177,0.0133,0.9938,-43.125,-11.2875,,adl
9.080616,-0.0385,-0.1031,1.0034,-0.0556,-0.0178,0.0893,0.0168,-0.1093,-0.0136,0.9938,-43.125,-11.2875,,adl
9.091254,-0.0385,-0.1031,1.0034,-0.0043,0.0113,0.2777,0.0168,-0.1093,-0.0136,0.9938,-43.125,-11.2875,,adl
9.110959,-0.0385,-0.1031,1.0034,0.1038,0.0696,0.5759,0.0168,-0.1093,-0.0136,0.9938,-43.125,-11.2875,,adl
9.119637,-0.0164,-0.095,1.0584,0.1038,0.0696,0.5759,0.0168,-0.1093,-0.0136,0.9938,-43.125,-11.2875,,adl
9.125674,-0.0164,-0.095,1.0584,0.1038,0.0696,0.5759,0.0168,-0.1093,-0.0136,0.6938,-43.125,-11.0625,,adl
9.130376,-0.0164,-0.095,1.0584,0.16,0.0035,0.5261,0.0168,-0.1093,-0.0136,0.6938,-43.125,-11.0625,,adl
9.143682,-0.0164,-0.095,1.0584,0.16,0.0035,0.5261,0.1488,0.0177,-0.0038,0.6938,-43.125,-11.0625,,adl
9.148702,-0.0164,-0.095,1.0584,0.0842,0.082,0.2529,0.1488,0.0177,-0.0038,0.6938,-43.125,-11.0625,,adl
9.167224,-0.0248,-0.0877,0.9799,0.0842,0.082,0.2529,0.1488,0.0177,-0.0038,0.6938,-43.125,-11.0625,,adl
9.170752,-0.0248,-0.0877,0.9799,0.0633,0.0479,-0.1493,0.1488,0.0177,-0.0038,0.6938,-43.125,-11.0625,,adl
9.183127,-0.0248,-0.0877,0.9799,0.0633,0.0479,-0.1493,0.1488,0.0177,-0.0038,0.9938,-43.4625,-10.6688,,adl
9.186641,-0.0248,-0.0877,0.9799,0.0202,0.1218,-0.2538,0.1488,0.0177,-0.0038,0.9938,-43.4625,-10.6688,,adl
9.205954,-0.0248,-0.0877,0.9799,0.0202,0.1218,-0.2538,0.1,0.1423,0.0059,0.9938,-43.4625,-10.6688,,adl
9.210021,-0.0248,-0.0877,0.9799,0.0836,0.1078,-0.2787,0.1,0.1423,0.0059,0.9938,-43.4625,-10.6688,,adl
9.216623,-0.0318,-0.0707,0.9585,0.0836,0.1078,-0.2787,0.1,0.1423,0.0059,0.9938,-43.4625,-10.6688,,adl
9.224686,-0.0318,-0.0707,0.9585,0.0503,0.1728,-0.5402,0.1,0.1423,0.0059,0.9938,-43.4625,-10.6688,,adl
9.242925,-0.0318,-0.0707,0.9585,0.0503,0.1728,-0.5402,0.1,0.1423,0.0059,0.7125,-43.4438,-10.65,,adl
9.244476,-0.0318,-0.0707,0.9585,0.0866,0.1345,-0.509,0.1,0.1423,0.0059,0.7125,-43.4438,-10.65,,adl
9.263033,-0.0336,-0.0686,0.9489,0.0866,0.1345,-0.509,0.1,0.1423,0.0059,0.7125,-43.4438,-10.65,,adl
9.267168,-0.0336,-0.0686,0.9489,0.0812,0.1669,-0.4556,0.1,0.1423,0.0059,0.7125,-43.4438,-10.65,,adl
9.270251,-0.0336,-0.0686,0.9489,0.0812,0.1669,-0.4556,-0.0503,0.008,-0.0161,0.7125,-43.4438,-10.65,,adl
9.282412,-0.0336,-0.0686,0.9489,0.0935,0.1351,-0.3135,-0.0503,0.008,-0.0161,0.7125,-43.4438,-10.65,,adl
9.301534,-0.0336,-0.0686,0.9489,-0.0185,0.1289,-0.2481,-0.0503,0.008,-0.0161,0.7125,-43.4438,-10.65,,adl
9.303515,-0.0336,-0.0686,0.9489,-0.0185,0.1289,-0.2481,-0.0503,0.008,-0.0161,1.0125,-43.5563,-10.5563,,adl
9.310514,-0.0411,-0.0788,0.9748,-0.0185,0.1289,-0.2481,-0.0503,0.008,-0.0161,1.0125,-43.5563,-10.5563,,adl
9.321631,-0.0411,-0.0788,0.9748,0.0033,0.0546,-0.0937,-0.0503,0.008,-0.0161,1.0125,-43.5563,-10.5563,,adl
9.329843,-0.0411,-0.0788,0.9748,0.0033,0.0546,-0.0937,-0.1213,-0.1068,-0.0124,1.0125,-43.5563,-10.5563,,adl
9.34053,-0.0411,-0.0788,0.9748,-0.0208,0.0539,0.1112,-0.1213,-0.1068,-0.0124,1.0125,-43.5563,-10.5563,,adl
9.358266,-0.0292,-0.0945,1.0279,-0.0208,0.0539,0.1112,-0.1213,-0.1068,-0.0124,1.0125,-43.5563,-10.5563,,adl
9.360025,-0.0292,-0.0945,1.0279,0.0413,0.0077,0.3232,-0.1213,-0.1068,-0.0124,1.0125,-43.5563,-10.5563,,adl
9.365534,-0.0292,-0.0945,1.0279,0.0413,0.0077,0.3232,-0.1213,-0.1068,-0.0124,0.8813,-43.0688,-10.65,,adl
9.378627,-0.0292,-0.0945,1.0279,-0.0401,0.0358,0.4531,-0.1213,-0.1068,-0.0124,0.8813,-43.0688,-10.65,,adl
9.392689,-0.0292,-0.0945,1.0279,-0.0401,0.0358,0.4531,-0.0271,-0.1496,-0.0307,0.8813,-43.0688,-10.65,,adl
9.397635,-0.0292,-0.0945,1.0279,-0.1096,0.0135,0.4385,-0.0271,-0.1496,-0.0307,0.8813,-43.0688,-10.65,,adl
9.407011,-0.0401,-0.0977,1.0412,-0.1096,0.0135,0.4385,-0.0271,-0.1496,-0.0307,0.8813,-43.0688,-10.65,,adl
9.416556,-0.0401,-0.0977,1.0412,-0.1602,-0.0544,0.3688,-0.0271,-0.1496,-0.0307,0.8813,-43.0688,-10.65,,adl
9.425457,-0.0401,-0.0977,1.0412,-0.1602,-0.0544,0.3688,-0.0271,-0.1496,-0.0307,0.6188,-43.6125,-11.175,,adl
9.436266,-0.0401,-0.0977,1.0412,-0.1215,-0.0686,0.2057,-0.0271,-0.1496,-0.0307,0.6188,-43.6125,-11.175,,adl
9.453866,-0.0326,-0.0973,1.0112,-0.1215,-0.0686,0.2057,-0.0271,-0.1496,-0.0307,0.6188,-43.6125,-11.175,,adl
9.455595,-0.0326,-0.0973,1.0112,-0.1215,-0.0686,0.2057,0.0485,0.0678,0.0682,0.6188,-43.6125,-11.175,,adl
9.457042,-0.0326,-0.0973,1.0112,-0.0702,-0.003,0.1598,0.0485,0.0678,0.0682,0.6188,-43.6125,-11.175,,adl
9.474308,-0.0326,-0.0973,1.0112,0.0256,0.0693,0.1543,0.0485,0.0678,0.0682,0.6188,-43.6125,-11.175,,adl
9.483476,-0.0326,-0.0973,1.0112,0.0256,0.0693,0.1543,0.0485,0.0678,0.0682,0.5063,-43.2188,-11.175,,adl
9.492794,-0.0326,-0.0973,1.0112,0.0686,0.1457,-0.0505,0.0485,0.0678,0.0682,0.5063,-43.2188,-11.175,,adl
9.502591,-0.018,-0.0781,0.9827,0.0686,0.1457,-0.0505,0.0485,0.0678,0.0682,0.5063,-43.2188,-11.175,,adl
9.513882,-0.018,-0.0781,0.9827,0.0889,0.1129,-0.3009,0.0485,0.0678,0.0682,0.5063,-43.2188,-11.175,,adl
9.515977,-0.018,-0.0781,0.9827,0.0889,0.1129,-0.3009,0.0388,-0.0628,0.0499,0.5063,-43.2188,-11.175,,adl
9.531686,-0.018,-0.0781,0.9827,0.1224,0.1479,-0.3304,0.0388,-0.0628,0.0499,0.5063,-43.2188,-11.175,,adl
9.54297,-0.018,-0.0781,0.9827,0.1224,0.1479,-0.3304,0.0388,-0.0628,0.0499,0.3188,-43.1063,-11.2688,,adl
9.549783,-0.0089,-0.0742,0.9697,0.1224,0.1479,-0.3304,0.0388,-0.0628,0.0499,0.3188,-43.1063,-11.2688,,adl
9.5541,-0.0089,-0.0742,0.9697,0.1526,0.1846,-0.2512,0.0388,-0.0628,0.0499,0.3188,-43.1063,-11.2688,,adl
9.569687,-0.0089,-0.0742,0.9697,0.2109,0.1112,-0.037,0.0388,-0.0628,0.0499,0.3188,-43.1063,-11.2688,,adl
9.58039,-0.0089,-0.0742,0.9697,0.2109,0.1112,-0.037,-0.0785,0.0495,0.0169,0.3188,-43.1063,-11.2688,,adl
9.589867,-0.0089,-0.0742,0.9697,0.181,0.1496,0.3187,-0.0785,0.0495,0.0169,0.3188,-43.1063,-11.2688,,adl
9.597607,-0.0082,-0.0825,1.0317,0.181,0.1496,0.3187,-0.0785,0.0495,0.0169,0.3188,-43.1063,-11.2688,,adl
9.603103,-0.0082,-0.0825,1.0317,0.181,0.1496,0.3187,-0.0785,0.0495,0.0169,0.225,-43.3313,-10.8563,,adl
9.608057,-0.0082,-0.0825,1.0317,0.1841,0.1042,0.3932,-0.0785,0.0495,0.0169,0.225,-43.3313,-10.8563,,adl
9.627254,-0.0082,-0.0825,1.0317,0.1238,0.0835,0.0739,-0.0785,0.0495,0.0169,0.225,-43.3313,-10.8563,,adl
9.640438,-0.0082,-0.0825,1.0317,0.1238,0.0835,0.0739,0.0437,-0.047,-0.0356,0.225,-43.3313,-10.8563,,adl
9.648472,-0.0187,-0.0852,0.9694,0.1238,0.0835,0.0739,0.0437,-0.047,-0.0356,0.225,-43.3313,-10.8563,,adl
9.652608,-0.0187,-0.0852,0.9694,0.044,0.0896,-0.2527,0.0437,-0.047,-0.0356,0.225,-43.3313,-10.8563,,adl
9.663069,-0.0187,-0.0852,0.9694,0.044,0.0896,-0.2527,0.0437,-0.047,-0.0356,0.525,-43.5375,-10.65,,adl
9.665016,-0.0187,-0.0852,0.9694,-0.0551,0.0827,-0.2694,0.0437,-0.047,-0.0356,0.525,-43.5375,-10.65,,adl
9.68462,-0.0187,-0.0852,0.9694,-0.0113,0.0341,-0.1177,0.0437,-0.047,-0.0356,0.525,-43.5375,-10.65,,adl
9.693093,-0.0245,-0.0889,0.9956,-0.0113,0.0341,-0.1177,0.0437,-0.047,-0.0356,0.525,-43.5375,-10.65,,adl
9.703346,-0.0245,-0.0889,0.9956,-0.0113,0.0341,-0.1177,-0.0296,0.0067,-0.0136,0.525,-43.5375,-10.65,,adl
9.704694,-0.0245,-0.0889,0.9956,0.0326,0.0836,0.0027,-0.0296,0.0067,-0.0136,0.525,-43.5375,-10.65,,adl
9.723547,-0.0245,-0.0889,0.9956,0.0354,0.1012,0.0318,-0.0296,0.0067,-0.0136,0.525,-43.5375,-10.65,,adl
9.726661,-0.0245,-0.0889,0.9956,0.0354,0.1012,0.0318,-0.0296,0.0067,-0.0136,0.8063,-43.35,-10.7625,,adl
9.741115,-0.0267,-0.092,1.0083,0.0354,0.1012,0.0318,-0.0296,0.0067,-0.0136,0.8063,-43.35,-10.7625,,adl
9.744922,-0.0267,-0.092,1.0083,-0.0424,0.0484,0.1303,-0.0296,0.0067,-0.0136,0.8063,-43.35,-10.7625,,adl
9.761442,-0.0267,-0.092,1.0083,-0.0694,0.0103,0.1807,-0.0296,0.0067,-0.0136,0.8063,-43.35,-10.7625,,adl
9.765227,-0.0267,-0.092,1.0083,-0.0694,0.0103,0.1807,-0.004,-0.0628,-0.0099,0.8063,-43.35,-10.7625,,adl
9.780163,-0.0267,-0.092,1.0083,-0.014,-0.0014,0.1207,-0.004,-0.0628,-0.0099,0.8063,-43.35,-10.7625,,adl
9.782743,-0.0267,-0.092,1.0083,-0.014,-0.0014,0.1207,-0.004,-0.0628,-0.0099,0.7125,-43.425,-11.175,,adl
9.788394,-0.0218,-0.091,1.0056,-0.014,-0.0014,0.1207,-0.004,-0.0628,-0.0099,0.7125,-43.425,-11.175,,adl
9.799163,-0.0218,-0.091,1.0056,-0.0077,0.0916,0.1209,-0.004,-0.0628,-0.0099,0.7125,-43.425,-11.175,,adl
9.818381,-0.0218,-0.091,1.0056,0.0531,0.0101,0.3081,-0.004,-0.0628,-0.0099,0.7125,-43.425,-11.175,,adl
9.826289,-0.0218,-0.091,1.0056,0.0531,0.0101,0.3081,0.0058,0.052,0.0157,0.7125,-43.425,-11.175,,adl
9.83628,-0.0245,-0.0891,1.0195,0.0531,0.0101,0.3081,0.0058,0.052,0.0157,0.7125,-43.425,-11.175,,adl
9.837845,-0.0245,-0.0891,1.0195,-0.0108,0.0821,0.2411,0.0058,0.052,0.0157,0.7125,-43.425,-11.175,,adl
9.842587,-0.0245,-0.0891,1.0195,-0.0108,0.0821,0.2411,0.0058,0.052,0.0157,0.4125,-43.5375,-10.7438,,adl
9.856936,-0.0245,-0.0891,1.0195,0.0167,0.0544,0.0275,0.0058,0.052,0.0157,0.4125,-43.5375,-10.7438,,adl
9.875904,-0.0245,-0.0891,1.0195,0.0046,0.1001,-0.124,0.0058,0.052,0.0157,0.4125,-43.5375,-10.7438,,adl
9.88447,-0.018,-0.0893,0.9816,0.0046,0.1001,-0.124,0.0058,0.052,0.0157,0.4125,-43.5375,-10.7438,,adl
9.889638,-0.018,-0.0893,0.9816,0.0046,0.1001,-0.124,0.0315,0.0507,0.0291,0.4125,-43.5375,-10.7438,,adl
9.895904,-0.018,-0.0893,0.9816,0.0813,0.1058,-0.1818,0.0315,0.0507,0.0291,0.4125,-43.5375,-10.7438,,adl
9.902441,-0.018,-0.0893,0.9816,0.0813,0.1058,-0.1818,0.0315,0.0507,0.0291,0.4125,-43.125,-11.1562,,adl
9.913648,-0.018,-0.0893,0.9816,0.0899,0.1158,-0.2156,0.0315,0.0507,0.0291,0.4125,-43.125,-11.1562,,adl
9.932951,-0.0243,-0.0796,0.9785,0.0899,0.1158,-0.2156,0.0315,0.0507,0.0291,0.4125,-43.125,-11.1562,,adl
9.938316,-0.0243,-0.0796,0.9785,0.0308,0.1482,-0.1627,0.0315,0.0507,0.0291,0.4125,-43.125,-11.1562,,adl
9.951261,-0.0243,-0.0796,0.9785,0.0308,0.1482,-0.1627,-0.0503,0.0067,0.0146,0.4125,-43.125,-11.1562,,adl
9.953076,-0.0243,-0.0796,0.9785,0.0667,0.0915,-0.0159,-0.0503,0.0067,0.0146,0.4125,-43.125,-11.1562,,adl
9.963114,-0.0243,-0.0796,0.9785,0.0667,0.0915,-0.0159,-0.0503,0.0067,0.0146,0.9188,-43.4062,-11.4938,,adl
9.970657,-0.0243,-0.0796,0.9785,0.1234,0.1111,0.2557,-0.0503,0.0067,0.0146,0.9188,-43.4062,-11.4938,,adl
9.979819,-0.015,-0.0871,1.0324,0.1234,0.1111,0.2557,-0.0503,0.0067,0.0146,0.9188,-43.4062,-11.4938,,adl
9.991766,-0.015,-0.0871,1.0324,0.0791,0.0355,0.4679,-0.0503,0.0067,0.0146,0.9188,-43.4062,-11.4938,,adl
10.010143,-0.015,-0.0871,1.0324,-0.1367,-0.1198,0.3202,-0.0503,0.0067,0.0146,0.9188,-43.4062,-11.4938,,adl
10.014556,-0.015,-0.0871,1.0324,-0.1367,-0.1198,0.3202,0.067,0.0642,0.0609,0.9188,-43.4062,-11.4938,,adl
10.025195,-0.015,-0.0871,1.0324,-0.1367,-0.1198,0.3202,0.067,0.0642,0.0609,0.4125,-43.2188,-11.1562,,adl
10.027487,-0.0282,-0.0977,1.0223,-0.1367,-0.1198,0.3202,0.067,0.0642,0.0609,0.4125,-43.2188,-11.1562,,adl
10.028598,-0.0282,-0.0977,1.0223,0.0409,-0.0165,0.2685,0.067,0.0642,0.0609,0.4125,-43.2188,-11.1562,,adl
10.048088,-0.0282,-0.0977,1.0223,-0.0042,0.0636,0.3653,0.067,0.0642,0.0609,0.4125,-43.2188,-11.1562,,adl
10.067368,-0.0282,-0.0977,1.0223,-0.1184,0.0889,-0.0581,0.067,0.0642,0.0609,0.4125,-43.2188,-11.1562,,adl
10.075705,-0.0397,-0.0796,0.9829,-0.1184,0.0889,-0.0581,0.067,0.0642,0.0609,0.4125,-43.2188,-11.1562,,adl
10.07698,-0.0397,-0.0796,0.9829,-0.1184,0.0889,-0.0581,0.1988,-0.1313,-0.0001,0.4125,-43.2188,-11.1562,,adl
10.0825,-0.0397,-0.0796,0.9829,-0.1184,0.0889,-0.0581,0.1988,-0.1313,-0.0001,0.6188,-43.5563,-10.4438,,adl
10.085743,-0.0397,-0.0796,0.9829,0.0762,0.0596,-0.1146,0.1988,-0.1313,-0.0001,0.6188,-43.5563,-10.4438,,adl
10.105152,-0.0397,-0.0796,0.9829,0.0305,0.0831,0.0836,0.1988,-0.1313,-0.0001,0.6188,-43.5563,-10.4438,,adl
10.124272,-0.0421,-0.0505,1.0009,0.0305,0.0831,0.0836,0.1988,-0.1313,-0.0001,0.6188,-43.5563,-10.4438,,adl
10.128617,-0.0421,-0.0505,1.0009,-0.0594,0.2347,0.0434,0.1988,-0.1313,-0.0001,0.6188,-43.5563,-10.4438,,adl
10.137219,-0.0421,-0.0505,1.0009,-0.0594,0.2347,0.0434,-0.0125,-0.069,0.0659,0.6188,-43.5563,-10.4438,,adl
10.142714,-0.0421,-0.0505,1.0009,0.1977,0.1046,0.4162,-0.0125,-0.069,0.0659,0.6188,-43.5563,-10.4438,,adl
10.144059,-0.0421,-0.0505,1.0009,0.1977,0.1046,0.4162,-0.0125,-0.069,0.0659,0.6938,-43.3688,-10.4438,,adl
10.162693,-0.0421,-0.0505,1.0009,0.2145,0.014,0.44,-0.0125,-0.069,0.0659,0.6938,-43.3688,-10.4438,,adl
10.173676,0.0079,-0.0808,1.0012,0.2145,0.014,0.44,-0.0125,-0.069,0.0659,0.6938,-43.3688,-10.4438,,adl
