time,ax,ay,az,wx,wy,wz,Bx,By,Bz,Unnamed: 10,label
0.019885,0.0,0.0,0.0,0.0,0.0,0.0,0.0,0.0,0.0,,adl
0.025381,0.19,-0.1164,-1.4107,0.0,0.0,0.0,0.0,0.0,0.0,,adl
0.045538,0.374,0.0731,-2.0321,0.0,0.0,0.0,0.0,0.0,0.0,,adl
0.05844,0.374,0.0731,-2.0321,0.0,0.0,0.0,-2.8125,-45.45,-1.425,,adl
0.065924,0.374,0.0731,-2.0321,-0.1737,0.1862,0.0417,-2.8125,-45.45,-1.425,,adl
0.067252,0.4866,0.0767,-1.3196,-0.1737,0.1862,0.0417,-2.8125,-45.45,-1.425,,adl
0.069315,0.4866,0.0767,-1.3196,-0.1737,0.1862,0.0417,-2.8125,-45.45,-1.425,,adl
0.083937,0.2127,-0.0784,-0.9538,-0.1737,0.1862,0.0417,-2.8125,-45.45,-1.425,,adl
0.103221,0.0425,-0.1638,-0.486,-0.1737,0.1862,0.0417,-2.8125,-45.45,-1.425,,adl
0.116846,0.0425,-0.1638,-0.486,-0.1737,0.1862,0.0417,-2.8125,-45.45,-1.425,,adl
0.119615,0.0425,-0.1638,-0.486,-0.1737,0.1862,0.0417,-2.8125,-45.1125,-2.25,,adl
0.121418,-0.0686,-0.1242,0.0048,-0.1737,0.1862,0.0417,-2.8125,-45.1125,-2.25,,adl
0.125997,-0.0686,-0.1242,0.0048,-0.4168,0.1935,-0.0426,-2.8125,-45.1125,-2.25,,adl
0.141107,-0.2722,-0.1492,0.7497,-0.4168,0.1935,-0.0426,-2.8125,-45.1125,-2.25,,adl
0.160577,-0.2999,-0.2476,1.1998,-0.4168,0.1935,-0.0426,-2.8125,-45.1125,-2.25,,adl
0.166885,-0.2999,-0.2476,1.1998,-0.4168,0.1935,-0.0426,-2.8125,-45.1125,-2.25,,adl
0.179671,-0.2541,-0.2993,1.2399,-0.4168,0.1935,-0.0426,-2.8125,-45.1125,-2.25,,adl
0.182425,-0.2541,-0.2993,1.2399,-0.4168,0.1935,-0.0426,-3.3,-45.075,-2.6438,,adl
0.188591,-0.2541,-0.2993,1.2399,-0.0368,0.0664,-0.0048,-3.3,-45.075,-2.6438,,adl
0.198337,-0.1573,-0.2451,1.1216,-0.0368,0.0664,-0.0048,-3.3,-45.075,-2.6438,,adl
0.219113,-0.1573,-0.2451,1.1216,-0.0368,0.0664,-0.0048,-3.3,-45.075,-2.6438,,adl
0.220132,-0.1529,-0.2028,0.7795,-0.0368,0.0664,-0.0048,-3.3,-45.075,-2.6438,,adl
0.2361,-0.1557,-0.129,0.3079,-0.0368,0.0664,-0.0048,-3.3,-45.075,-2.6438,,adl
0.238195,-0.1557,-0.129,0.3079,-0.0368,0.0664,-0.0048,-3.1125,-44.9813,-2.55,,adl
0.249899,-0.1557,-0.129,0.3079,0.2344,-0.0104,0.0159,-3.1125,-44.9813,-2.55,,adl
0.256277,-0.0524,-0.1968,-0.062,0.2344,-0.0104,0.0159,-3.1125,-44.9813,-2.55,,adl
0.260059,-0.0524,-0.1968,-0.062,0.2344,-0.0104,0.0159,-3.1125,-44.9813,-2.55,,adl
0.274783,-0.0469,-0.0749,-0.4383,0.2344,-0.0104,0.0159,-3.1125,-44.9813,-2.55,,adl
0.29409,0.0116,-0.0777,-0.6236,0.2344,-0.0104,0.0159,-3.1125,-44.9813,-2.55,,adl
0.30015,0.0116,-0.0777,-0.6236,0.2344,-0.0104,0.0159,-2.7188,-45.2625,-1.5188,,adl
0.309463,0.0116,-0.0777,-0.6236,0.2344,-0.0104,0.0159,-2.7188,-45.2625,-1.5188,,adl
0.312843,0.0116,-0.0777,-0.6236,0.089,-0.0203,0.011,-2.7188,-45.2625,-1.5188,,adl
0.315077,0.0126,-0.0604,-0.7392,0.089,-0.0203,0.011,-2.7188,-45.2625,-1.5188,,adl
0.332486,0.0268,-0.0724,-0.7884,0.089,-0.0203,0.011,-2.7188,-45.2625,-1.5188,,adl
0.352457,-0.0038,-0.0852,-0.4144,0.089,-0.0203,0.011,-2.7188,-45.2625,-1.5188,,adl
0.355345,-0.0038,-0.0852,-0.4144,0.089,-0.0203,0.011,-2.7188,-45.2625,-1.5188,,adl
0.358748,-0.0038,-0.0852,-0.4144,0.089,-0.0203,0.011,-2.625,-45.1313,-1.95,,adl
0.370257,-0.0039,-0.0831,-0.2019,0.089,-0.0203,0.011,-2.625,-45.1313,-1.95,,adl
0.374111,-0.0039,-0.0831,-0.2019,-0.1199,0.0432,0.0025,-2.625,-45.1313,-1.95,,adl
0.389243,-0.0626,-0.1187,0.0367,-0.1199,0.0432,0.0025,-2.625,-45.1313,-1.95,,adl
0.402887,-0.0626,-0.1187,0.0367,-0.1199,0.0432,0.0025,-2.625,-45.1313,-1.95,,adl
0.408998,-0.1489,-0.147,0.1675,-0.1199,0.0432,0.0025,-2.625,-45.1313,-1.95,,adl
0.419861,-0.1489,-0.147,0.1675,-0.1199,0.0432,0.0025,-3.4875,-45.3,-2.1188,,adl
0.42858,-0.1426,-0.1483,0.4421,-0.1199,0.0432,0.0025,-3.4875,-45.3,-2.1188,,adl
0.436979,-0.1426,-0.1483,0.4421,-0.0564,-0.0166,0.0184,-3.4875,-45.3,-2.1188,,adl
0.447265,-0.0185,-0.2042,0.4428,-0.0564,-0.0166,0.0184,-3.4875,-45.3,-2.1188,,adl
0.453711,-0.0185,-0.2042,0.4428,-0.0564,-0.0166,0.0184,-3.4875,-45.3,-2.1188,,adl
0.465958,0.0528,-0.1415,0.3569,-0.0564,-0.0166,0.0184,-3.4875,-45.3,-2.1188,,adl
0.479546,0.0528,-0.1415,0.3569,-0.0564,-0.0166,0.0184,-3.2063,-45.3375,-1.725,,adl
0.486945,0.0052,-0.1626,0.1144,-0.0564,-0.0166,0.0184,-3.2063,-45.3375,-1.725,,adl
0.499475,0.0052,-0.1626,0.1144,-0.0564,-0.0166,0.0184,-3.2063,-45.3375,-1.725,,adl
0.500423,0.0052,-0.1626,0.1144,0.0866,0.0041,-0.0073,-3.2063,-45.3375,-1.725,,adl
0.504089,-0.0398,-0.1326,-0.0867,0.0866,0.0041,-0.0073,-3.2063,-45.3375,-1.725,,adl
0.524555,-0.1191,-0.1115,-0.1682,0.0866,0.0041,-0.0073,-3.2063,-45.3375,-1.725,,adl
0.53989,-0.1191,-0.1115,-0.1682,0.0866,0.0041,-0.0073,-2.925,-45.1125,-2.0438,,adl
0.543052,-0.1003,-0.1066,-0.2333,0.0866,0.0041,-0.0073,-2.925,-45.1125,-2.0438,,adl
0.547524,-0.1003,-0.1066,-0.2333,0.0866,0.0041,-0.0073,-2.925,-45.1125,-2.0438,,adl
0.561178,-0.1003,-0.1066,-0.2333,0.0169,0.0041,0.0087,-2.925,-45.1125,-2.0438,,adl
0.564117,-0.0798,-0.1081,-0.2922,0.0169,0.0041,0.0087,-2.925,-45.1125,-2.0438,,adl
0.580902,-0.04,-0.1418,-0.2012,0.0169,0.0041,0.0087,-2.925,-45.1125,-2.0438,,adl
0.594548,-0.04,-0.1418,-0.2012,0.0169,0.0041,0.0087,-2.925,-45.1125,-2.0438,,adl
0.599038,-0.04,-0.1418,-0.2012,0.0169,0.0041,0.0087,-3.4875,-45.3938,-2.2313,,adl
0.602006,0.0111,-0.1376,-0.0869,0.0169,0.0041,0.0087,-3.4875,-45.3938,-2.2313,,adl
0.619325,0.0333,-0.1135,0.0224,0.0169,0.0041,0.0087,-3.4875,-45.3938,-2.2313,,adl
0.623358,0.0333,-0.1135,0.0224,-0.0234,0.0188,0.0025,-3.4875,-45.3938,-2.2313,,adl
0.639123,-0.028,-0.1147,0.089,-0.0234,0.0188,0.0025,-3.4875,-45.3938,-2.2313,,adl
0.645364,-0.028,-0.1147,0.089,-0.0234,0.0188,0.0025,-3.4875,-45.3938,-2.2313,,adl
0.65792,-0.0581,-0.1369,0.1559,-0.0234,0.0188,0.0025,-3.4875,-45.3938,-2.2313,,adl
0.661115,-0.0581,-0.1369,0.1559,-0.0234,0.0188,0.0025,-3.0,-45.3188,-2.1375,,adl
0.676196,-0.0777,-0.1454,0.0699,-0.0234,0.0188,0.0025,-3.0,-45.3188,-2.1375,,adl
0.687626,-0.0777,-0.1454,0.0699,0.0243,0.0091,0.0012,-3.0,-45.3188,-2.1375,,adl
0.689723,-0.0777,-0.1454,0.0699,0.0243,0.0091,0.0012,-3.0,-45.3188,-2.1375,,adl
0.696565,-0.0709,-0.1018,-0.0156,0.0243,0.0091,0.0012,-3.0,-45.3188,-2.1375,,adl
0.715436,-0.0443,-0.109,-0.0555,0.0243,0.0091,0.0012,-3.0,-45.3188,-2.1375,,adl
0.721442,-0.0443,-0.109,-0.0555,0.0243,0.0091,0.0012,-3.0188,-45.2438,-1.725,,adl
0.733857,-0.011,-0.0909,-0.1076,0.0243,0.0091,0.0012,-3.0188,-45.2438,-1.725,,adl
0.738038,-0.011,-0.0909,-0.1076,0.0243,0.0091,0.0012,-3.0188,-45.2438,-1.725,,adl
0.748279,-0.011,-0.0909,-0.1076,0.0071,0.0103,0.0025,-3.0188,-45.2438,-1.725,,adl
0.754336,-0.0286,-0.1262,-0.0523,0.0071,0.0103,0.0025,-3.0188,-45.2438,-1.725,,adl
0.772625,-0.0385,-0.1264,-0.0929,0.0071,0.0103,0.0025,-3.0188,-45.2438,-1.725,,adl
0.779621,-0.0385,-0.1264,-0.0929,0.0071,0.0103,0.0025,-2.925,-45.15,-1.425,,adl
0.785869,-0.0385,-0.1264,-0.0929,0.0071,0.0103,0.0025,-2.925,-45.15,-1.425,,adl
0.790995,-0.0754,-0.1152,-0.0715,0.0071,0.0103,0.0025,-2.925,-45.15,-1.425,,adl
0.808876,-0.0754,-0.1152,-0.0715,-0.0209,0.0029,0.0049,-2.925,-45.15,-1.425,,adl
0.810706,-0.0482,-0.1101,-0.1079,-0.0209,0.0029,0.0049,-2.925,-45.15,-1.425,,adl
0.829067,0.0282,-0.1432,-0.0991,-0.0209,0.0029,0.0049,-2.925,-45.15,-1.425,,adl
0.832838,0.0282,-0.1432,-0.0991,-0.0209,0.0029,0.0049,-2.925,-45.15,-1.425,,adl
0.839866,0.0282,-0.1432,-0.0991,-0.0209,0.0029,0.0049,-2.5125,-45.3188,-2.3625,,adl
0.848488,0.0021,-0.1317,-0.0666,-0.0209,0.0029,0.0049,-2.5125,-45.3188,-2.3625,,adl
0.868341,-0.0276,-0.1557,0.009,-0.0209,0.0029,0.0049,-2.5125,-45.3188,-2.3625,,adl
0.871797,-0.0276,-0.1557,0.009,-0.0356,0.0261,-0.0048,-2.5125,-45.3188,-2.3625,,adl
0.881029,-0.0276,-0.1557,0.009,-0.0356,0.0261,-0.0048,-2.5125,-45.3188,-2.3625,,adl
0.887513,-0.0131,-0.1318,0.0224,-0.0356,0.0261,-0.0048,-2.5125,-45.3188,-2.3625,,adl
0.898483,-0.0131,-0.1318,0.0224,-0.0356,0.0261,-0.0048,-3.1125,-45.0188,-2.025,,adl
0.905819,-0.0287,-0.1131,0.0071,-0.0356,0.0261,-0.0048,-3.1125,-45.0188,-2.025,,adl
0.925683,-0.0714,-0.1323,0.0659,-0.0356,0.0261,-0.0048,-3.1125,-45.0188,-2.025,,adl
0.932835,-0.0714,-0.1323,0.0659,-0.0356,0.0261,-0.0048,-3.1125,-45.0188,-2.025,,adl
0.935434,-0.0714,-0.1323,0.0659,-0.0282,0.0091,-0.0073,-3.1125,-45.0188,-2.025,,adl
0.944712,-0.0728,-0.1293,0.0604,-0.0282,0.0091,-0.0073,-3.1125,-45.0188,-2.025,,adl
0.95928,-0.0728,-0.1293,0.0604,-0.0282,0.0091,-0.0073,-3.3,-45.1875,-2.4375,,adl
0.966179,-0.0989,-0.0905,0.0984,-0.0282,0.0091,-0.0073,-3.3,-45.1875,-2.4375,,adl
0.977186,-0.0989,-0.0905,0.0984,-0.0282,0.0091,-0.0073,-3.3,-45.1875,-2.4375,,adl
0.982483,-0.0588,-0.1161,0.0266,-0.0282,0.0091,-0.0073,-3.3,-45.1875,-2.4375,,adl
0.997415,-0.0588,-0.1161,0.0266,0.0011,0.0114,0.0049,-3.3,-45.1875,-2.4375,,adl
1.002853,-0.0135,-0.1443,0.0696,0.0011,0.0114,0.0049,-3.3,-45.1875,-2.4375,,adl
1.019571,-0.0135,-0.1443,0.0696,0.0011,0.0114,0.0049,-3.1125,-45.1875,-2.6625,,adl
1.022149,-0.0037,-0.1593,-0.0069,0.0011,0.0114,0.0049,-3.1125,-45.1875,-2.6625,,adl
1.02578,-0.0037,-0.1593,-0.0069,0.0011,0.0114,0.0049,-3.1125,-45.1875,-2.6625,,adl
1.039808,0.0103,-0.1032,-0.0474,0.0011,0.0114,0.0049,-3.1125,-45.1875,-2.6625,,adl
1.058075,0.0103,-0.1032,-0.0474,-0.0063,0.0016,-0.0109,-3.1125,-45.1875,-2.6625,,adl
1.059287,-0.0451,-0.1267,-0.0738,-0.0063,0.0016,-0.0109,-3.1125,-45.1875,-2.6625,,adl
1.073371,-0.0451,-0.1267,-0.0738,-0.0063,0.0016,-0.0109,-3.1125,-45.1875,-2.6625,,adl
1.08085,-0.035,-0.1224,-0.0166,-0.0063,0.0016,-0.0109,-3.1125,-45.1875,-2.6625,,adl
1.084026,-0.035,-0.1224,-0.0166,-0.0063,0.0016,-0.0109,-2.9062,-45.225,-2.0438,,adl
1.097567,-0.06,-0.0919,-0.1102,-0.0063,0.0016,-0.0109,-2.9062,-45.225,-2.0438,,adl
1.116667,-0.0763,-0.1159,-0.0506,-0.0063,0.0016,-0.0109,-2.9062,-45.225,-2.0438,,adl
1.122966,-0.0763,-0.1159,-0.0506,-0.0063,0.0016,-0.0109,-2.9062,-45.225,-2.0438,,adl
1.123824,-0.0763,-0.1159,-0.0506,-0.0173,0.0201,0.0025,-2.9062,-45.225,-2.0438,,adl
1.136216,-0.0517,-0.122,0.0041,-0.0173,0.0201,0.0025,-2.9062,-45.225,-2.0438,,adl
1.138848,-0.0517,-0.122,0.0041,-0.0173,0.0201,0.0025,-2.5312,-44.9438,-2.0438,,adl
1.155819,-0.0242,-0.1269,0.0489,-0.0173,0.0201,0.0025,-2.5312,-44.9438,-2.0438,,adl
1.168397,-0.0242,-0.1269,0.0489,-0.0173,0.0201,0.0025,-2.5312,-44.9438,-2.0438,,adl
1.174284,0.0205,-0.1486,0.1344,-0.0173,0.0201,0.0025,-2.5312,-44.9438,-2.0438,,adl
1.183074,0.0205,-0.1486,0.1344,-0.0136,0.0005,-0.0085,-2.5312,-44.9438,-2.0438,,adl
1.193659,-0.0252,-0.1223,0.1389,-0.0136,0.0005,-0.0085,-2.5312,-44.9438,-2.0438,,adl
1.198736,-0.0252,-0.1223,0.1389,-0.0136,0.0005,-0.0085,-3.1125,-45.0,-2.25,,adl
1.212503,-0.0621,-0.1244,0.0722,-0.0136,0.0005,-0.0085,-3.1125,-45.0,-2.25,,adl
1.216022,-0.0621,-0.1244,0.0722,-0.0136,0.0005,-0.0085,-3.1125,-45.0,-2.25,,adl
1.231756,-0.1145,-0.0847,0.0348,-0.0136,0.0005,-0.0085,-3.1125,-45.0,-2.25,,adl
1.245416,-0.1145,-0.0847,0.0348,0.0353,-0.0007,0.0012,-3.1125,-45.0,-2.25,,adl
1.250859,-0.1056,-0.0892,-0.0216,0.0353,-0.0007,0.0012,-3.1125,-45.0,-2.25,,adl
1.259208,-0.1056,-0.0892,-0.0216,0.0353,-0.0007,0.0012,-2.5312,-45.1313,-2.0438,,adl
1.264518,-0.1056,-0.0892,-0.0216,0.0353,-0.0007,0.0012,-2.5312,-45.1313,-2.0438,,adl
1.269743,-0.0499,-0.1377,-0.083,0.0353,-0.0007,0.0012,-2.5312,-45.1313,-2.0438,,adl
1.288838,0.0145,-0.112,-0.0918,0.0353,-0.0007,0.0012,-2.5312,-45.1313,-2.0438,,adl
1.308578,0.0145,-0.112,-0.0918,-0.0001,-0.0069,-0.0011,-2.5312,-45.1313,-2.0438,,adl
1.311175,0.0058,-0.114,-0.0098,-0.0001,-0.0069,-0.0011,-2.5312,-45.1313,-2.0438,,adl
1.312208,0.0058,-0.114,-0.0098,-0.0001,-0.0069,-0.0011,-2.5312,-45.1313,-2.0438,,adl
1.319111,0.0058,-0.114,-0.0098,-0.0001,-0.0069,-0.0011,-2.6438,-44.8125,-2.3625,,adl
1.327042,-0.0082,-0.1563,-0.0524,-0.0001,-0.0069,-0.0011,-2.6438,-44.8125,-2.3625,,adl
1.345959,-0.0215,-0.1321,-0.1067,-0.0001,-0.0069,-0.0011,-2.6438,-44.8125,-2.3625,,adl
1.359405,-0.0215,-0.1321,-0.1067,-0.0001,-0.0069,-0.0011,-2.6438,-44.8125,-2.3625,,adl
1.365391,0.0066,-0.1558,-0.0656,-0.0001,-0.0069,-0.0011,-2.6438,-44.8125,-2.3625,,adl
1.368571,0.0066,-0.1558,-0.0656,-0.0161,0.0201,0.0074,-2.6438,-44.8125,-2.3625,,adl
1.379536,0.0066,-0.1558,-0.0656,-0.0161,0.0201,0.0074,-2.7188,-45.2063,-2.25,,adl
1.384061,-0.0064,-0.1327,0.0375,-0.0161,0.0201,0.0074,-2.7188,-45.2063,-2.25,,adl
1.404438,-0.0861,-0.0872,0.0572,-0.0161,0.0201,0.0074,-2.7188,-45.2063,-2.25,,adl
1.411528,-0.0861,-0.0872,0.0572,-0.0161,0.0201,0.0074,-2.7188,-45.2063,-2.25,,adl
1.423159,-0.1408,-0.1321,0.0845,-0.0161,0.0201,0.0074,-2.7188,-45.2063,-2.25,,adl
1.432487,-0.1408,-0.1321,0.0845,0.0109,0.0456,-0.0023,-2.7188,-45.2063,-2.25,,adl
1.439243,-0.1408,-0.1321,0.0845,0.0109,0.0456,-0.0023,-2.9062,-45.2063,-2.1375,,adl
1.444746,-0.1631,-0.154,0.0425,0.0109,0.0456,-0.0023,-2.9062,-45.2063,-2.1375,,adl
1.455456,-0.1631,-0.154,0.0425,0.0109,0.0456,-0.0023,-2.9062,-45.2063,-2.1375,,adl
1.460771,-0.0766,-0.1799,0.0242,0.0109,0.0456,-0.0023,-2.9062,-45.2063,-2.1375,,adl
1.480487,-0.0368,-0.1803,-0.0161,0.0109,0.0456,-0.0023,-2.9062,-45.2063,-2.1375,,adl
1.493568,-0.0368,-0.1803,-0.0161,-0.0051,-0.0007,0.0,-2.9062,-45.2063,-2.1375,,adl
1.500537,0.0202,-0.1776,0.0081,-0.0051,-0.0007,0.0,-2.9062,-45.2063,-2.1375,,adl
1.501654,0.0202,-0.1776,0.0081,-0.0051,-0.0007,0.0,-3.2063,-45.4125,-2.025,,adl
1.502512,0.0202,-0.1776,0.0081,-0.0051,-0.0007,0.0,-3.2063,-45.4125,-2.025,,adl
1.518251,-0.0067,-0.1249,0.0275,-0.0051,-0.0007,0.0,-3.2063,-45.4125,-2.025,,adl
1.537595,-0.0273,-0.1687,-0.0056,-0.0051,-0.0007,0.0,-3.2063,-45.4125,-2.025,,adl
1.551355,-0.0273,-0.1687,-0.0056,-0.0051,-0.0007,0.0,-3.2063,-45.4125,-2.025,,adl
1.557259,-0.0273,-0.1687,-0.0056,0.0036,0.0029,-0.0085,-3.2063,-45.4125,-2.025,,adl
1.558357,-0.038,-0.1911,-0.0434,0.0036,0.0029,-0.0085,-3.2063,-45.4125,-2.025,,adl
1.559644,-0.038,-0.1911,-0.0434,0.0036,0.0029,-0.0085,-2.8313,-45.0188,-2.1375,,adl
1.575246,-0.0717,-0.1694,-0.0503,0.0036,0.0029,-0.0085,-2.8313,-45.0188,-2.1375,,adl
1.594758,-0.132,-0.1698,0.0145,0.0036,0.0029,-0.0085,-2.8313,-45.0188,-2.1375,,adl
1.601458,-0.132,-0.1698,0.0145,0.0036,0.0029,-0.0085,-2.8313,-45.0188,-2.1375,,adl
1.61413,-0.1217,-0.1794,0.041,0.0036,0.0029,-0.0085,-2.8313,-45.0188,-2.1375,,adl
1.6182,-0.1217,-0.1794,0.041,-0.0124,0.0176,-0.0011,-2.8313,-45.0188,-2.1375,,adl
1.619515,-0.1217,-0.1794,0.041,-0.0124,0.0176,-0.0011,-2.7188,-45.1125,-2.25,,adl
1.633212,-0.0574,-0.1752,0.0722,-0.0124,0.0176,-0.0011,-2.7188,-45.1125,-2.25,,adl
1.647067,-0.0574,-0.1752,0.0722,-0.0124,0.0176,-0.0011,-2.7188,-45.1125,-2.25,,adl
1.653513,-0.0321,-0.1725,0.1405,-0.0124,0.0176,-0.0011,-2.7188,-45.1125,-2.25,,adl
1.671415,-0.0325,-0.1596,0.1018,-0.0124,0.0176,-0.0011,-2.7188,-45.1125,-2.25,,adl
1.679285,-0.0325,-0.1596,0.1018,-0.0124,0.0176,-0.0011,-3.0,-45.3375,-1.8375,,adl
1.680528,-0.0325,-0.1596,0.1018,0.0267,0.0114,-0.0073,-3.0,-45.3375,-1.8375,,adl
1.689692,-0.0799,-0.1589,0.0802,0.0267,0.0114,-0.0073,-3.0,-45.3375,-1.8375,,adl
1.694386,-0.0799,-0.1589,0.0802,0.0267,0.0114,-0.0073,-3.0,-45.3375,-1.8375,,adl
1.70972,-0.1249,-0.1783,-0.0681,0.0267,0.0114,-0.0073,-3.0,-45.3375,-1.8375,,adl
1.728789,-0.1711,-0.1304,-0.0584,0.0267,0.0114,-0.0073,-3.0,-45.3375,-1.8375,,adl
1.738868,-0.1711,-0.1304,-0.0584,0.0267,0.0114,-0.0073,-2.625,-44.9062,-2.3625,,adl
1.745344,-0.1711,-0.1304,-0.0584,0.0267,0.0114,-0.0073,-2.625,-44.9062,-2.3625,,adl
1.746096,-0.1711,-0.1304,-0.0584,0.0144,-0.0069,0.0062,-2.625,-44.9062,-2.3625,,adl
1.747193,-0.072,-0.1544,-0.0707,0.0144,-0.0069,0.0062,-2.625,-44.9062,-2.3625,,adl
1.766317,-0.0366,-0.1195,-0.0521,0.0144,-0.0069,0.0062,-2.625,-44.9062,-2.3625,,adl
1.785879,-0.0052,-0.1572,-0.0482,0.0144,-0.0069,0.0062,-2.625,-44.9062,-2.3625,,adl
1.789709,-0.0052,-0.1572,-0.0482,0.0144,-0.0069,0.0062,-2.625,-44.9062,-2.3625,,adl
1.79894,-0.0052,-0.1572,-0.0482,0.0144,-0.0069,0.0062,-2.7,-45.5063,-2.4563,,adl
1.804439,-0.0052,-0.1572,-0.0482,-0.0087,0.0139,-0.0023,-2.7,-45.5063,-2.4563,,adl
1.805418,-0.0084,-0.1343,-0.0419,-0.0087,0.0139,-0.0023,-2.7,-45.5063,-2.4563,,adl
1.824904,-0.0414,-0.1374,0.0051,-0.0087,0.0139,-0.0023,-2.7,-45.5063,-2.4563,,adl
1.837737,-0.0414,-0.1374,0.0051,-0.0087,0.0139,-0.0023,-2.7,-45.5063,-2.4563,,adl
1.844224,-0.0483,-0.1005,-0.034,-0.0087,0.0139,-0.0023,-2.7,-45.5063,-2.4563,,adl
1.858355,-0.0483,-0.1005,-0.034,-0.0087,0.0139,-0.0023,-2.625,-45.225,-2.1562,,adl
1.86253,-0.1059,-0.0967,0.0083,-0.0087,0.0139,-0.0023,-2.625,-45.225,-2.1562,,adl
1.868801,-0.1059,-0.0967,0.0083,-0.0161,0.0151,-0.0036,-2.625,-45.225,-2.1562,,adl
1.88178,-0.1285,-0.0988,0.0743,-0.0161,0.0151,-0.0036,-2.625,-45.225,-2.1562,,adl
1.886966,-0.1285,-0.0988,0.0743,-0.0161,0.0151,-0.0036,-2.625,-45.225,-2.1562,,adl
1.901154,-0.0478,-0.1196,0.0352,-0.0161,0.0151,-0.0036,-2.625,-45.225,-2.1562,,adl
1.920162,-0.0239,-0.1173,0.037,-0.0161,0.0151,-0.0036,-2.625,-45.225,-2.1562,,adl
1.923306,-0.0239,-0.1173,0.037,-0.0161,0.0151,-0.0036,-2.7375,-44.925,-2.25,,adl
1.929216,-0.0239,-0.1173,0.037,0.0023,0.0041,0.0012,-2.7375,-44.925,-2.25,,adl
1.932926,-0.0239,-0.1173,0.037,0.0023,0.0041,0.0012,-2.7375,-44.925,-2.25,,adl
1.938802,-0.0165,-0.0963,0.0292,0.0023,0.0041,0.0012,-2.7375,-44.925,-2.25,,adl
1.958872,-0.0334,-0.1023,0.0718,0.0023,0.0041,0.0012,-2.7375,-44.925,-2.25,,adl
1.977513,-0.0403,-0.0887,-0.0219,0.0023,0.0041,0.0012,-2.7375,-44.925,-2.25,,adl
1.980472,-0.0403,-0.0887,-0.0219,0.0023,0.0041,0.0012,-2.8313,-45.0188,-2.25,,adl
1.981686,-0.0403,-0.0887,-0.0219,0.0023,0.0041,0.0012,-2.8313,-45.0188,-2.25,,adl
1.990327,-0.0403,-0.0887,-0.0219,0.0144,0.0176,-0.0073,-2.8313,-45.0188,-2.25,,adl
1.999603,-0.0819,-0.0879,-0.0745,0.0144,0.0176,-0.0073,-2.8313,-45.0188,-2.25,,adl
2.016074,-0.1275,-0.0524,-0.0555,0.0144,0.0176,-0.0073,-2.8313,-45.0188,-2.25,,adl
2.028775,-0.1275,-0.0524,-0.0555,0.0144,0.0176,-0.0073,-2.8313,-45.0188,-2.25,,adl
2.034428,-0.0735,-0.0705,-0.0009,0.0144,0.0176,-0.0073,-2.8313,-45.0188,-2.25,,adl
2.039546,-0.0735,-0.0705,-0.0009,0.0144,0.0176,-0.0073,-2.925,-45.0188,-1.9313,,adl
2.053467,-0.0735,-0.0705,-0.0009,0.0071,-0.0069,0.0074,-2.925,-45.0188,-1.9313,,adl
2.056711,-0.022,-0.0935,0.056,0.0071,-0.0069,0.0074,-2.925,-45.0188,-1.9313,,adl
2.072528,0.0312,-0.0608,0.0868,0.0071,-0.0069,0.0074,-2.925,-45.0188,-1.9313,,adl
2.076399,0.0312,-0.0608,0.0868,0.0071,-0.0069,0.0074,-2.925,-45.0188,-1.9313,,adl
2.09213,-0.001,-0.0713,0.07,0.0071,-0.0069,0.0074,-2.925,-45.0188,-1.9313,,adl
2.09915,-0.001,-0.0713,0.07,0.0071,-0.0069,0.0074,-3.1125,-45.3188,-2.0438,,adl
2.110462,-0.0951,-0.0779,-0.0111,0.0071,-0.0069,0.0074,-3.1125,-45.3188,-2.0438,,adl
2.114602,-0.0951,-0.0779,-0.0111,0.0329,0.0004,-0.0073,-3.1125,-45.3188,-2.0438,,adl
2.124287,-0.0951,-0.0779,-0.0111,0.0329,0.0004,-0.0073,-3.1125,-45.3188,-2.0438,,adl
2.130501,-0.1111,-0.0826,-0.1208,0.0329,0.0004,-0.0073,-3.1125,-45.3188,-2.0438,,adl
2.149419,-0.0725,-0.0519,-0.1445,0.0329,0.0004,-0.0073,-3.1125,-45.3188,-2.0438,,adl
2.159866,-0.0725,-0.0519,-0.1445,0.0329,0.0004,-0.0073,-3.0,-45.3188,-2.0438,,adl
2.169392,-0.0366,-0.0133,-0.152,0.0329,0.0004,-0.0073,-3.0,-45.3188,-2.0438,,adl
2.172711,-0.0366,-0.0133,-0.152,0.0329,0.0004,-0.0073,-3.0,-45.3188,-2.0438,,adl
2.178074,-0.0366,-0.0133,-0.152,-0.0184,0.0041,0.0025,-3.0,-45.3188,-2.0438,,adl
2.18728,-0.0376,-0.05,-0.0954,-0.0184,0.0041,0.0025,-3.0,-45.3188,-2.0438,,adl
2.20917,-0.0427,-0.0347,-0.0654,-0.0184,0.0041,0.0025,-3.0,-45.3188,-2.0438,,adl
2.222146,-0.0427,-0.0347,-0.0654,-0.0184,0.0041,0.0025,-2.7938,-45.6188,-2.0438,,adl
2.224171,-0.0427,-0.0347,-0.0654,-0.0184,0.0041,0.0025,-2.7938,-45.6188,-2.0438,,adl
2.224732,-0.0269,-0.0264,0.0628,-0.0184,0.0041,0.0025,-2.7938,-45.6188,-2.0438,,adl
2.239609,-0.0269,-0.0264,0.0628,-0.0209,0.0066,0.0012,-2.7938,-45.6188,-2.0438,,adl
2.244993,-0.0692,-0.0746,0.1364,-0.0209,0.0066,0.0012,-2.7938,-45.6188,-2.0438,,adl
2.264,-0.0631,-0.0784,0.0572,-0.0209,0.0066,0.0012,-2.7938,-45.6188,-2.0438,,adl
2.268242,-0.0631,-0.0784,0.0572,-0.0209,0.0066,0.0012,-2.7938,-45.6188,-2.0438,,adl
2.279512,-0.0631,-0.0784,0.0572,-0.0209,0.0066,0.0012,-2.625,-44.925,-2.1562,,adl
2.282999,-0.0578,-0.0714,0.1027,-0.0209,0.0066,0.0012,-2.625,-44.925,-2.1562,,adl
2.30177,-0.0578,-0.0714,0.1027,0.0169,0.0016,0.0025,-2.625,-44.925,-2.1562,,adl
2.304811,-0.0604,-0.0402,0.0624,0.0169,0.0016,0.0025,-2.625,-44.925,-2.1562,,adl
2.316411,-0.0604,-0.0402,0.0624,0.0169,0.0016,0.0025,-2.625,-44.925,-2.1562,,adl
2.32127,-0.0109,-0.0472,0.0007,0.0169,0.0016,0.0025,-2.625,-44.925,-2.1562,,adl
2.33889,-0.0109,-0.0472,0.0007,0.0169,0.0016,0.0025,-3.225,-44.9062,-2.2313,,adl
2.340176,-0.0328,-0.0562,-0.0322,0.0169,0.0016,0.0025,-3.225,-44.9062,-2.2313,,adl
2.360224,-0.0769,-0.0476,-0.0844,0.0169,0.0016,0.0025,-3.225,-44.9062,-2.2313,,adl
2.371122,-0.0769,-0.0476,-0.0844,0.0169,0.0016,0.0025,-3.225,-44.9062,-2.2313,,adl
2.37186,-0.0769,-0.0476,-0.0844,0.0096,-0.0044,-0.0025,-3.225,-44.9062,-2.2313,,adl
2.378294,-0.0847,-0.033,-0.1056,0.0096,-0.0044,-0.0025,-3.225,-44.9062,-2.2313,,adl
2.397773,-0.0461,-0.0499,-0.1128,0.0096,-0.0044,-0.0025,-3.225,-44.9062,-2.2313,,adl
2.398931,-0.0461,-0.0499,-0.1128,0.0096,-0.0044,-0.0025,-2.325,-45.1313,-2.2688,,adl
2.411263,-0.0461,-0.0499,-0.1128,0.0096,-0.0044,-0.0025,-2.325,-45.1313,-2.2688,,adl
2.416627,-0.0561,-0.0342,-0.077,0.0096,-0.0044,-0.0025,-2.325,-45.1313,-2.2688,,adl
2.425729,-0.0561,-0.0342,-0.077,-0.0184,0.0151,0.0025,-2.325,-45.1313,-2.2688,,adl
2.436658,-0.0851,-0.0192,0.0064,-0.0184,0.0151,0.0025,-2.325,-45.1313,-2.2688,,adl
2.455622,-0.1195,-0.0163,0.0803,-0.0184,0.0151,0.0025,-2.325,-45.1313,-2.2688,,adl
2.459163,-0.1195,-0.0163,0.0803,-0.0184,0.0151,0.0025,-2.8125,-45.4313,-1.95,,adl
2.460195,-0.1195,-0.0163,0.0803,-0.0184,0.0151,0.0025,-2.8125,-45.4313,-1.95,,adl
2.474299,-0.1632,-0.0299,0.0659,-0.0184,0.0151,0.0025,-2.8125,-45.4313,-1.95,,adl
2.488137,-0.1632,-0.0299,0.0659,0.0011,-0.0019,0.0245,-2.8125,-45.4313,-1.95,,adl
2.494118,-0.1084,-0.0614,0.0659,0.0011,-0.0019,0.0245,-2.8125,-45.4313,-1.95,,adl
2.507783,-0.1084,-0.0614,0.0659,0.0011,-0.0019,0.0245,-2.8125,-45.4313,-1.95,,adl
2.513456,-0.0427,-0.0602,0.0109,0.0011,-0.0019,0.0245,-2.8125,-45.4313,-1.95,,adl
2.519578,-0.0427,-0.0602,0.0109,0.0011,-0.0019,0.0245,-2.8313,-45.1313,-1.9313,,adl
2.531711,-0.0341,-0.0123,-0.0535,0.0011,-0.0019,0.0245,-2.8313,-45.1313,-1.9313,,adl
2.550101,-0.0341,-0.0123,-0.0535,0.0059,0.0212,0.0184,-2.8313,-45.1313,-1.9313,,adl
2.551308,-0.0426,-0.0196,-0.1082,0.0059,0.0212,0.0184,-2.8313,-45.1313,-1.9313,,adl
2.555122,-0.0426,-0.0196,-0.1082,0.0059,0.0212,0.0184,-2.8313,-45.1313,-1.9313,,adl
2.570576,-0.079,-0.0238,-0.1054,0.0059,0.0212,0.0184,-2.8313,-45.1313,-1.9313,,adl
2.579291,-0.079,-0.0238,-0.1054,0.0059,0.0212,0.0184,-2.8125,-45.4313,-1.95,,adl
2.588844,-0.0819,-0.0825,-0.0718,0.0059,0.0212,0.0184,-2.8125,-45.4313,-1.95,,adl
2.602561,-0.0819,-0.0825,-0.0718,0.0059,0.0212,0.0184,-2.8125,-45.4313,-1.95,,adl
2.609657,-0.0085,-0.1097,0.0019,0.0059,0.0212,0.0184,-2.8125,-45.4313,-1.95,,adl
2.611675,-0.0085,-0.1097,0.0019,-0.0234,0.0139,0.033,-2.8125,-45.4313,-1.95,,adl
2.627972,0.0652,-0.1052,0.0347,-0.0234,0.0139,0.033,-2.8125,-45.4313,-1.95,,adl
2.639296,0.0652,-0.1052,0.0347,-0.0234,0.0139,0.033,-2.7188,-45.0188,-2.3625,,adl
2.646123,0.0431,-0.0927,0.0606,-0.0234,0.0139,0.033,-2.7188,-45.0188,-2.3625,,adl
2.649646,0.0431,-0.0927,0.0606,-0.0234,0.0139,0.033,-2.7188,-45.0188,-2.3625,,adl
2.665614,-0.0583,-0.0311,0.0771,-0.0234,0.0139,0.033,-2.7188,-45.0188,-2.3625,,adl
2.674421,-0.0583,-0.0311,0.0771,-0.0026,0.0029,0.0062,-2.7188,-45.0188,-2.3625,,adl
2.685029,-0.1129,-0.0528,0.046,-0.0026,0.0029,0.0062,-2.7188,-45.0188,-2.3625,,adl
2.699161,-0.1129,-0.0528,0.046,-0.0026,0.0029,0.0062,-2.7188,-45.0188,-2.3625,,adl
2.700103,-0.1129,-0.0528,0.046,-0.0026,0.0029,0.0062,-3.3938,-45.2063,-2.025,,adl
2.704472,-0.0527,-0.0612,-0.0209,-0.0026,0.0029,0.0062,-3.3938,-45.2063,-2.025,,adl
2.72313,-0.036,-0.0624,-0.0734,-0.0026,0.0029,0.0062,-3.3938,-45.2063,-2.025,,adl
2.73704,-0.036,-0.0624,-0.0734,-0.0063,0.0041,0.0062,-3.3938,-45.2063,-2.025,,adl
2.743718,-0.06,-0.026,-0.028,-0.0063,0.0041,0.0062,-3.3938,-45.2063,-2.025,,adl
2.74659,-0.06,-0.026,-0.028,-0.0063,0.0041,0.0062,-3.3938,-45.2063,-2.025,,adl
2.758937,-0.06,-0.026,-0.028,-0.0063,0.0041,0.0062,-1.7438,-45.6188,-1.0312,,adl
2.761194,-0.0809,-0.0444,0.0246,-0.0063,0.0041,0.0062,-1.7438,-45.6188,-1.0312,,adl
2.780458,-0.1281,-0.0138,0.0463,-0.0063,0.0041,0.0062,-1.7438,-45.6188,-1.0312,,adl
2.793779,-0.1281,-0.0138,0.0463,-0.0063,0.0041,0.0062,-1.7438,-45.6188,-1.0312,,adl
2.798314,-0.1281,-0.0138,0.0463,0.0109,0.0102,0.0232,-1.7438,-45.6188,-1.0312,,adl
2.799355,-0.1831,-0.0114,0.0443,0.0109,0.0102,0.0232,-1.7438,-45.6188,-1.0312,,adl
2.8191,-0.1352,-0.0037,0.0642,0.0109,0.0102,0.0232,-1.7438,-45.6188,-1.0312,,adl
2.821361,-0.1352,-0.0037,0.0642,0.0109,0.0102,0.0232,-3.1313,-45.0375,-1.5188,,adl
2.837461,-0.1345,-0.0446,-0.0045,0.0109,0.0102,0.0232,-3.1313,-45.0375,-1.5188,,adl
2.842271,-0.1345,-0.0446,-0.0045,0.0109,0.0102,0.0232,-3.1313,-45.0375,-1.5188,,adl
2.856576,-0.0902,-0.0136,-0.0564,0.0109,0.0102,0.0232,-3.1313,-45.0375,-1.5188,,adl
2.860934,-0.0902,-0.0136,-0.0564,0.0181,0.0201,0.0355,-3.1313,-45.0375,-1.5188,,adl
2.876023,-0.0967,-0.0442,-0.0652,0.0181,0.0201,0.0355,-3.1313,-45.0375,-1.5188,,adl
2.87927,-0.0967,-0.0442,-0.0652,0.0181,0.0201,0.0355,-3.0,-45.3,-2.3438,,adl
2.890082,-0.0967,-0.0442,-0.0652,0.0181,0.0201,0.0355,-3.0,-45.3,-2.3438,,adl
2.895349,-0.0502,-0.1411,-0.0482,0.0181,0.0201,0.0355,-3.0,-45.3,-2.3438,,adl
2.914246,0.072,-0.1952,-0.0967,0.0181,0.0201,0.0355,-3.0,-45.3,-2.3438,,adl
2.923236,0.072,-0.1952,-0.0967,-0.0111,0.0078,0.044,-3.0,-45.3,-2.3438,,adl
2.933544,0.2779,-0.1378,-0.076,-0.0111,0.0078,0.044,-3.0,-45.3,-2.3438,,adl
2.937377,0.2779,-0.1378,-0.076,-0.0111,0.0078,0.044,-3.0,-45.3,-2.3438,,adl
2.938315,0.2779,-0.1378,-0.076,-0.0111,0.0078,0.044,-3.3188,-44.9062,-2.2313,,adl
2.953296,0.2715,-0.1418,-0.0938,-0.0111,0.0078,0.044,-3.3188,-44.9062,-2.2313,,adl
2.971692,0.0757,-0.0873,-0.0037,-0.0111,0.0078,0.044,-3.3188,-44.9062,-2.2313,,adl
2.984945,0.0757,-0.0873,-0.0037,-0.0111,0.0078,0.044,-3.3188,-44.9062,-2.2313,,adl
2.985954,0.0757,-0.0873,-0.0037,-0.0271,0.0004,-0.0525,-3.3188,-44.9062,-2.2313,,adl
2.990539,-0.0871,-0.0545,0.0696,-0.0271,0.0004,-0.0525,-3.3188,-44.9062,-2.2313,,adl
2.99846,-0.0871,-0.0545,0.0696,-0.0271,0.0004,-0.0525,-2.925,-45.1125,-2.25,,adl
3.010574,-0.1172,-0.0507,0.0212,-0.0271,0.0004,-0.0525,-2.925,-45.1125,-2.25,,adl
3.029448,-0.1352,-0.0314,-0.0054,-0.0271,0.0004,-0.0525,-2.925,-45.1125,-2.25,,adl
3.035005,-0.1352,-0.0314,-0.0054,-0.0271,0.0004,-0.0525,-2.925,-45.1125,-2.25,,adl
3.047448,-0.1352,-0.0314,-0.0054,-0.0111,0.0066,-0.0268,-2.925,-45.1125,-2.25,,adl
3.049229,-0.2166,0.0043,0.0064,-0.0111,0.0066,-0.0268,-2.925,-45.1125,-2.25,,adl
3.058778,-0.2166,0.0043,0.0064,-0.0111,0.0066,-0.0268,-3.0188,-45.0,-2.25,,adl
3.067611,-0.2512,0.0064,0.0566,-0.0111,0.0066,-0.0268,-3.0188,-45.0,-2.25,,adl
3.081135,-0.2512,0.0064,0.0566,-0.0111,0.0066,-0.0268,-3.0188,-45.0,-2.25,,adl
3.086855,-0.2208,-0.0464,0.0541,-0.0111,0.0066,-0.0268,-3.0188,-45.0,-2.25,,adl
3.104734,-0.0746,-0.0569,0.0706,-0.0111,0.0066,-0.0268,-3.0188,-45.0,-2.25,,adl
3.109482,-0.0746,-0.0569,0.0706,0.0011,-0.0166,0.017,-3.0188,-45.0,-2.25,,adl
3.118519,-0.0746,-0.0569,0.0706,0.0011,-0.0166,0.017,-2.775,-45.6,-4.2375,,adl
3.123918,-0.0101,-0.0209,0.0274,0.0011,-0.0166,0.017,-2.775,-45.6,-4.2375,,adl
3.127643,-0.0101,-0.0209,0.0274,0.0011,-0.0166,0.017,-2.775,-45.6,-4.2375,,adl
3.143562,0.0273,-0.0411,0.006,0.0011,-0.0166,0.017,-2.775,-45.6,-4.2375,,adl
3.163322,-0.0163,-0.0175,-0.0247,0.0011,-0.0166,0.017,-2.775,-45.6,-4.2375,,adl
3.171709,-0.0163,-0.0175,-0.0247,0.0144,0.0188,0.0037,-2.775,-45.6,-4.2375,,adl
3.176762,-0.0163,-0.0175,-0.0247,0.0144,0.0188,0.0037,-2.775,-45.6,-4.2375,,adl
3.17813,-0.0163,-0.0175,-0.0247,0.0144,0.0188,0.0037,-3.0,-45.3,-2.4563,,adl
3.182125,-0.0434,-0.0412,-0.1152,0.0144,0.0188,0.0037,-3.0,-45.3,-2.4563,,adl
3.200535,-0.0084,-0.077,-0.1772,0.0144,0.0188,0.0037,-3.0,-45.3,-2.4563,,adl
3.219983,-0.037,-0.0706,-0.1655,0.0144,0.0188,0.0037,-3.0,-45.3,-2.4563,,adl
3.223655,-0.037,-0.0706,-0.1655,0.0144,0.0188,0.0037,-3.0,-45.3,-2.4563,,adl
3.233202,-0.037,-0.0706,-0.1655,-0.0417,0.0249,-0.0085,-3.0,-45.3,-2.4563,,adl
3.239368,0.0111,-0.072,-0.0898,-0.0417,0.0249,-0.0085,-3.0,-45.3,-2.4563,,adl
3.240408,0.0111,-0.072,-0.0898,-0.0417,0.0249,-0.0085,-3.1125,-45.2063,-2.3438,,adl
3.259459,0.0067,-0.0451,0.0022,-0.0417,0.0249,-0.0085,-3.1125,-45.2063,-2.3438,,adl
3.271889,0.0067,-0.0451,0.0022,-0.0417,0.0249,-0.0085,-3.1125,-45.2063,-2.3438,,adl
3.277482,-0.0402,-0.0401,0.1087,-0.0417,0.0249,-0.0085,-3.1125,-45.2063,-2.3438,,adl
3.295763,-0.0402,-0.0401,0.1087,-0.0221,0.0346,-0.011,-3.1125,-45.2063,-2.3438,,adl
3.296969,-0.0413,-0.0428,0.1344,-0.0221,0.0346,-0.011,-3.1125,-45.2063,-2.3438,,adl
3.299943,-0.0413,-0.0428,0.1344,-0.0221,0.0346,-0.011,-3.3,-45.1125,-2.1375,,adl
3.316281,-0.0437,-0.0496,0.1295,-0.0221,0.0346,-0.011,-3.3,-45.1125,-2.1375,,adl
3.32145,-0.0437,-0.0496,0.1295,-0.0221,0.0346,-0.011,-3.3,-45.1125,-2.1375,,adl
3.335253,-0.0974,-0.0683,0.0244,-0.0221,0.0346,-0.011,-3.3,-45.1125,-2.1375,,adl
3.354527,-0.0775,-0.0723,-0.0259,-0.0221,0.0346,-0.011,-3.3,-45.1125,-2.1375,,adl
3.357938,-0.0775,-0.0723,-0.0259,-0.0026,0.0029,-0.0062,-3.3,-45.1125,-2.1375,,adl
3.359889,-0.0775,-0.0723,-0.0259,-0.0026,0.0029,-0.0062,-2.8125,-45.3188,-2.25,,adl
3.368314,-0.0775,-0.0723,-0.0259,-0.0026,0.0029,-0.0062,-2.8125,-45.3188,-2.25,,adl
3.373369,-0.0238,-0.0706,-0.0333,-0.0026,0.0029,-0.0062,-2.8125,-45.3188,-2.25,,adl
3.392675,-0.0532,-0.0218,-0.0405,-0.0026,0.0029,-0.0062,-2.8125,-45.3188,-2.25,,adl
3.412753,-0.0709,-0.0081,-0.0024,-0.0026,0.0029,-0.0062,-2.8125,-45.3188,-2.25,,adl
3.41645,-0.0709,-0.0081,-0.0024,-0.0026,0.0029,-0.0062,-2.8125,-45.3188,-2.25,,adl
3.418794,-0.0709,-0.0081,-0.0024,-0.0026,0.0029,-0.0062,-2.8313,-45.0188,-2.25,,adl
3.420854,-0.0709,-0.0081,-0.0024,-0.0099,-0.0019,-0.011,-2.8313,-45.0188,-2.25,,adl
3.430302,-0.0583,-0.0299,0.0524,-0.0099,-0.0019,-0.011,-2.8313,-45.0188,-2.25,,adl
3.450555,-0.0672,-0.0593,0.0714,-0.0099,-0.0019,-0.011,-2.8313,-45.0188,-2.25,,adl
3.467438,-0.0672,-0.0593,0.0714,-0.0099,-0.0019,-0.011,-2.8313,-45.0188,-2.25,,adl
3.4703,-0.0113,-0.0631,0.0185,-0.0099,-0.0019,-0.011,-2.8313,-45.0188,-2.25,,adl
3.479319,-0.0113,-0.0631,0.0185,-0.0099,-0.0019,-0.011,-3.0188,-45.0188,-2.1375,,adl
3.483182,-0.0113,-0.0631,0.0185,0.0022,-0.0203,-0.011,-3.0188,-45.0188,-2.1375,,adl
3.487774,0.0159,-0.0741,0.0565,0.0022,-0.0203,-0.011,-3.0188,-45.0188,-2.1375,,adl
3.50761,-0.0003,-0.0809,0.0538,0.0022,-0.0203,-0.011,-3.0188,-45.0188,-2.1375,,adl
3.511435,-0.0003,-0.0809,0.0538,0.0022,-0.0203,-0.011,-3.0188,-45.0188,-2.1375,,adl
3.527113,-0.043,-0.0446,0.0205,0.0022,-0.0203,-0.011,-3.0188,-45.0188,-2.1375,,adl
3.53926,-0.043,-0.0446,0.0205,0.0022,-0.0203,-0.011,-3.0188,-45.0188,-1.9313,,adl
3.544179,-0.043,-0.0446,0.0205,0.0169,-0.0203,-0.0245,-3.0188,-45.0188,-1.9313,,adl
3.545585,-0.0975,0.012,-0.0294,0.0169,-0.0203,-0.0245,-3.0188,-45.0188,-1.9313,,adl
3.558914,-0.0975,0.012,-0.0294,0.0169,-0.0203,-0.0245,-3.0188,-45.0188,-1.9313,,adl
3.5658,-0.092,0.0232,-0.0554,0.0169,-0.0203,-0.0245,-3.0188,-45.0188,-1.9313,,adl
3.583899,-0.1128,0.0062,-0.0909,0.0169,-0.0203,-0.0245,-3.0188,-45.0188,-1.9313,,adl
3.601356,-0.1128,0.0062,-0.0909,0.0169,-0.0203,-0.0245,-2.6438,-44.8313,-2.0438,,adl
3.604769,-0.1037,-0.0164,-0.129,0.0169,-0.0203,-0.0245,-2.6438,-44.8313,-2.0438,,adl
3.607453,-0.1037,-0.0164,-0.129,0.0169,-0.0203,-0.0245,-2.6438,-44.8313,-2.0438,,adl
3.61009,-0.1037,-0.0164,-0.129,-0.0014,-0.0019,-0.0085,-2.6438,-44.8313,-2.0438,,adl
3.621592,-0.1209,0.0109,-0.1601,-0.0014,-0.0019,-0.0085,-2.6438,-44.8313,-2.0438,,adl
3.64184,-0.1143,-0.0012,-0.0721,-0.0014,-0.0019,-0.0085,-2.6438,-44.8313,-2.0438,,adl
3.656359,-0.1143,-0.0012,-0.0721,-0.0014,-0.0019,-0.0085,-2.6438,-44.8313,-2.0438,,adl
3.659113,-0.1143,-0.0012,-0.0721,-0.0014,-0.0019,-0.0085,-3.3,-45.3,-2.1375,,adl
3.661233,-0.0505,-0.0441,-0.0013,-0.0014,-0.0019,-0.0085,-3.3,-45.3,-2.1375,,adl
3.669286,-0.0505,-0.0441,-0.0013,-0.0356,-0.0044,0.0098,-3.3,-45.3,-2.1375,,adl
3.679,0.0133,-0.0871,0.0335,-0.0356,-0.0044,0.0098,-3.3,-45.3,-2.1375,,adl
3.698593,0.0625,-0.0673,0.0591,-0.0356,-0.0044,0.0098,-3.3,-45.3,-2.1375,,adl
3.702583,0.0625,-0.0673,0.0591,-0.0356,-0.0044,0.0098,-3.3,-45.3,-2.1375,,adl
3.717775,0.0948,-0.0575,0.0343,-0.0356,-0.0044,0.0098,-3.3,-45.3,-2.1375,,adl
3.721448,0.0948,-0.0575,0.0343,-0.0356,-0.0044,0.0098,-2.4188,-45.5063,-2.5688,,adl
3.733675,0.0948,-0.0575,0.0343,-0.0161,-0.0106,-0.0208,-2.4188,-45.5063,-2.5688,,adl
3.73736,0.0533,-0.0462,0.0766,-0.0161,-0.0106,-0.0208,-2.4188,-45.5063,-2.5688,,adl
3.750423,0.0533,-0.0462,0.0766,-0.0161,-0.0106,-0.0208,-2.4188,-45.5063,-2.5688,,adl
3.755544,-0.0453,-0.0087,0.0668,-0.0161,-0.0106,-0.0208,-2.4188,-45.5063,-2.5688,,adl
3.775921,-0.1016,0.0258,0.0073,-0.0161,-0.0106,-0.0208,-2.4188,-45.5063,-2.5688,,adl
3.780087,-0.1016,0.0258,0.0073,-0.0161,-0.0106,-0.0208,-3.225,-44.7,-2.3438,,adl
3.793322,-0.1016,0.0258,0.0073,0.0084,0.0322,-0.0268,-3.225,-44.7,-2.3438,,adl
3.797467,-0.1369,0.0329,-0.0111,0.0084,0.0322,-0.0268,-3.225,-44.7,-2.3438,,adl
3.799559,-0.1369,0.0329,-0.0111,0.0084,0.0322,-0.0268,-3.225,-44.7,-2.3438,,adl
3.814258,-0.2068,-0.0118,0.0135,0.0084,0.0322,-0.0268,-3.225,-44.7,-2.3438,,adl
3.83251,-0.1754,-0.0223,-0.0077,0.0084,0.0322,-0.0268,-3.225,-44.7,-2.3438,,adl
3.838978,-0.1754,-0.0223,-0.0077,0.0084,0.0322,-0.0268,-2.925,-44.9062,-2.25,,adl
3.845473,-0.1754,-0.0223,-0.0077,0.0084,0.0322,-0.0268,-2.925,-44.9062,-2.25,,adl
3.85171,-0.1497,-0.0233,0.0165,0.0084,0.0322,-0.0268,-2.925,-44.9062,-2.25,,adl
3.85742,-0.1497,-0.0233,0.0165,0.0071,0.0066,0.011,-2.925,-44.9062,-2.25,,adl
3.870403,-0.0177,-0.0573,0.0166,0.0071,0.0066,0.011,-2.925,-44.9062,-2.25,,adl
3.889867,0.0232,-0.0572,0.0022,0.0071,0.0066,0.011,-2.925,-44.9062,-2.25,,adl
3.893168,0.0232,-0.0572,0.0022,0.0071,0.0066,0.011,-2.925,-44.9062,-2.25,,adl
3.899812,0.0232,-0.0572,0.0022,0.0071,0.0066,0.011,-2.7188,-45.1125,-2.25,,adl
3.910165,0.0497,-0.0455,-0.0362,0.0071,0.0066,0.011,-2.7188,-45.1125,-2.25,,adl
3.917731,0.0497,-0.0455,-0.0362,0.0034,0.0016,-0.0025,-2.7188,-45.1125,-2.25,,adl
3.928328,0.0559,-0.0054,-0.0075,0.0034,0.0016,-0.0025,-2.7188,-45.1125,-2.25,,adl
3.945529,0.0559,-0.0054,-0.0075,0.0034,0.0016,-0.0025,-2.7188,-45.1125,-2.25,,adl
3.948791,-0.0315,0.0039,-0.0959,0.0034,0.0016,-0.0025,-2.7188,-45.1125,-2.25,,adl
3.958999,-0.0315,0.0039,-0.0959,0.0034,0.0016,-0.0025,-2.925,-44.8875,-2.7563,,adl
3.965712,-0.1308,-0.0029,-0.0167,0.0034,0.0016,-0.0025,-2.925,-44.8875,-2.7563,,adl
3.98028,-0.1308,-0.0029,-0.0167,-0.0099,0.0102,0.0,-2.925,-44.8875,-2.7563,,adl
3.986516,-0.162,-0.0298,-0.0383,-0.0099,0.0102,0.0,-2.925,-44.8875,-2.7563,,adl
3.989593,-0.162,-0.0298,-0.0383,-0.0099,0.0102,0.0,-2.925,-44.8875,-2.7563,,adl
4.004863,-0.0618,-0.0599,0.0404,-0.0099,0.0102,0.0,-2.925,-44.8875,-2.7563,,adl
4.019145,-0.0618,-0.0599,0.0404,-0.0099,0.0102,0.0,-3.0,-45.6,-2.4563,,adl
4.02353,-0.0082,-0.0332,0.0423,-0.0099,0.0102,0.0,-3.0,-45.6,-2.4563,,adl
4.037402,-0.0082,-0.0332,0.0423,-0.0099,0.0102,0.0,-3.0,-45.6,-2.4563,,adl
4.044825,-0.0082,-0.0332,0.0423,-0.0038,-0.0106,0.0073,-3.0,-45.6,-2.4563,,adl
4.047519,0.096,-0.0528,0.0443,-0.0038,-0.0106,0.0073,-3.0,-45.6,-2.4563,,adl
4.061573,0.0836,-0.0305,0.0368,-0.0038,-0.0106,0.0073,-3.0,-45.6,-2.4563,,adl
4.078852,0.0836,-0.0305,0.0368,-0.0038,-0.0106,0.0073,-2.625,-45.0188,-2.3625,,adl
4.082,-0.0166,-0.0264,-0.0014,-0.0038,-0.0106,0.0073,-2.625,-45.0188,-2.3625,,adl
4.084431,-0.0166,-0.0264,-0.0014,-0.0038,-0.0106,0.0073,-2.625,-45.0188,-2.3625,,adl
4.099968,-0.1557,-0.0164,-0.0033,-0.0038,-0.0106,0.0073,-2.625,-45.0188,-2.3625,,adl
4.104491,-0.1557,-0.0164,-0.0033,0.0121,0.0151,-0.0048,-2.625,-45.0188,-2.3625,,adl
4.119579,-0.125,-0.0111,-0.0531,0.0121,0.0151,-0.0048,-2.625,-45.0188,-2.3625,,adl
4.134491,-0.125,-0.0111,-0.0531,0.0121,0.0151,-0.0048,-2.625,-45.0188,-2.3625,,adl
4.138535,-0.1245,-0.0071,-0.0672,0.0121,0.0151,-0.0048,-2.625,-45.0188,-2.3625,,adl
4.141183,-0.1245,-0.0071,-0.0672,0.0121,0.0151,-0.0048,-2.5312,-45.0,-2.6813,,adl
4.157427,-0.0763,-0.0226,-0.0242,0.0121,0.0151,-0.0048,-2.5312,-45.0,-2.6813,,adl
4.166415,-0.0763,-0.0226,-0.0242,-0.0063,-0.0044,0.0172,-2.5312,-45.0,-2.6813,,adl
4.177585,-0.0245,0.0097,-0.0005,-0.0063,-0.0044,0.0172,-2.5312,-45.0,-2.6813,,adl
4.180755,-0.0245,0.0097,-0.0005,-0.0063,-0.0044,0.0172,-2.5312,-45.0,-2.6813,,adl
4.195002,0.0322,-0.0513,-0.0103,-0.0063,-0.0044,0.0172,-2.5312,-45.0,-2.6813,,adl
4.198042,0.0322,-0.0513,-0.0103,-0.0063,-0.0044,0.0172,-2.025,-45.0938,-2.9062,,adl
4.215817,0.1012,-0.0345,0.0473,-0.0063,-0.0044,0.0172,-2.025,-45.0938,-2.9062,,adl
4.227727,0.1012,-0.0345,0.0473,-0.0063,-0.0044,0.0172,-2.025,-45.0938,-2.9062,,adl
4.228817,0.1012,-0.0345,0.0473,0.0034,0.0199,0.0,-2.025,-45.0938,-2.9062,,adl
4.233592,0.0039,-0.04,-0.0219,0.0034,0.0199,0.0,-2.025,-45.0938,-2.9062,,adl
4.253366,-0.0419,-0.0296,0.0307,0.0034,0.0199,0.0,-2.025,-45.0938,-2.9062,,adl
4.259072,-0.0419,-0.0296,0.0307,0.0034,0.0199,0.0,-2.925,-45.0,-2.4563,,adl
4.272905,-0.0796,-0.0392,0.0309,0.0034,0.0199,0.0,-2.925,-45.0,-2.4563,,adl
4.27644,-0.0796,-0.0392,0.0309,0.0034,0.0199,0.0,-2.925,-45.0,-2.4563,,adl
4.29012,-0.0796,-0.0392,0.0309,0.0109,0.0089,0.0037,-2.925,-45.0,-2.4563,,adl
4.29155,-0.0676,-0.023,-0.0072,0.0109,0.0089,0.0037,-2.925,-45.0,-2.4563,,adl
4.310878,-0.0217,-0.0447,-0.0646,0.0109,0.0089,0.0037,-2.925,-45.0,-2.4563,,adl
4.322454,-0.0217,-0.0447,-0.0646,0.0109,0.0089,0.0037,-3.0938,-45.2812,-2.7563,,adl
4.325944,-0.0217,-0.0447,-0.0646,0.0109,0.0089,0.0037,-3.0938,-45.2812,-2.7563,,adl
4.329264,-0.0204,-0.0265,-0.0649,0.0109,0.0089,0.0037,-3.0938,-45.2812,-2.7563,,adl
4.3487,-0.0495,-0.0027,-0.0197,0.0109,0.0089,0.0037,-3.0938,-45.2812,-2.7563,,adl
4.353193,-0.0495,-0.0027,-0.0197,-0.0088,-0.0021,0.0012,-3.0938,-45.2812,-2.7563,,adl
4.368119,-0.0096,0.0093,0.0038,-0.0088,-0.0021,0.0012,-3.0938,-45.2812,-2.7563,,adl
4.372259,-0.0096,0.0093,0.0038,-0.0088,-0.0021,0.0012,-3.0938,-45.2812,-2.7563,,adl
4.379005,-0.0096,0.0093,0.0038,-0.0088,-0.0021,0.0012,-2.9062,-45.0938,-2.55,,adl
4.389664,0.0024,-0.0032,-0.0108,-0.0088,-0.0021,0.0012,-2.9062,-45.0938,-2.55,,adl
4.406604,-0.0396,-0.0022,-0.0155,-0.0088,-0.0021,0.0012,-2.9062,-45.0938,-2.55,,adl
4.415475,-0.0396,-0.0022,-0.0155,-0.0001,0.0199,-0.0025,-2.9062,-45.0938,-2.55,,adl
4.420476,-0.0396,-0.0022,-0.0155,-0.0001,0.0199,-0.0025,-2.9062,-45.0938,-2.55,,adl
4.425922,-0.1379,0.0034,-0.0417,-0.0001,0.0199,-0.0025,-2.9062,-45.0938,-2.55,,adl
4.440442,-0.1379,0.0034,-0.0417,-0.0001,0.0199,-0.0025,-3.0188,-44.8125,-2.25,,adl
4.444568,-0.1606,-0.014,-0.0035,-0.0001,0.0199,-0.0025,-3.0188,-44.8125,-2.25,,adl
4.463542,-0.0581,-0.0087,0.0416,-0.0001,0.0199,-0.0025,-3.0188,-44.8125,-2.25,,adl
4.467587,-0.0581,-0.0087,0.0416,-0.0001,0.0199,-0.0025,-3.0188,-44.8125,-2.25,,adl
4.476154,-0.0581,-0.0087,0.0416,-0.0014,-0.0069,0.0183,-3.0188,-44.8125,-2.25,,adl
4.482346,0.0583,-0.0165,0.0508,-0.0014,-0.0069,0.0183,-3.0188,-44.8125,-2.25,,adl
4.498938,0.0583,-0.0165,0.0508,-0.0014,-0.0069,0.0183,-2.925,-45.0,-2.4563,,adl
4.501598,0.0758,-0.0174,0.0724,-0.0014,-0.0069,0.0183,-2.925,-45.0,-2.4563,,adl
4.515731,0.0758,-0.0174,0.0724,-0.0014,-0.0069,0.0183,-2.925,-45.0,-2.4563,,adl
4.522822,-0.0027,-0.0129,0.0081,-0.0014,-0.0069,0.0183,-2.925,-45.0,-2.4563,,adl
4.539763,-0.0027,-0.0129,0.0081,0.0219,-0.0044,-0.0098,-2.925,-45.0,-2.4563,,adl
4.54285,-0.0166,-0.0039,-0.0609,0.0219,-0.0044,-0.0098,-2.925,-45.0,-2.4563,,adl
4.559524,-0.0434,0.0015,-0.1278,0.0219,-0.0044,-0.0098,-2.925,-45.0,-2.4563,,adl
4.56286,-0.0434,0.0015,-0.1278,0.0219,-0.0044,-0.0098,-2.5312,-44.9813,-2.8875,,adl
4.565099,-0.0434,0.0015,-0.1278,0.0219,-0.0044,-0.0098,-2.5312,-44.9813,-2.8875,,adl
4.578439,-0.0367,-0.0023,-0.097,0.0219,-0.0044,-0.0098,-2.5312,-44.9813,-2.8875,,adl
4.59741,-0.0426,-0.0238,0.0368,0.0219,-0.0044,-0.0098,-2.5312,-44.9813,-2.8875,,adl
4.601057,-0.0426,-0.0238,0.0368,-0.0026,0.0077,-0.0085,-2.5312,-44.9813,-2.8875,,adl
4.611434,-0.0426,-0.0238,0.0368,-0.0026,0.0077,-0.0085,-2.5312,-44.9813,-2.8875,,adl
4.616298,-0.0726,0.006,0.0942,-0.0026,0.0077,-0.0085,-2.5312,-44.9813,-2.8875,,adl
4.618743,-0.0726,0.006,0.0942,-0.0026,0.0077,-0.0085,-2.9062,-45.3938,-2.5688,,adl
4.635851,-0.1143,-0.0419,0.087,-0.0026,0.0077,-0.0085,-2.9062,-45.3938,-2.5688,,adl
4.65499,-0.0612,-0.0339,0.0823,-0.0026,0.0077,-0.0085,-2.9062,-45.3938,-2.5688,,adl
4.659491,-0.0612,-0.0339,0.0823,-0.0026,0.0077,-0.0085,-2.9062,-45.3938,-2.5688,,adl
4.663469,-0.0612,-0.0339,0.0823,0.0291,-0.0032,0.0073,-2.9062,-45.3938,-2.5688,,adl
4.673905,0.0113,-0.0025,-0.0058,0.0291,-0.0032,0.0073,-2.9062,-45.3938,-2.5688,,adl
4.679082,0.0113,-0.0025,-0.0058,0.0291,-0.0032,0.0073,-2.625,-45.1125,-2.3625,,adl
4.692067,0.0318,0.032,-0.1486,0.0291,-0.0032,0.0073,-2.625,-45.1125,-2.3625,,adl
4.70657,0.0318,0.032,-0.1486,0.0291,-0.0032,0.0073,-2.625,-45.1125,-2.3625,,adl
4.712275,-0.0565,0.0448,-0.1984,0.0291,-0.0032,0.0073,-2.625,-45.1125,-2.3625,,adl
4.725585,-0.0565,0.0448,-0.1984,-0.0026,0.0114,-0.0,-2.625,-45.1125,-2.3625,,adl
4.731394,-0.0921,0.0283,-0.1767,-0.0026,0.0114,-0.0,-2.625,-45.1125,-2.3625,,adl
4.739541,-0.0921,0.0283,-0.1767,-0.0026,0.0114,-0.0,-2.8125,-45.3938,-2.5688,,adl
4.750494,-0.107,0.0031,-0.1147,-0.0026,0.0114,-0.0,-2.8125,-45.3938,-2.5688,,adl
4.753942,-0.107,0.0031,-0.1147,-0.0026,0.0114,-0.0,-2.8125,-45.3938,-2.5688,,adl
4.769234,-0.0384,0.0237,-0.0054,-0.0026,0.0114,-0.0,-2.8125,-45.3938,-2.5688,,adl
4.788232,-0.0384,0.0237,-0.0054,-0.0296,0.0029,0.0073,-2.8125,-45.3938,-2.5688,,adl
4.79128,0.0165,-0.0123,0.123,-0.0296,0.0029,0.0073,-2.8125,-45.3938,-2.5688,,adl
4.800928,0.0165,-0.0123,0.123,-0.0296,0.0029,0.0073,-3.1313,-44.925,-1.8188,,adl
4.80429,0.0165,-0.0123,0.123,-0.0296,0.0029,0.0073,-3.1313,-44.925,-1.8188,,adl
4.808231,-0.0045,0.0113,0.0935,-0.0296,0.0029,0.0073,-3.1313,-44.925,-1.8188,,adl
4.82722,-0.0293,-0.0062,0.0885,-0.0296,0.0029,0.0073,-3.1313,-44.925,-1.8188,,adl
4.845993,-0.0623,0.0007,0.0311,-0.0296,0.0029,0.0073,-3.1313,-44.925,-1.8188,,adl
4.849742,-0.0623,0.0007,0.0311,-0.0296,0.0029,0.0073,-3.1313,-44.925,-1.8188,,adl
4.851835,-0.0623,0.0007,0.0311,0.0132,0.0089,0.0025,-3.1313,-44.925,-1.8188,,adl
4.858009,-0.0623,0.0007,0.0311,0.0132,0.0089,0.0025,-2.5312,-45.0188,-2.1562,,adl
4.866207,-0.0593,0.0036,-0.0164,0.0132,0.0089,0.0025,-2.5312,-45.0188,-2.1562,,adl
4.884562,-0.0774,0.0012,-0.0518,0.0132,0.0089,0.0025,-2.5312,-45.0188,-2.1562,,adl
4.901076,-0.0774,0.0012,-0.0518,0.0132,0.0089,0.0025,-2.5312,-45.0188,-2.1562,,adl
4.904637,-0.0283,-0.0048,-0.0612,0.0132,0.0089,0.0025,-2.5312,-45.0188,-2.1562,,adl
4.912251,-0.0283,-0.0048,-0.0612,0.0022,0.0077,0.0122,-2.5312,-45.0188,-2.1562,,adl
4.9194,-0.0283,-0.0048,-0.0612,0.0022,0.0077,0.0122,-3.2063,-45.075,-2.55,,adl
4.922321,0.0176,-0.0047,-0.0588,0.0022,0.0077,0.0122,-3.2063,-45.075,-2.55,,adl
4.941721,-0.0184,0.041,0.0011,0.0022,0.0077,0.0122,-3.2063,-45.075,-2.55,,adl
4.945522,-0.0184,0.041,0.0011,0.0022,0.0077,0.0122,-3.2063,-45.075,-2.55,,adl
4.961062,-0.014,0.0241,-0.0181,0.0022,0.0077,0.0122,-3.2063,-45.075,-2.55,,adl
4.974183,-0.014,0.0241,-0.0181,0.0011,-0.0021,0.0037,-3.2063,-45.075,-2.55,,adl
4.978875,-0.014,0.0241,-0.0181,0.0011,-0.0021,0.0037,-2.1375,-44.925,-2.2688,,adl
4.979783,-0.067,0.0316,-0.0181,0.0011,-0.0021,0.0037,-2.1375,-44.925,-2.2688,,adl
4.993304,-0.067,0.0316,-0.0181,0.0011,-0.0021,0.0037,-2.1375,-44.925,-2.2688,,adl
5.000713,-0.0685,0.02,-0.0087,0.0011,-0.0021,0.0037,-2.1375,-44.925,-2.2688,,adl
5.018428,-0.0496,-0.0054,-0.0521,0.0011,-0.0021,0.0037,-2.1375,-44.925,-2.2688,,adl
5.036587,-0.0496,-0.0054,-0.0521,-0.0063,-0.0008,0.0073,-2.1375,-44.925,-2.2688,,adl
5.040275,-0.0099,-0.0177,-0.0045,-0.0063,-0.0008,0.0073,-2.1375,-44.925,-2.2688,,adl
5.042283,-0.0099,-0.0177,-0.0045,-0.0063,-0.0008,0.0073,-2.925,-45.1125,-2.1375,,adl
5.04399,-0.0099,-0.0177,-0.0045,-0.0063,-0.0008,0.0073,-2.925,-45.1125,-2.1375,,adl
5.056429,-0.0135,0.0197,0.012,-0.0063,-0.0008,0.0073,-2.925,-45.1125,-2.1375,,adl
5.075375,-0.0443,0.0183,0.007,-0.0063,-0.0008,0.0073,-2.925,-45.1125,-2.1375,,adl
5.091523,-0.0443,0.0183,0.007,-0.0063,-0.0008,0.0073,-2.925,-45.1125,-2.1375,,adl
5.09405,-0.06,0.0142,0.026,-0.0063,-0.0008,0.0073,-2.925,-45.1125,-2.1375,,adl
5.098782,-0.06,0.0142,0.026,-0.0001,-0.0093,0.0025,-2.925,-45.1125,-2.1375,,adl
5.09995,-0.06,0.0142,0.026,-0.0001,-0.0093,0.0025,-3.0188,-44.8125,-2.1375,,adl
5.118456,-0.0565,0.0026,-0.0173,-0.0001,-0.0093,0.0025,-3.0188,-44.8125,-2.1375,,adl
5.134828,-0.0341,0.0235,-0.0028,-0.0001,-0.0093,0.0025,-3.0188,-44.8125,-2.1375,,adl
5.138228,-0.0341,0.0235,-0.0028,-0.0001,-0.0093,0.0025,-3.0188,-44.8125,-2.1375,,adl
5.152186,-0.0484,0.0084,-0.0314,-0.0001,-0.0093,0.0025,-3.0188,-44.8125,-2.1375,,adl
5.159583,-0.0484,0.0084,-0.0314,-0.0001,-0.0093,0.0025,-2.7,-45.4875,-2.6813,,adl
5.160632,-0.0484,0.0084,-0.0314,0.0047,-0.0021,0.0037,-2.7,-45.4875,-2.6813,,adl
5.171681,-0.0511,-0.0099,-0.0288,0.0047,-0.0021,0.0037,-2.7,-45.4875,-2.6813,,adl
5.184382,-0.0511,-0.0099,-0.0288,0.0047,-0.0021,0.0037,-2.7,-45.4875,-2.6813,,adl
5.190341,-0.0568,-0.0029,-0.0237,0.0047,-0.0021,0.0037,-2.7,-45.4875,-2.6813,,adl
5.209595,0.0317,-0.0031,-0.0498,0.0047,-0.0021,0.0037,-2.7,-45.4875,-2.6813,,adl
5.220775,0.0317,-0.0031,-0.0498,0.0047,-0.0021,0.0037,-2.8313,-44.8875,-2.5688,,adl
5.223119,0.0317,-0.0031,-0.0498,-0.0001,0.0016,-0.0037,-2.8313,-44.8875,-2.5688,,adl
5.228,0.0302,0.0068,-0.04,-0.0001,0.0016,-0.0037,-2.8313,-44.8875,-2.5688,,adl
5.233242,0.0302,0.0068,-0.04,-0.0001,0.0016,-0.0037,-2.8313,-44.8875,-2.5688,,adl
5.247633,-0.0073,0.0049,-0.0709,-0.0001,0.0016,-0.0037,-2.8313,-44.8875,-2.5688,,adl
5.267182,-0.093,0.0066,-0.0611,-0.0001,0.0016,-0.0037,-2.8313,-44.8875,-2.5688,,adl
5.280782,-0.093,0.0066,-0.0611,-0.0001,0.0016,-0.0037,-2.5125,-45.3,-2.5688,,adl
5.281967,-0.093,0.0066,-0.0611,-0.0001,0.0016,-0.0037,-2.5125,-45.3,-2.5688,,adl
5.284276,-0.093,0.0066,-0.0611,-0.0124,0.0016,-0.0049,-2.5125,-45.3,-2.5688,,adl
5.285455,-0.1192,-0.0049,-0.0203,-0.0124,0.0016,-0.0049,-2.5125,-45.3,-2.5688,,adl
5.304342,-0.0921,-0.0048,0.0038,-0.0124,0.0016,-0.0049,-2.5125,-45.3,-2.5688,,adl
5.324059,-0.1173,-0.0242,0.0233,-0.0124,0.0016,-0.0049,-2.5125,-45.3,-2.5688,,adl
5.328013,-0.1173,-0.0242,0.0233,-0.0124,0.0016,-0.0049,-2.5125,-45.3,-2.5688,,adl
5.340055,-0.1173,-0.0242,0.0233,-0.0124,0.0016,-0.0049,-2.8125,-44.9813,-2.6625,,adl
5.344133,-0.1577,-0.099,-0.0334,-0.0124,0.0016,-0.0049,-2.8125,-44.9813,-2.6625,,adl
5.3474,-0.1577,-0.099,-0.0334,0.0157,0.1299,0.0696,-2.8125,-44.9813,-2.6625,,adl
5.361817,-0.1281,-0.0418,0.1318,0.0157,0.1299,0.0696,-2.8125,-44.9813,-2.6625,,adl
5.375892,-0.1281,-0.0418,0.1318,0.0157,0.1299,0.0696,-2.8125,-44.9813,-2.6625,,adl
5.381165,-0.067,-0.0249,0.2843,0.0157,0.1299,0.0696,-2.8125,-44.9813,-2.6625,,adl
5.398055,-0.067,-0.0249,0.2843,0.0157,0.1299,0.0696,-1.5375,-45.4875,-1.4625,,adl
5.402276,0.0166,0.0242,0.2246,0.0157,0.1299,0.0696,-1.5375,-45.4875,-1.4625,,adl
5.40951,0.0166,0.0242,0.2246,0.0877,0.2118,0.0903,-1.5375,-45.4875,-1.4625,,adl
5.419061,0.0915,0.0473,0.22,0.0877,0.2118,0.0903,-1.5375,-45.4875,-1.4625,,adl
5.42344,0.0915,0.0473,0.22,0.0877,0.2118,0.0903,-1.5375,-45.4875,-1.4625,,adl
5.437822,-0.0134,0.0572,-0.0894,0.0877,0.2118,0.0903,-1.5375,-45.4875,-1.4625,,adl
5.45684,-0.0763,0.0435,-0.481,0.0877,0.2118,0.0903,-1.5375,-45.4875,-1.4625,,adl
5.45796,-0.0763,0.0435,-0.481,0.0877,0.2118,0.0903,-2.6063,-45.1688,-3.0938,,adl
5.470453,-0.0763,0.0435,-0.481,0.0877,0.2118,0.0903,-2.6063,-45.1688,-3.0938,,adl
5.471528,-0.0763,0.0435,-0.481,0.0437,0.0029,0.0183,-2.6063,-45.1688,-3.0938,,adl
5.47696,-0.0631,-0.0032,-0.6369,0.0437,0.0029,0.0183,-2.6063,-45.1688,-3.0938,,adl
5.49606,0.0339,0.015,-0.4594,0.0437,0.0029,0.0183,-2.6063,-45.1688,-3.0938,,adl
5.514984,0.1215,0.0071,-0.2595,0.0437,0.0029,0.0183,-2.6063,-45.1688,-3.0938,,adl
5.517827,0.1215,0.0071,-0.2595,0.0437,0.0029,0.0183,-2.925,-44.9813,-2.775,,adl
5.518578,0.1215,0.0071,-0.2595,0.0437,0.0029,0.0183,-2.925,-44.9813,-2.775,,adl
5.532657,0.1215,0.0071,-0.2595,-0.0954,-0.0143,-0.0074,-2.925,-44.9813,-2.775,,adl
5.53389,0.1267,0.0144,-0.0416,-0.0954,-0.0143,-0.0074,-2.925,-44.9813,-2.775,,adl
5.55263,0.0777,-0.0484,0.1448,-0.0954,-0.0143,-0.0074,-2.925,-44.9813,-2.775,,adl
5.566373,0.0777,-0.0484,0.1448,-0.0954,-0.0143,-0.0074,-2.925,-44.9813,-2.775,,adl
5.571533,-0.0011,-0.0545,0.2431,-0.0954,-0.0143,-0.0074,-2.925,-44.9813,-2.775,,adl
5.577927,-0.0011,-0.0545,0.2431,-0.0954,-0.0143,-0.0074,-2.7,-45.5625,-2.9813,,adl
5.59128,-0.06,-0.061,0.1988,-0.0954,-0.0143,-0.0074,-2.7,-45.5625,-2.9813,,adl
5.594937,-0.06,-0.061,0.1988,-0.0209,0.0041,-0.0305,-2.7,-45.5625,-2.9813,,adl
5.610119,-0.1511,-0.0347,0.1653,-0.0209,0.0041,-0.0305,-2.7,-45.5625,-2.9813,,adl
5.614236,-0.1511,-0.0347,0.1653,-0.0209,0.0041,-0.0305,-2.7,-45.5625,-2.9813,,adl
5.62986,-0.1922,0.0017,0.1637,-0.0209,0.0041,-0.0305,-2.7,-45.5625,-2.9813,,adl
5.639061,-0.1922,0.0017,0.1637,-0.0209,0.0041,-0.0305,-2.1188,-45.1688,-3.2063,,adl
5.64841,-0.1892,-0.033,0.1076,-0.0209,0.0041,-0.0305,-2.1188,-45.1688,-3.2063,,adl
5.657204,-0.1892,-0.033,0.1076,0.0389,0.0236,0.0073,-2.1188,-45.1688,-3.2063,,adl
5.66183,-0.1892,-0.033,0.1076,0.0389,0.0236,0.0073,-2.1188,-45.1688,-3.2063,,adl
5.667401,-0.2009,-0.0486,0.0566,0.0389,0.0236,0.0073,-2.1188,-45.1688,-3.2063,,adl
5.688109,-0.1446,-0.0719,-0.0155,0.0389,0.0236,0.0073,-2.1188,-45.1688,-3.2063,,adl
5.701688,-0.1446,-0.0719,-0.0155,0.0389,0.0236,0.0073,-3.4875,-45.2812,-2.55,,adl
5.706778,-0.081,-0.0424,-0.0346,0.0389,0.0236,0.0073,-3.4875,-45.2812,-2.55,,adl
5.712193,-0.081,-0.0424,-0.0346,0.0389,0.0236,0.0073,-3.4875,-45.2812,-2.55,,adl
5.719729,-0.081,-0.0424,-0.0346,0.0414,0.1006,0.0696,-3.4875,-45.2812,-2.55,,adl
5.725051,-0.0067,0.002,-0.1204,0.0414,0.1006,0.0696,-3.4875,-45.2812,-2.55,,adl
5.745069,0.0593,-0.0164,-0.1468,0.0414,0.1006,0.0696,-3.4875,-45.2812,-2.55,,adl
5.758755,0.0593,-0.0164,-0.1468,0.0414,0.1006,0.0696,-3.4875,-45.2812,-2.55,,adl
5.761697,0.0593,-0.0164,-0.1468,0.0414,0.1006,0.0696,-3.2063,-45.0938,-2.3438,,adl
5.763836,0.1223,-0.0306,-0.1552,0.0414,0.1006,0.0696,-3.2063,-45.0938,-2.3438,,adl
5.78183,0.1223,-0.0306,-0.1552,-0.0124,0.0077,0.006,-3.2063,-45.0938,-2.3438,,adl
5.783282,0.0907,-0.015,-0.1838,-0.0124,0.0077,0.006,-3.2063,-45.0938,-2.3438,,adl
5.80221,0.0553,0.0018,-0.1698,-0.0124,0.0077,0.006,-3.2063,-45.0938,-2.3438,,adl
5.806036,0.0553,0.0018,-0.1698,-0.0124,0.0077,0.006,-3.2063,-45.0938,-2.3438,,adl
5.819136,0.0553,0.0018,-0.1698,-0.0124,0.0077,0.006,-3.5063,-45.2063,-2.025,,adl
5.822139,0.0021,-0.0068,-0.0771,-0.0124,0.0077,0.006,-3.5063,-45.2063,-2.025,,adl
5.839928,-0.0134,-0.026,0.0057,-0.0124,0.0077,0.006,-3.5063,-45.2063,-2.025,,adl
5.844023,-0.0134,-0.026,0.0057,-0.0466,0.0041,-0.0208,-3.5063,-45.2063,-2.025,,adl
5.857914,-0.0134,-0.026,0.0057,-0.0466,0.0041,-0.0208,-3.5063,-45.2063,-2.025,,adl
5.860824,-0.0692,-0.078,0.0813,-0.0466,0.0041,-0.0208,-3.5063,-45.2063,-2.025,,adl
5.879337,-0.1153,-0.0592,0.1308,-0.0466,0.0041,-0.0208,-3.5063,-45.2063,-2.025,,adl
5.88099,-0.1153,-0.0592,0.1308,-0.0466,0.0041,-0.0208,-2.9062,-45.075,-2.775,,adl
5.897891,-0.1292,-0.0766,0.1374,-0.0466,0.0041,-0.0208,-2.9062,-45.075,-2.775,,adl
5.904122,-0.1292,-0.0766,0.1374,-0.0466,0.0041,-0.0208,-2.9062,-45.075,-2.775,,adl
5.906918,-0.1292,-0.0766,0.1374,-0.01,-0.0118,-0.0098,-2.9062,-45.075,-2.775,,adl
5.917106,-0.0825,-0.0587,0.1443,-0.01,-0.0118,-0.0098,-2.9062,-45.075,-2.775,,adl
5.935732,-0.06,-0.0463,0.0727,-0.01,-0.0118,-0.0098,-2.9062,-45.075,-2.775,,adl
5.938367,-0.06,-0.0463,0.0727,-0.01,-0.0118,-0.0098,-4.1063,-44.6813,-2.1,,adl
5.948922,-0.06,-0.0463,0.0727,-0.01,-0.0118,-0.0098,-4.1063,-44.6813,-2.1,,adl
5.955271,-0.0462,-0.0507,-0.0201,-0.01,-0.0118,-0.0098,-4.1063,-44.6813,-2.1,,adl
5.968534,-0.0462,-0.0507,-0.0201,0.0157,-0.0044,-0.0,-4.1063,-44.6813,-2.1,,adl
5.974369,-0.0587,-0.0453,-0.0866,0.0157,-0.0044,-0.0,-4.1063,-44.6813,-2.1,,adl
5.992369,-0.0378,-0.0429,-0.0721,0.0157,-0.0044,-0.0,-4.1063,-44.6813,-2.1,,adl
5.996487,-0.0378,-0.0429,-0.0721,0.0157,-0.0044,-0.0,-4.1063,-44.6813,-2.1,,adl
5.999244,-0.0378,-0.0429,-0.0721,0.0157,-0.0044,-0.0,-3.9,-44.8875,-2.1188,,adl
6.012077,0.017,-0.0136,-0.0555,0.0157,-0.0044,-0.0,-3.9,-44.8875,-2.1188,,adl
6.031889,0.017,-0.0136,-0.0555,-0.0026,-0.0154,-0.0159,-3.9,-44.8875,-2.1188,,adl
6.035645,0.0318,-0.0406,0.0161,-0.0026,-0.0154,-0.0159,-3.9,-44.8875,-2.1188,,adl
6.044709,0.0318,-0.0406,0.0161,-0.0026,-0.0154,-0.0159,-3.9,-44.8875,-2.1188,,adl
6.051662,-0.0025,-0.0508,0.0542,-0.0026,-0.0154,-0.0159,-3.9,-44.8875,-2.1188,,adl
6.058349,-0.0025,-0.0508,0.0542,-0.0026,-0.0154,-0.0159,-3.4875,-45.2812,-2.55,,adl
6.069667,-0.0445,-0.0741,0.1023,-0.0026,-0.0154,-0.0159,-3.4875,-45.2812,-2.55,,adl
6.089574,-0.0639,-0.0562,0.0956,-0.0026,-0.0154,-0.0159,-3.4875,-45.2812,-2.55,,adl
6.093397,-0.0639,-0.0562,0.0956,-0.0026,-0.0154,-0.0159,-3.4875,-45.2812,-2.55,,adl
6.095727,-0.0639,-0.0562,0.0956,0.0304,0.0016,-0.0245,-3.4875,-45.2812,-2.55,,adl
6.108409,-0.0959,-0.0694,-0.004,0.0304,0.0016,-0.0245,-3.4875,-45.2812,-2.55,,adl
6.119078,-0.0959,-0.0694,-0.004,0.0304,0.0016,-0.0245,-3.3,-45.3,-2.025,,adl
6.127481,-0.1206,-0.0565,-0.137,0.0304,0.0016,-0.0245,-3.3,-45.3,-2.025,,adl
6.141329,-0.1206,-0.0565,-0.137,0.0304,0.0016,-0.0245,-3.3,-45.3,-2.025,,adl
6.146602,-0.1361,-0.0366,-0.2177,0.0304,0.0016,-0.0245,-3.3,-45.3,-2.025,,adl
6.157428,-0.1361,-0.0366,-0.2177,-0.0088,-0.0106,-0.0037,-3.3,-45.3,-2.025,,adl
6.167654,-0.115,-0.0173,-0.1555,-0.0088,-0.0106,-0.0037,-3.3,-45.3,-2.025,,adl
6.179715,-0.115,-0.0173,-0.1555,-0.0088,-0.0106,-0.0037,-3.6938,-45.1875,-2.1188,,adl
6.184525,-0.0411,-0.0233,-0.0629,-0.0088,-0.0106,-0.0037,-3.6938,-45.1875,-2.1188,,adl
6.189245,-0.0411,-0.0233,-0.0629,-0.0088,-0.0106,-0.0037,-3.6938,-45.1875,-2.1188,,adl
6.204272,0.0134,-0.0469,0.0102,-0.0088,-0.0106,-0.0037,-3.6938,-45.1875,-2.1188,,adl
6.217127,0.0134,-0.0469,0.0102,-0.0283,-0.0264,-0.0049,-3.6938,-45.1875,-2.1188,,adl
6.223244,0.043,-0.0895,0.1167,-0.0283,-0.0264,-0.0049,-3.6938,-45.1875,-2.1188,,adl
6.2368,0.043,-0.0895,0.1167,-0.0283,-0.0264,-0.0049,-3.6938,-45.1875,-2.1188,,adl
6.239024,0.043,-0.0895,0.1167,-0.0283,-0.0264,-0.0049,-3.2063,-44.85,-3.075,,adl
6.245065,0.0002,-0.0944,0.123,-0.0283,-0.0264,-0.0049,-3.2063,-44.85,-3.075,,adl
6.262541,-0.0882,-0.0926,0.0824,-0.0283,-0.0264,-0.0049,-3.2063,-44.85,-3.075,,adl
6.279173,-0.0882,-0.0926,0.0824,0.0107,-0.0021,-0.0074,-3.2063,-44.85,-3.075,,adl
6.280537,-0.0942,-0.0785,0.0615,0.0107,-0.0021,-0.0074,-3.2063,-44.85,-3.075,,adl
6.284293,-0.0942,-0.0785,0.0615,0.0107,-0.0021,-0.0074,-3.2063,-44.85,-3.075,,adl
6.300679,-0.0529,-0.088,0.0147,0.0107,-0.0021,-0.0074,-3.2063,-44.85,-3.075,,adl
6.302085,-0.0529,-0.088,0.0147,0.0107,-0.0021,-0.0074,-3.1875,-45.6,-2.3438,,adl
6.318743,-0.0645,-0.067,-0.0464,0.0107,-0.0021,-0.0074,-3.1875,-45.6,-2.3438,,adl
6.335693,-0.0645,-0.067,-0.0464,0.0107,-0.0021,-0.0074,-3.1875,-45.6,-2.3438,,adl
6.338526,-0.085,-0.0711,-0.079,0.0107,-0.0021,-0.0074,-3.1875,-45.6,-2.3438,,adl
6.341884,-0.085,-0.0711,-0.079,0.0059,-0.0154,-0.0025,-3.1875,-45.6,-2.3438,,adl
6.357056,-0.0821,-0.0833,-0.1574,0.0059,-0.0154,-0.0025,-3.1875,-45.6,-2.3438,,adl
6.360305,-0.0821,-0.0833,-0.1574,0.0059,-0.0154,-0.0025,-2.925,-44.9062,-2.25,,adl
6.376421,-0.032,-0.1203,-0.0761,0.0059,-0.0154,-0.0025,-2.925,-44.9062,-2.25,,adl
6.379962,-0.032,-0.1203,-0.0761,0.0059,-0.0154,-0.0025,-2.925,-44.9062,-2.25,,adl
6.395682,0.0919,-0.15,-0.0072,0.0059,-0.0154,-0.0025,-2.925,-44.9062,-2.25,,adl
6.404428,0.0919,-0.15,-0.0072,-0.0234,-0.0154,-0.0025,-2.925,-44.9062,-2.25,,adl
6.413662,0.1378,-0.0991,0.1023,-0.0234,-0.0154,-0.0025,-2.925,-44.9062,-2.25,,adl
6.420474,0.1378,-0.0991,0.1023,-0.0234,-0.0154,-0.0025,-3.4125,-44.9062,-2.2313,,adl
6.428051,0.1378,-0.0991,0.1023,-0.0234,-0.0154,-0.0025,-3.4125,-44.9062,-2.2313,,adl
6.434325,0.0769,-0.1375,0.1089,-0.0234,-0.0154,-0.0025,-3.4125,-44.9062,-2.2313,,adl
6.452377,-0.0319,-0.1144,0.092,-0.0234,-0.0154,-0.0025,-3.4125,-44.9062,-2.2313,,adl
6.468197,-0.0319,-0.1144,0.092,0.0169,-0.0436,-0.0294,-3.4125,-44.9062,-2.2313,,adl
6.472886,-0.099,-0.1014,-0.0296,0.0169,-0.0436,-0.0294,-3.4125,-44.9062,-2.2313,,adl
6.475463,-0.099,-0.1014,-0.0296,0.0169,-0.0436,-0.0294,-3.4125,-44.9062,-2.2313,,adl
6.478466,-0.099,-0.1014,-0.0296,0.0169,-0.0436,-0.0294,-3.4125,-44.7938,-2.325,,adl
6.491218,-0.1873,-0.0887,-0.0647,0.0169,-0.0436,-0.0294,-3.4125,-44.7938,-2.325,,adl
6.51025,-0.2656,-0.0668,0.0318,0.0169,-0.0436,-0.0294,-3.4125,-44.7938,-2.325,,adl
6.524469,-0.2656,-0.0668,0.0318,0.0169,-0.0436,-0.0294,-3.4125,-44.7938,-2.325,,adl
6.528324,-0.2656,-0.0668,0.0318,0.0096,-0.0289,0.0073,-3.4125,-44.7938,-2.325,,adl
6.530262,-0.2168,-0.0646,0.0803,0.0096,-0.0289,0.0073,-3.4125,-44.7938,-2.325,,adl
6.538883,-0.2168,-0.0646,0.0803,0.0096,-0.0289,0.0073,-3.3188,-44.8125,-2.1375,,adl
6.547822,-0.1218,-0.1096,0.0021,0.0096,-0.0289,0.0073,-3.3188,-44.8125,-2.1375,,adl
6.567405,-0.0624,-0.1132,0.0052,0.0096,-0.0289,0.0073,-3.3188,-44.8125,-2.1375,,adl
6.571555,-0.0624,-0.1132,0.0052,0.0096,-0.0289,0.0073,-3.3188,-44.8125,-2.1375,,adl
6.585958,-0.0301,-0.1512,0.0679,0.0096,-0.0289,0.0073,-3.3188,-44.8125,-2.1375,,adl
6.590762,-0.0301,-0.1512,0.0679,0.012,-0.0191,0.0121,-3.3188,-44.8125,-2.1375,,adl
6.598911,-0.0301,-0.1512,0.0679,0.012,-0.0191,0.0121,-2.7375,-44.8313,-2.0438,,adl
6.605247,-0.0596,-0.1045,-0.0106,0.012,-0.0191,0.0121,-2.7375,-44.8313,-2.0438,,adl
6.619452,-0.0596,-0.1045,-0.0106,0.012,-0.0191,0.0121,-2.7375,-44.8313,-2.0438,,adl
6.624169,-0.0444,-0.1194,-0.0267,0.012,-0.0191,0.0121,-2.7375,-44.8313,-2.0438,,adl
6.643958,-0.0025,-0.1226,-0.0378,0.012,-0.0191,0.0121,-2.7375,-44.8313,-2.0438,,adl
6.652706,-0.0025,-0.1226,-0.0378,0.0132,0.0261,0.0231,-2.7375,-44.8313,-2.0438,,adl
6.659032,-0.0025,-0.1226,-0.0378,0.0132,0.0261,0.0231,-3.6,-44.8875,-2.2313,,adl
6.663015,0.0542,-0.1111,-0.0345,0.0132,0.0261,0.0231,-3.6,-44.8875,-2.2313,,adl
6.667379,0.0542,-0.1111,-0.0345,0.0132,0.0261,0.0231,-3.6,-44.8875,-2.2313,,adl
6.6826,0.0582,-0.1459,-0.0914,0.0132,0.0261,0.0231,-3.6,-44.8875,-2.2313,,adl
6.700902,-0.0039,-0.1684,-0.0891,0.0132,0.0261,0.0231,-3.6,-44.8875,-2.2313,,adl
6.714957,-0.0039,-0.1684,-0.0891,0.0132,0.0261,0.0231,-3.6,-44.8875,-2.2313,,adl
6.717433,-0.0039,-0.1684,-0.0891,-0.0186,-0.0131,-0.0,-3.6,-44.8875,-2.2313,,adl
6.719259,-0.0039,-0.1684,-0.0891,-0.0186,-0.0131,-0.0,-3.0188,-45.1313,-1.9313,,adl
6.720894,-0.0307,-0.1503,-0.0512,-0.0186,-0.0131,-0.0,-3.0188,-45.1313,-1.9313,,adl
6.739759,0.0717,-0.1524,0.0199,-0.0186,-0.0131,-0.0,-3.0188,-45.1313,-1.9313,,adl
6.759035,0.1456,-0.1811,0.0576,-0.0186,-0.0131,-0.0,-3.0188,-45.1313,-1.9313,,adl
6.762522,0.1456,-0.1811,0.0576,-0.0186,-0.0131,-0.0,-3.0188,-45.1313,-1.9313,,adl
6.776769,0.1456,-0.1811,0.0576,-0.0136,-0.0069,-0.0209,-3.0188,-45.1313,-1.9313,,adl
6.778044,0.1153,-0.1555,0.081,-0.0136,-0.0069,-0.0209,-3.0188,-45.1313,-1.9313,,adl
6.779152,0.1153,-0.1555,0.081,-0.0136,-0.0069,-0.0209,-2.925,-45.0563,-1.3125,,adl
6.796788,0.0445,-0.1575,0.0613,-0.0136,-0.0069,-0.0209,-2.925,-45.0563,-1.3125,,adl
6.813713,0.0445,-0.1575,0.0613,-0.0136,-0.0069,-0.0209,-2.925,-45.0563,-1.3125,,adl
6.816918,-0.0365,-0.1131,0.0538,-0.0136,-0.0069,-0.0209,-2.925,-45.0563,-1.3125,,adl
6.835366,-0.1095,-0.1135,0.042,-0.0136,-0.0069,-0.0209,-2.925,-45.0563,-1.3125,,adl
6.839312,-0.1095,-0.1135,0.042,0.012,-0.0154,-0.0282,-2.925,-45.0563,-1.3125,,adl
6.841718,-0.1095,-0.1135,0.042,0.012,-0.0154,-0.0282,-3.5063,-45.1125,-2.025,,adl
6.854417,-0.156,-0.0828,0.0188,0.012,-0.0154,-0.0282,-3.5063,-45.1125,-2.025,,adl
6.857809,-0.156,-0.0828,0.0188,0.012,-0.0154,-0.0282,-3.5063,-45.1125,-2.025,,adl
6.872797,-0.1271,-0.0742,-0.0332,0.012,-0.0154,-0.0282,-3.5063,-45.1125,-2.025,,adl
6.892481,-0.115,-0.0973,0.0127,0.012,-0.0154,-0.0282,-3.5063,-45.1125,-2.025,,adl
6.901307,-0.115,-0.0973,0.0127,0.012,-0.0154,-0.0282,-3.0188,-45.0188,-2.1375,,adl
6.904368,-0.115,-0.0973,0.0127,0.0059,-0.0131,0.0036,-3.0188,-45.0188,-2.1375,,adl
6.906582,-0.115,-0.0973,0.0127,0.0059,-0.0131,0.0036,-3.0188,-45.0188,-2.1375,,adl
6.911134,-0.1003,-0.099,0.0108,0.0059,-0.0131,0.0036,-3.0188,-45.0188,-2.1375,,adl
6.930912,-0.0741,-0.1223,0.016,0.0059,-0.0131,0.0036,-3.0188,-45.0188,-2.1375,,adl
6.950365,-0.0097,-0.1166,-0.0052,0.0059,-0.0131,0.0036,-3.0188,-45.0188,-2.1375,,adl
6.953759,-0.0097,-0.1166,-0.0052,0.0059,-0.0131,0.0036,-3.0188,-45.0188,-2.1375,,adl
6.959762,-0.0097,-0.1166,-0.0052,0.0059,-0.0131,0.0036,-3.3,-45.1875,-2.4375,,adl
6.963613,-0.0097,-0.1166,-0.0052,0.0034,0.0041,0.0305,-3.3,-45.1875,-2.4375,,adl
6.96838,0.0812,-0.1368,0.0359,0.0034,0.0041,0.0305,-3.3,-45.1875,-2.4375,,adl
6.988541,0.1105,-0.1625,0.0148,0.0034,0.0041,0.0305,-3.3,-45.1875,-2.4375,,adl
7.002071,0.1105,-0.1625,0.0148,0.0034,0.0041,0.0305,-3.3,-45.1875,-2.4375,,adl
7.007391,0.0937,-0.1787,-0.0182,0.0034,0.0041,0.0305,-3.3,-45.1875,-2.4375,,adl
7.019216,0.0937,-0.1787,-0.0182,0.0034,0.0041,0.0305,-3.9,-44.8875,-2.0063,,adl
7.025765,0.0937,-0.1787,-0.0182,0.0071,-0.0093,0.0048,-3.9,-44.8875,-2.0063,,adl
7.028047,0.0752,-0.1705,-0.018,0.0071,-0.0093,0.0048,-3.9,-44.8875,-2.0063,,adl
7.045872,0.1035,-0.1775,-0.0539,0.0071,-0.0093,0.0048,-3.9,-44.8875,-2.0063,,adl
7.04947,0.1035,-0.1775,-0.0539,0.0071,-0.0093,0.0048,-3.9,-44.8875,-2.0063,,adl
7.06484,0.052,-0.1264,-0.0205,0.0071,-0.0093,0.0048,-3.9,-44.8875,-2.0063,,adl
7.080465,0.052,-0.1264,-0.0205,0.0071,-0.0093,0.0048,-3.225,-44.9062,-2.1375,,adl
7.084144,0.0396,-0.1184,0.0059,0.0071,-0.0093,0.0048,-3.225,-44.9062,-2.1375,,adl
7.087467,0.0396,-0.1184,0.0059,-0.0063,-0.0106,-0.0025,-3.225,-44.9062,-2.1375,,adl
7.09649,0.0396,-0.1184,0.0059,-0.0063,-0.0106,-0.0025,-3.225,-44.9062,-2.1375,,adl
7.103195,-0.0093,-0.0866,0.0059,-0.0063,-0.0106,-0.0025,-3.225,-44.9062,-2.1375,,adl
7.122142,-0.0242,-0.0796,0.0398,-0.0063,-0.0106,-0.0025,-3.225,-44.9062,-2.1375,,adl
7.139258,-0.0242,-0.0796,0.0398,-0.0063,-0.0106,-0.0025,-3.5063,-44.9062,-2.025,,adl
7.142178,-0.0681,-0.0523,0.074,-0.0063,-0.0106,-0.0025,-3.5063,-44.9062,-2.025,,adl
7.145221,-0.0681,-0.0523,0.074,-0.0063,-0.0106,-0.0025,-3.5063,-44.9062,-2.025,,adl
7.15023,-0.0681,-0.0523,0.074,0.0107,0.0164,0.006,-3.5063,-44.9062,-2.025,,adl
7.160386,-0.0655,-0.0555,0.0343,0.0107,0.0164,0.006,-3.5063,-44.9062,-2.025,,adl
7.179143,-0.0544,-0.1134,0.0449,0.0107,0.0164,0.006,-3.5063,-44.9062,-2.025,,adl
7.192848,-0.0544,-0.1134,0.0449,0.0107,0.0164,0.006,-3.5063,-44.9062,-2.025,,adl
7.198423,0.0445,-0.2135,-0.0047,0.0107,0.0164,0.006,-3.5063,-44.9062,-2.025,,adl
7.200906,0.0445,-0.2135,-0.0047,0.0107,0.0164,0.006,-3.6188,-44.7375,-1.5938,,adl
7.211917,0.0445,-0.2135,-0.0047,0.0071,0.0151,0.0305,-3.6188,-44.7375,-1.5938,,adl
7.217578,0.0895,-0.2259,-0.045,0.0071,0.0151,0.0305,-3.6188,-44.7375,-1.5938,,adl
7.236689,0.1385,-0.2335,-0.0356,0.0071,0.0151,0.0305,-3.6188,-44.7375,-1.5938,,adl
7.240255,0.1385,-0.2335,-0.0356,0.0071,0.0151,0.0305,-3.6188,-44.7375,-1.5938,,adl
7.255385,0.1696,-0.1712,0.0238,0.0071,0.0151,0.0305,-3.6188,-44.7375,-1.5938,,adl
7.258231,0.1696,-0.1712,0.0238,0.0071,0.0151,0.0305,-3.8063,-44.8688,-2.4188,,adl
7.273996,0.1696,-0.1712,0.0238,-0.0015,0.0164,0.0122,-3.8063,-44.8688,-2.4188,,adl
7.277003,0.2636,-0.1651,0.038,-0.0015,0.0164,0.0122,-3.8063,-44.8688,-2.4188,,adl
7.287751,0.2636,-0.1651,0.038,-0.0015,0.0164,0.0122,-3.8063,-44.8688,-2.4188,,adl
7.293909,0.2787,-0.1744,-0.0146,-0.0015,0.0164,0.0122,-3.8063,-44.8688,-2.4188,,adl
7.313732,0.2208,-0.1547,-0.0864,-0.0015,0.0164,0.0122,-3.8063,-44.8688,-2.4188,,adl
7.318572,0.2208,-0.1547,-0.0864,-0.0015,0.0164,0.0122,-3.9938,-44.8875,-2.1188,,adl
7.332408,0.0852,-0.117,-0.0694,-0.0015,0.0164,0.0122,-3.9938,-44.8875,-2.1188,,adl
7.335412,0.0852,-0.117,-0.0694,-0.0015,0.0164,0.0122,-3.9938,-44.8875,-2.1188,,adl
7.336151,0.0852,-0.117,-0.0694,-0.0137,0.0176,-0.0415,-3.9938,-44.8875,-2.1188,,adl
7.351481,-0.0426,-0.135,-0.0599,-0.0137,0.0176,-0.0415,-3.9938,-44.8875,-2.1188,,adl
7.370922,-0.0737,-0.1131,-0.0699,-0.0137,0.0176,-0.0415,-3.9938,-44.8875,-2.1188,,adl
7.380284,-0.0737,-0.1131,-0.0699,-0.0137,0.0176,-0.0415,-3.9938,-45.1688,-2.325,,adl
7.384229,-0.0737,-0.1131,-0.0699,-0.0137,0.0176,-0.0415,-3.9938,-45.1688,-2.325,,adl
7.391306,-0.0342,-0.1162,0.0206,-0.0137,0.0176,-0.0415,-3.9938,-45.1688,-2.325,,adl
7.399891,-0.0342,-0.1162,0.0206,-0.0358,0.0176,-0.0062,-3.9938,-45.1688,-2.325,,adl
7.408498,0.0106,-0.1099,0.1279,-0.0358,0.0176,-0.0062,-3.9938,-45.1688,-2.325,,adl
7.428704,0.008,-0.1178,0.1564,-0.0358,0.0176,-0.0062,-3.9938,-45.1688,-2.325,,adl
7.432619,0.008,-0.1178,0.1564,-0.0358,0.0176,-0.0062,-3.9938,-45.1688,-2.325,,adl
7.438771,0.008,-0.1178,0.1564,-0.0358,0.0176,-0.0062,-3.525,-44.8125,-1.9125,,adl
7.446826,0.0245,-0.1383,0.1085,-0.0358,0.0176,-0.0062,-3.525,-44.8125,-1.9125,,adl
7.460539,0.0245,-0.1383,0.1085,0.007,-0.0056,0.0023,-3.525,-44.8125,-1.9125,,adl
7.467792,0.0756,-0.1581,0.0368,0.007,-0.0056,0.0023,-3.525,-44.8125,-1.9125,,adl
7.479243,0.0756,-0.1581,0.0368,0.007,-0.0056,0.0023,-3.525,-44.8125,-1.9125,,adl
7.485625,0.1068,-0.1333,0.0037,0.007,-0.0056,0.0023,-3.525,-44.8125,-1.9125,,adl
7.500013,0.1068,-0.1333,0.0037,0.007,-0.0056,0.0023,-3.2063,-45.0938,-2.3438,,adl
7.504059,0.1261,-0.1348,-0.0413,0.007,-0.0056,0.0023,-3.2063,-45.0938,-2.3438,,adl
7.522987,0.1261,-0.1348,-0.0413,0.001,0.0029,-0.0037,-3.2063,-45.0938,-2.3438,,adl
7.526059,0.1086,-0.1213,-0.0817,0.001,0.0029,-0.0037,-3.2063,-45.0938,-2.3438,,adl
7.528448,0.1086,-0.1213,-0.0817,0.001,0.0029,-0.0037,-3.2063,-45.0938,-2.3438,,adl
7.542728,0.1459,-0.1328,-0.0889,0.001,0.0029,-0.0037,-3.2063,-45.0938,-2.3438,,adl
7.558867,0.1459,-0.1328,-0.0889,0.001,0.0029,-0.0037,-3.3,-45.3,-2.2313,,adl
7.56133,0.1595,-0.1299,-0.0772,0.001,0.0029,-0.0037,-3.3,-45.3,-2.2313,,adl
7.575055,0.1595,-0.1299,-0.0772,0.001,0.0029,-0.0037,-3.3,-45.3,-2.2313,,adl
7.58042,0.1094,-0.1252,0.0109,0.001,0.0029,-0.0037,-3.3,-45.3,-2.2313,,adl
7.585261,0.1094,-0.1252,0.0109,-0.0247,0.0018,-0.0245,-3.3,-45.3,-2.2313,,adl
7.60037,0.021,-0.1065,0.0727,-0.0247,0.0018,-0.0245,-3.3,-45.3,-2.2313,,adl
7.619816,-0.0235,-0.1134,0.0917,-0.0247,0.0018,-0.0245,-3.3,-45.3,-2.2313,,adl
7.623408,-0.0235,-0.1134,0.0917,-0.0247,0.0018,-0.0245,-3.9,-44.8875,-2.0063,,adl
7.625551,-0.0235,-0.1134,0.0917,-0.0247,0.0018,-0.0245,-3.9,-44.8875,-2.0063,,adl
7.638238,0.0046,-0.129,0.0775,-0.0247,0.0018,-0.0245,-3.9,-44.8875,-2.0063,,adl
7.646935,0.0046,-0.129,0.0775,0.0058,0.0188,0.006,-3.9,-44.8875,-2.0063,,adl
7.658524,0.0487,-0.1276,0.0399,0.0058,0.0188,0.006,-3.9,-44.8875,-2.0063,,adl
7.671162,0.0487,-0.1276,0.0399,0.0058,0.0188,0.006,-3.9,-44.8875,-2.0063,,adl
7.676456,0.0884,-0.1076,-0.0027,0.0058,0.0188,0.006,-3.9,-44.8875,-2.0063,,adl
7.679135,0.0884,-0.1076,-0.0027,0.0058,0.0188,0.006,-3.3,-45.0938,-2.3438,,adl
7.696356,0.0522,-0.1088,-0.0334,0.0058,0.0188,0.006,-3.3,-45.0938,-2.3438,,adl
7.709263,0.0522,-0.1088,-0.0334,-0.0027,-0.0129,0.0073,-3.3,-45.0938,-2.3438,,adl
7.71507,0.0359,-0.1353,-0.0717,-0.0027,-0.0129,0.0073,-3.3,-45.0938,-2.3438,,adl
7.718464,0.0359,-0.1353,-0.0717,-0.0027,-0.0129,0.0073,-3.3,-45.0938,-2.3438,,adl
7.733796,0.1325,-0.1223,-0.0526,-0.0027,-0.0129,0.0073,-3.3,-45.0938,-2.3438,,adl
7.739427,0.1325,-0.1223,-0.0526,-0.0027,-0.0129,0.0073,-3.225,-44.9062,-2.3438,,adl
7.753108,0.2132,-0.1108,-0.0168,-0.0027,-0.0129,0.0073,-3.225,-44.9062,-2.3438,,adl
7.767932,0.2132,-0.1108,-0.0168,-0.0027,-0.0129,0.0073,-3.225,-44.9062,-2.3438,,adl
7.77035,0.2132,-0.1108,-0.0168,-0.0173,0.0016,0.0036,-3.225,-44.9062,-2.3438,,adl
7.771495,0.2018,-0.1342,0.0187,-0.0173,0.0016,0.0036,-3.225,-44.9062,-2.3438,,adl
7.791396,0.1959,-0.1547,0.0277,-0.0173,0.0016,0.0036,-3.225,-44.9062,-2.3438,,adl
7.799154,0.1959,-0.1547,0.0277,-0.0173,0.0016,0.0036,-3.225,-44.6063,-2.2313,,adl
7.8111,0.1139,-0.1476,0.0322,-0.0173,0.0016,0.0036,-3.225,-44.6063,-2.2313,,adl
7.815208,0.1139,-0.1476,0.0322,-0.0173,0.0016,0.0036,-3.225,-44.6063,-2.2313,,adl
7.830478,0.0851,-0.129,0.0372,-0.0173,0.0016,0.0036,-3.225,-44.6063,-2.2313,,adl
7.83322,0.0851,-0.129,0.0372,-0.0052,0.0176,-0.0062,-3.225,-44.6063,-2.2313,,adl
7.848793,0.0146,-0.1497,-0.0319,-0.0052,0.0176,-0.0062,-3.225,-44.6063,-2.2313,,adl
7.858419,0.0146,-0.1497,-0.0319,-0.0052,0.0176,-0.0062,-3.3188,-44.7938,-2.2313,,adl
7.862938,0.0146,-0.1497,-0.0319,-0.0052,0.0176,-0.0062,-3.3188,-44.7938,-2.2313,,adl
7.86707,0.0532,-0.1433,-0.0245,-0.0052,0.0176,-0.0062,-3.3188,-44.7938,-2.2313,,adl
7.887626,0.0908,-0.1222,0.0012,-0.0052,0.0176,-0.0062,-3.3188,-44.7938,-2.2313,,adl
7.896456,0.0908,-0.1222,0.0012,-0.0186,-0.0019,0.0073,-3.3188,-44.7938,-2.2313,,adl
7.907544,0.1115,-0.136,0.0671,-0.0186,-0.0019,0.0073,-3.3188,-44.7938,-2.2313,,adl
7.910477,0.1115,-0.136,0.0671,-0.0186,-0.0019,0.0073,-3.3188,-44.7938,-2.2313,,adl
7.919349,0.1115,-0.136,0.0671,-0.0186,-0.0019,0.0073,-3.3,-45.2812,-2.4375,,adl
7.925347,0.174,-0.1087,0.0949,-0.0186,-0.0019,0.0073,-3.3,-45.2812,-2.4375,,adl
7.943317,0.1796,-0.1338,0.0441,-0.0186,-0.0019,0.0073,-3.3,-45.2812,-2.4375,,adl
7.957473,0.1796,-0.1338,0.0441,-0.0186,-0.0019,0.0073,-3.3,-45.2812,-2.4375,,adl
7.959074,0.1796,-0.1338,0.0441,0.0095,0.0139,-0.0049,-3.3,-45.2812,-2.4375,,adl
7.962914,0.1519,-0.0978,0.0033,0.0095,0.0139,-0.0049,-3.3,-45.2812,-2.4375,,adl
7.978451,0.1519,-0.0978,0.0033,0.0095,0.0139,-0.0049,-3.5813,-45.2812,-2.4375,,adl
7.982918,0.0461,-0.1191,-0.0471,0.0095,0.0139,-0.0049,-3.5813,-45.2812,-2.4375,,adl
8.001907,-0.022,-0.1224,-0.0881,0.0095,0.0139,-0.0049,-3.5813,-45.2812,-2.4375,,adl
8.005867,-0.022,-0.1224,-0.0881,0.0095,0.0139,-0.0049,-3.5813,-45.2812,-2.4375,,adl
8.019821,-0.022,-0.1224,-0.0881,-0.0162,-0.0056,0.006,-3.5813,-45.2812,-2.4375,,adl
8.022869,-0.0065,-0.1168,-0.103,-0.0162,-0.0056,0.006,-3.5813,-45.2812,-2.4375,,adl
8.038924,-0.0065,-0.1168,-0.103,-0.0162,-0.0056,0.006,-2.8125,-45.3,-2.3625,,adl
8.043148,0.0942,-0.1348,-0.061,-0.0162,-0.0056,0.006,-2.8125,-45.3,-2.3625,,adl
8.053671,0.0942,-0.1348,-0.061,-0.0162,-0.0056,0.006,-2.8125,-45.3,-2.3625,,adl
8.058506,0.1405,-0.1319,-0.0242,-0.0162,-0.0056,0.006,-2.8125,-45.3,-2.3625,,adl
8.0775,0.1824,-0.1434,0.0646,-0.0162,-0.0056,0.006,-2.8125,-45.3,-2.3625,,adl
8.082053,0.1824,-0.1434,0.0646,-0.0381,-0.0276,-0.0012,-2.8125,-45.3,-2.3625,,adl
8.097159,0.1571,-0.1068,0.1276,-0.0381,-0.0276,-0.0012,-2.8125,-45.3,-2.3625,,adl
8.09943,0.1571,-0.1068,0.1276,-0.0381,-0.0276,-0.0012,-3.3188,-44.7938,-2.4375,,adl
8.100168,0.1571,-0.1068,0.1276,-0.0381,-0.0276,-0.0012,-3.3188,-44.7938,-2.4375,,adl
8.117245,0.1409,-0.094,0.1488,-0.0381,-0.0276,-0.0012,-3.3188,-44.7938,-2.4375,,adl
8.136482,0.1079,-0.1017,0.0315,-0.0381,-0.0276,-0.0012,-3.3188,-44.7938,-2.4375,,adl
8.144455,0.1079,-0.1017,0.0315,0.0132,0.0078,-0.0197,-3.3188,-44.7938,-2.4375,,adl
8.14991,0.1079,-0.1017,0.0315,0.0132,0.0078,-0.0197,-3.3188,-44.7938,-2.4375,,adl
8.154963,0.0357,-0.138,0.0268,0.0132,0.0078,-0.0197,-3.3188,-44.7938,-2.4375,,adl
8.160279,0.0357,-0.138,0.0268,0.0132,0.0078,-0.0197,-3.0,-45.1875,-2.55,,adl
8.174526,-0.0739,-0.0841,-0.0017,0.0132,0.0078,-0.0197,-3.0,-45.1875,-2.55,,adl
8.192904,-0.0814,-0.1013,-0.0783,0.0132,0.0078,-0.0197,-3.0,-45.1875,-2.55,,adl
8.19703,-0.0814,-0.1013,-0.0783,0.0132,0.0078,-0.0197,-3.0,-45.1875,-2.55,,adl
8.207309,-0.0814,-0.1013,-0.0783,-0.0027,-0.0081,0.0098,-3.0,-45.1875,-2.55,,adl
8.212564,-0.0543,-0.0966,-0.0425,-0.0027,-0.0081,0.0098,-3.0,-45.1875,-2.55,,adl
8.218576,-0.0543,-0.0966,-0.0425,-0.0027,-0.0081,0.0098,-3.225,-44.7,-2.2313,,adl
8.231537,0.0951,-0.1011,0.0026,-0.0027,-0.0081,0.0098,-3.225,-44.7,-2.2313,,adl
8.247322,0.0951,-0.1011,0.0026,-0.0027,-0.0081,0.0098,-3.225,-44.7,-2.2313,,adl
8.250965,0.1695,-0.0731,0.0263,-0.0027,-0.0081,0.0098,-3.225,-44.7,-2.2313,,adl
8.268514,0.1695,-0.0731,0.0263,0.0045,0.0139,0.0011,-3.225,-44.7,-2.2313,,adl
8.269902,0.1782,-0.0812,0.0309,0.0045,0.0139,0.0011,-3.225,-44.7,-2.2313,,adl
8.27917,0.1782,-0.0812,0.0309,0.0045,0.0139,0.0011,-3.0,-45.075,-2.8688,,adl
8.291677,0.0364,-0.0711,0.0072,0.0045,0.0139,0.0011,-3.0,-45.075,-2.8688,,adl
8.295305,0.0364,-0.0711,0.0072,0.0045,0.0139,0.0011,-3.0,-45.075,-2.8688,,adl
8.307864,-0.0449,-0.0753,0.0003,0.0045,0.0139,0.0011,-3.0,-45.075,-2.8688,,adl
8.327032,-0.0573,-0.0958,0.0196,0.0045,0.0139,0.0011,-3.0,-45.075,-2.8688,,adl
8.33116,-0.0573,-0.0958,0.0196,0.007,0.0016,0.0146,-3.0,-45.075,-2.8688,,adl
8.339145,-0.0573,-0.0958,0.0196,0.007,0.0016,0.0146,-3.6188,-44.6625,-2.7375,,adl
8.342323,-0.0573,-0.0958,0.0196,0.007,0.0016,0.0146,-3.6188,-44.6625,-2.7375,,adl
8.346601,0.0199,-0.0791,-0.0806,0.007,0.0016,0.0146,-3.6188,-44.6625,-2.7375,,adl
8.365461,-0.045,0.0297,0.0114,0.007,0.0016,0.0146,-3.6188,-44.6625,-2.7375,,adl
8.384473,-0.0912,0.0537,0.0599,0.007,0.0016,0.0146,-3.6188,-44.6625,-2.7375,,adl
8.387968,-0.0912,0.0537,0.0599,0.007,0.0016,0.0146,-3.6188,-44.6625,-2.7375,,adl
8.391979,-0.0912,0.0537,0.0599,0.0107,-0.0582,0.0048,-3.6188,-44.6625,-2.7375,,adl
8.39969,-0.0912,0.0537,0.0599,0.0107,-0.0582,0.0048,-3.2813,-45.4688,-2.6625,,adl
8.402923,-0.0342,-0.167,0.0808,0.0107,-0.0582,0.0048,-3.2813,-45.4688,-2.6625,,adl
8.422504,0.0387,-0.3941,0.0264,0.0107,-0.0582,0.0048,-3.2813,-45.4688,-2.6625,,adl
8.436559,0.0387,-0.3941,0.0264,0.0107,-0.0582,0.0048,-3.2813,-45.4688,-2.6625,,adl
8.441184,0.2499,-0.3645,-0.0829,0.0107,-0.0582,0.0048,-3.2813,-45.4688,-2.6625,,adl
8.454983,0.2499,-0.3645,-0.0829,0.007,0.0249,0.0463,-3.2813,-45.4688,-2.6625,,adl
8.45835,0.2499,-0.3645,-0.0829,0.007,0.0249,0.0463,-3.4125,-44.8125,-2.1188,,adl
8.460036,0.464,-0.2485,0.0216,0.007,0.0249,0.0463,-3.4125,-44.8125,-2.1188,,adl
8.480271,0.4473,-0.1176,0.0646,0.007,0.0249,0.0463,-3.4125,-44.8125,-2.1188,,adl
8.484014,0.4473,-0.1176,0.0646,0.007,0.0249,0.0463,-3.4125,-44.8125,-2.1188,,adl
8.499492,0.2305,0.0166,-0.1024,0.007,0.0249,0.0463,-3.4125,-44.8125,-2.1188,,adl
8.517508,0.2305,0.0166,-0.1024,0.0058,0.0323,-0.06,-3.4125,-44.8125,-2.1188,,adl
8.521119,-0.0264,0.0762,-0.2234,0.0058,0.0323,-0.06,-3.4125,-44.8125,-2.1188,,adl
8.523916,-0.0264,0.0762,-0.2234,0.0058,0.0323,-0.06,-3.3188,-45.0,-2.2313,,adl
8.530889,-0.0264,0.0762,-0.2234,0.0058,0.0323,-0.06,-3.3188,-45.0,-2.2313,,adl
8.536607,-0.1685,-0.0158,-0.2751,0.0058,0.0323,-0.06,-3.3188,-45.0,-2.2313,,adl
8.556527,-0.1753,-0.0795,-0.2175,0.0058,0.0323,-0.06,-3.3188,-45.0,-2.2313,,adl
8.575385,-0.2381,-0.1328,-0.0462,0.0058,0.0323,-0.06,-3.3188,-45.0,-2.2313,,adl
8.579426,-0.2381,-0.1328,-0.0462,0.0058,0.0323,-0.06,-3.3188,-45.0,-2.2313,,adl
8.580954,-0.2381,-0.1328,-0.0462,-0.0688,-0.0117,-0.022,-3.3188,-45.0,-2.2313,,adl
8.58319,-0.2381,-0.1328,-0.0462,-0.0688,-0.0117,-0.022,-3.0188,-44.7938,-2.4563,,adl
8.595313,-0.1914,-0.1901,0.0808,-0.0688,-0.0117,-0.022,-3.0188,-44.7938,-2.4563,,adl
8.613773,-0.0738,-0.1171,0.2105,-0.0688,-0.0117,-0.022,-3.0188,-44.7938,-2.4563,,adl
8.627499,-0.0738,-0.1171,0.2105,-0.0688,-0.0117,-0.022,-3.0188,-44.7938,-2.4563,,adl
8.632663,0.0779,-0.0489,0.3605,-0.0688,-0.0117,-0.022,-3.0188,-44.7938,-2.4563,,adl
8.639383,0.0779,-0.0489,0.3605,-0.0688,-0.0117,-0.022,-3.0188,-44.9813,-2.55,,adl
8.640297,0.0779,-0.0489,0.3605,0.0082,0.0346,0.0268,-3.0188,-44.9813,-2.55,,adl
8.652047,0.0988,-0.0592,0.2366,0.0082,0.0346,0.0268,-3.0188,-44.9813,-2.55,,adl
8.67101,-0.0293,-0.0701,0.0869,0.0082,0.0346,0.0268,-3.0188,-44.9813,-2.55,,adl
8.675155,-0.0293,-0.0701,0.0869,0.0082,0.0346,0.0268,-3.0188,-44.9813,-2.55,,adl
8.691636,-0.1213,-0.1644,-0.0417,0.0082,0.0346,0.0268,-3.0188,-44.9813,-2.55,,adl
8.7036,-0.1213,-0.1644,-0.0417,0.0082,0.0346,0.0268,-3.0375,-44.4,-2.3438,,adl
8.707229,-0.1213,-0.1644,-0.0417,0.0388,-0.0324,0.0133,-3.0375,-44.4,-2.3438,,adl
8.709279,-0.11,-0.1925,-0.1657,0.0388,-0.0324,0.0133,-3.0375,-44.4,-2.3438,,adl
8.723215,-0.11,-0.1925,-0.1657,0.0388,-0.0324,0.0133,-3.0375,-44.4,-2.3438,,adl
8.728353,0.1571,-0.2148,-0.2349,0.0388,-0.0324,0.0133,-3.0375,-44.4,-2.3438,,adl
8.747057,0.4413,-0.1747,-0.1876,0.0388,-0.0324,0.0133,-3.0375,-44.4,-2.3438,,adl
8.758863,0.4413,-0.1747,-0.1876,0.0388,-0.0324,0.0133,-3.4125,-45.0,-2.025,,adl
8.765951,0.4413,-0.1747,-0.1876,-0.0308,0.0554,-0.0184,-3.4125,-45.0,-2.025,,adl
8.767031,0.5397,-0.1215,-0.0855,-0.0308,0.0554,-0.0184,-3.4125,-45.0,-2.025,,adl
8.770259,0.5397,-0.1215,-0.0855,-0.0308,0.0554,-0.0184,-3.4125,-45.0,-2.025,,adl
8.786248,0.307,-0.0232,0.0073,-0.0308,0.0554,-0.0184,-3.4125,-45.0,-2.025,,adl
8.806229,-0.0295,0.0073,-0.0642,-0.0308,0.0554,-0.0184,-3.4125,-45.0,-2.025,,adl
8.818361,-0.0295,0.0073,-0.0642,-0.0308,0.0554,-0.0184,-3.4125,-45.0,-2.025,,adl
8.82111,-0.0295,0.0073,-0.0642,-0.0308,0.0554,-0.0184,-3.1125,-44.8875,-2.55,,adl
8.826106,-0.3456,-0.005,-0.1734,-0.0308,0.0554,-0.0184,-3.1125,-44.8875,-2.55,,adl
8.828015,-0.3456,-0.005,-0.1734,-0.032,0.0469,-0.066,-3.1125,-44.8875,-2.55,,adl
8.843718,-0.4203,-0.1011,-0.0677,-0.032,0.0469,-0.066,-3.1125,-44.8875,-2.55,,adl
8.862248,-0.3243,-0.1554,0.092,-0.032,0.0469,-0.066,-3.1125,-44.8875,-2.55,,adl
8.866484,-0.3243,-0.1554,0.092,-0.032,0.0469,-0.066,-3.1125,-44.8875,-2.55,,adl
8.879066,-0.3243,-0.1554,0.092,-0.032,0.0469,-0.066,-3.3188,-44.7938,-2.4375,,adl
8.881881,-0.1664,-0.2011,0.0835,-0.032,0.0469,-0.066,-3.3188,-44.7938,-2.4375,,adl
8.891252,-0.1664,-0.2011,0.0835,-0.032,-0.0154,0.0243,-3.3188,-44.7938,-2.4375,,adl
8.90044,-0.0408,-0.1086,0.1158,-0.032,-0.0154,0.0243,-3.3188,-44.7938,-2.4375,,adl
8.914318,-0.0408,-0.1086,0.1158,-0.032,-0.0154,0.0243,-3.3188,-44.7938,-2.4375,,adl
8.92161,0.1159,-0.1046,0.1914,-0.032,-0.0154,0.0243,-3.3188,-44.7938,-2.4375,,adl
8.938505,0.189,-0.0742,0.1647,-0.032,-0.0154,0.0243,-3.3188,-44.7938,-2.4375,,adl
8.940243,0.189,-0.0742,0.1647,-0.032,-0.0154,0.0243,-2.925,-45.1125,-2.25,,adl
8.952483,0.189,-0.0742,0.1647,0.029,0.0066,-0.0062,-2.925,-45.1125,-2.25,,adl
8.958845,0.1424,-0.0607,0.0454,0.029,0.0066,-0.0062,-2.925,-45.1125,-2.25,,adl
8.961452,0.1424,-0.0607,0.0454,0.029,0.0066,-0.0062,-2.925,-45.1125,-2.25,,adl
8.977206,0.0317,-0.0581,-0.1021,0.029,0.0066,-0.0062,-2.925,-45.1125,-2.25,,adl
8.99611,-0.0597,-0.048,-0.1678,0.029,0.0066,-0.0062,-2.925,-45.1125,-2.25,,adl
8.999684,-0.0597,-0.048,-0.1678,0.029,0.0066,-0.0062,-2.8313,-45.0,-2.3438,,adl
9.009696,-0.0597,-0.048,-0.1678,0.029,0.0066,-0.0062,-2.8313,-45.0,-2.3438,,adl
9.014877,-0.0597,-0.048,-0.1678,0.0034,0.0115,-0.0159,-2.8313,-45.0,-2.3438,,adl
9.015805,-0.1149,-0.1016,-0.2436,0.0034,0.0115,-0.0159,-2.8313,-45.0,-2.3438,,adl
9.034455,-0.1272,-0.1248,-0.2223,0.0034,0.0115,-0.0159,-2.8313,-45.0,-2.3438,,adl
9.054358,-0.0999,-0.1939,-0.0131,0.0034,0.0115,-0.0159,-2.8313,-45.0,-2.3438,,adl
9.057753,-0.0999,-0.1939,-0.0131,0.0034,0.0115,-0.0159,-2.8313,-45.0,-2.3438,,adl
9.059878,-0.0999,-0.1939,-0.0131,0.0034,0.0115,-0.0159,-3.4125,-44.6813,-2.4375,,adl
9.072989,0.0341,-0.1942,0.1453,0.0034,0.0115,-0.0159,-3.4125,-44.6813,-2.4375,,adl
9.075909,0.0341,-0.1942,0.1453,-0.0418,-0.0019,0.0133,-3.4125,-44.6813,-2.4375,,adl
9.093047,0.166,-0.1343,0.1321,-0.0418,-0.0019,0.0133,-3.4125,-44.6813,-2.4375,,adl
9.105512,0.166,-0.1343,0.1321,-0.0418,-0.0019,0.0133,-3.4125,-44.6813,-2.4375,,adl
9.11105,0.1877,-0.0572,0.1441,-0.0418,-0.0019,0.0133,-3.4125,-44.6813,-2.4375,,adl
9.1188,0.1877,-0.0572,0.1441,-0.0418,-0.0019,0.0133,-3.225,-44.6813,-2.55,,adl
9.129891,0.1026,-0.0656,0.1379,-0.0418,-0.0019,0.0133,-3.225,-44.6813,-2.55,,adl
9.138925,0.1026,-0.0656,0.1379,0.0205,0.0653,-0.0342,-3.225,-44.6813,-2.55,,adl
9.149878,-0.1222,-0.0343,-0.0806,0.0205,0.0653,-0.0342,-3.225,-44.6813,-2.55,,adl
9.153116,-0.1222,-0.0343,-0.0806,0.0205,0.0653,-0.0342,-3.225,-44.6813,-2.55,,adl
9.168466,-0.2744,-0.1035,-0.1822,0.0205,0.0653,-0.0342,-3.225,-44.6813,-2.55,,adl
9.178799,-0.2744,-0.1035,-0.1822,0.0205,0.0653,-0.0342,-3.0188,-44.8875,-2.6625,,adl
9.187636,-0.2848,-0.1417,-0.1461,0.0205,0.0653,-0.0342,-3.0188,-44.8875,-2.6625,,adl
9.20143,-0.2848,-0.1417,-0.1461,0.0205,0.0653,-0.0342,-3.0188,-44.8875,-2.6625,,adl
9.202896,-0.2848,-0.1417,-0.1461,-0.0308,-0.0191,0.0146,-3.0188,-44.8875,-2.6625,,adl
9.206847,-0.185,-0.1409,-0.1206,-0.0308,-0.0191,0.0146,-3.0188,-44.8875,-2.6625,,adl
9.22578,-0.0405,-0.0948,0.0097,-0.0308,-0.0191,0.0146,-3.0188,-44.8875,-2.6625,,adl
9.238984,-0.0405,-0.0948,0.0097,-0.0308,-0.0191,0.0146,-3.3,-45.075,-2.7563,,adl
9.247526,0.0942,-0.0901,0.1638,-0.0308,-0.0191,0.0146,-3.3,-45.075,-2.7563,,adl
9.251193,0.0942,-0.0901,0.1638,-0.0308,-0.0191,0.0146,-3.3,-45.075,-2.7563,,adl
9.263871,0.0942,-0.0901,0.1638,-0.0027,-0.0044,0.0085,-3.3,-45.075,-2.7563,,adl
9.267505,0.1191,-0.0618,0.1797,-0.0027,-0.0044,0.0085,-3.3,-45.075,-2.7563,,adl
9.283036,0.074,-0.0594,0.1174,-0.0027,-0.0044,0.0085,-3.3,-45.075,-2.7563,,adl
9.296285,0.074,-0.0594,0.1174,-0.0027,-0.0044,0.0085,-3.3,-45.075,-2.7563,,adl
9.298787,0.074,-0.0594,0.1174,-0.0027,-0.0044,0.0085,-2.8313,-44.775,-3.075,,adl
9.302214,-0.0028,-0.0954,0.0006,-0.0027,-0.0044,0.0085,-2.8313,-44.775,-3.075,,adl
9.321936,-0.09,-0.1152,-0.1183,-0.0027,-0.0044,0.0085,-2.8313,-44.775,-3.075,,adl
9.325236,-0.09,-0.1152,-0.1183,0.0205,0.0115,-0.0111,-2.8313,-44.775,-3.075,,adl
9.34059,-0.1441,-0.1252,-0.1799,0.0205,0.0115,-0.0111,-2.8313,-44.775,-3.075,,adl
9.34445,-0.1441,-0.1252,-0.1799,0.0205,0.0115,-0.0111,-2.8313,-44.775,-3.075,,adl
9.359823,-0.1072,-0.128,-0.1441,0.0205,0.0115,-0.0111,-2.8313,-44.775,-3.075,,adl
9.363503,-0.1072,-0.128,-0.1441,0.0205,0.0115,-0.0111,-2.925,-44.8688,-3.075,,adl
9.3788,-0.0563,-0.1039,-0.0707,0.0205,0.0115,-0.0111,-2.925,-44.8688,-3.075,,adl
9.387461,-0.0563,-0.1039,-0.0707,-0.0358,-0.0104,0.0121,-2.925,-44.8688,-3.075,,adl
9.392931,-0.0563,-0.1039,-0.0707,-0.0358,-0.0104,0.0121,-2.925,-44.8688,-3.075,,adl
9.397115,0.0245,-0.093,-0.0263,-0.0358,-0.0104,0.0121,-2.925,-44.8688,-3.075,,adl
9.416256,0.0678,-0.087,0.1283,-0.0358,-0.0104,0.0121,-2.925,-44.8688,-3.075,,adl
9.417961,0.0678,-0.087,0.1283,-0.0358,-0.0104,0.0121,-2.925,-44.8875,-2.55,,adl
9.436493,0.0401,-0.096,0.1589,-0.0358,-0.0104,0.0121,-2.925,-44.8875,-2.55,,adl
9.440479,0.0401,-0.096,0.1589,-0.0358,-0.0104,0.0121,-2.925,-44.8875,-2.55,,adl
9.44895,0.0401,-0.096,0.1589,0.0082,0.0054,-0.0135,-2.925,-44.8875,-2.55,,adl
9.455086,-0.0607,-0.1111,0.1111,0.0082,0.0054,-0.0135,-2.925,-44.8875,-2.55,,adl
9.474112,-0.0859,-0.1425,0.0182,0.0082,0.0054,-0.0135,-2.925,-44.8875,-2.55,,adl
9.480189,-0.0859,-0.1425,0.0182,0.0082,0.0054,-0.0135,-2.625,-44.9625,-3.3938,,adl
9.487832,-0.0859,-0.1425,0.0182,0.0082,0.0054,-0.0135,-2.625,-44.9625,-3.3938,,adl
9.494166,-0.1386,-0.1668,-0.0603,0.0082,0.0054,-0.0135,-2.625,-44.9625,-3.3938,,adl
9.512202,-0.1386,-0.1668,-0.0603,0.0058,-0.0056,0.0073,-2.625,-44.9625,-3.3938,,adl
9.515243,-0.1238,-0.175,-0.108,0.0058,-0.0056,0.0073,-2.625,-44.9625,-3.3938,,adl
9.532162,-0.0546,-0.0935,-0.0795,0.0058,-0.0056,0.0073,-2.625,-44.9625,-3.3938,,adl
9.53559,-0.0546,-0.0935,-0.0795,0.0058,-0.0056,0.0073,-2.625,-44.9625,-3.3938,,adl
9.538474,-0.0546,-0.0935,-0.0795,0.0058,-0.0056,0.0073,-2.8125,-44.8688,-3.1875,,adl
9.550039,0.011,-0.0101,0.0136,0.0058,-0.0056,0.0073,-2.8125,-44.8688,-3.1875,,adl
9.569255,0.0005,-0.0358,0.0232,0.0058,-0.0056,0.0073,-2.8125,-44.8688,-3.1875,,adl
9.573606,0.0005,-0.0358,0.0232,0.0082,-0.0069,0.0023,-2.8125,-44.8688,-3.1875,,adl
9.58437,0.0005,-0.0358,0.0232,0.0082,-0.0069,0.0023,-2.8125,-44.8688,-3.1875,,adl
9.589051,-0.0705,-0.0911,-0.0055,0.0082,-0.0069,0.0023,-2.8125,-44.8688,-3.1875,,adl
9.599339,-0.0705,-0.0911,-0.0055,0.0082,-0.0069,0.0023,-3.225,-44.7563,-2.9625,,adl
9.60842,-0.0998,-0.1494,-0.018,0.0082,-0.0069,0.0023,-3.225,-44.7563,-2.9625,,adl
9.627523,-0.1343,-0.1447,-0.0185,0.0082,-0.0069,0.0023,-3.225,-44.7563,-2.9625,,adl
9.631355,-0.1343,-0.1447,-0.0185,0.0082,-0.0069,0.0023,-3.225,-44.7563,-2.9625,,adl
9.636611,-0.1343,-0.1447,-0.0185,0.0022,-0.0104,0.017,-3.225,-44.7563,-2.9625,,adl
9.647341,-0.0263,-0.1472,0.0077,0.0022,-0.0104,0.017,-3.225,-44.7563,-2.9625,,adl
9.659332,-0.0263,-0.1472,0.0077,0.0022,-0.0104,0.017,-3.0188,-44.6813,-2.8688,,adl
9.666104,0.1074,-0.1158,0.0242,0.0022,-0.0104,0.017,-3.0188,-44.6813,-2.8688,,adl
9.679591,0.1074,-0.1158,0.0242,0.0022,-0.0104,0.017,-3.0188,-44.6813,-2.8688,,adl
9.684321,0.1669,-0.1049,-0.019,0.0022,-0.0104,0.017,-3.0188,-44.6813,-2.8688,,adl
9.698075,0.1669,-0.1049,-0.019,0.0034,0.0213,-0.0159,-3.0188,-44.6813,-2.8688,,adl
9.703764,0.0477,-0.0889,-0.0859,0.0034,0.0213,-0.0159,-3.0188,-44.6813,-2.8688,,adl
9.719068,0.0477,-0.0889,-0.0859,0.0034,0.0213,-0.0159,-3.6938,-44.8313,-3.15,,adl
9.723086,-0.0658,-0.0876,-0.1167,0.0034,0.0213,-0.0159,-3.6938,-44.8313,-3.15,,adl
9.727503,-0.0658,-0.0876,-0.1167,0.0034,0.0213,-0.0159,-3.6938,-44.8313,-3.15,,adl
9.742306,-0.1588,-0.091,-0.1499,0.0034,0.0213,-0.0159,-3.6938,-44.8313,-3.15,,adl
9.75972,-0.1588,-0.091,-0.1499,-0.0345,0.0249,-0.0099,-3.6938,-44.8313,-3.15,,adl
9.761047,-0.1827,-0.0863,-0.0759,-0.0345,0.0249,-0.0099,-3.6938,-44.8313,-3.15,,adl
9.775224,-0.1827,-0.0863,-0.0759,-0.0345,0.0249,-0.0099,-3.6938,-44.8313,-3.15,,adl
9.77968,-0.1827,-0.0863,-0.0759,-0.0345,0.0249,-0.0099,-2.8313,-44.6063,-2.55,,adl
9.78097,-0.163,-0.1346,0.0433,-0.0345,0.0249,-0.0099,-2.8313,-44.6063,-2.55,,adl
9.799937,-0.0932,-0.1269,0.136,-0.0345,0.0249,-0.0099,-2.8313,-44.6063,-2.55,,adl
9.819095,-0.0344,-0.1105,0.1236,-0.0345,0.0249,-0.0099,-2.8313,-44.6063,-2.55,,adl
9.822951,-0.0344,-0.1105,0.1236,-0.0345,0.0249,-0.0099,-2.8313,-44.6063,-2.55,,adl
9.824818,-0.0344,-0.1105,0.1236,-0.0015,-0.0056,0.0146,-2.8313,-44.6063,-2.55,,adl
9.837537,-0.0197,-0.1134,0.1088,-0.0015,-0.0056,0.0146,-2.8313,-44.6063,-2.55,,adl
9.839184,-0.0197,-0.1134,0.1088,-0.0015,-0.0056,0.0146,-3.3938,-45.075,-2.7563,,adl
9.856784,-0.0146,-0.1301,0.0246,-0.0015,-0.0056,0.0146,-3.3938,-45.075,-2.7563,,adl
9.87137,-0.0146,-0.1301,0.0246,-0.0015,-0.0056,0.0146,-3.3938,-45.075,-2.7563,,adl
9.87536,-0.0366,-0.0931,-0.0427,-0.0015,-0.0056,0.0146,-3.3938,-45.075,-2.7563,,adl
9.884696,-0.0366,-0.0931,-0.0427,0.0217,-0.0069,0.0073,-3.3938,-45.075,-2.7563,,adl
9.896276,-0.0178,-0.0595,-0.064,0.0217,-0.0069,0.0073,-3.3938,-45.075,-2.7563,,adl
9.901098,-0.0178,-0.0595,-0.064,0.0217,-0.0069,0.0073,-3.3188,-44.8688,-2.85,,adl
9.913901,0.027,-0.0683,-0.1019,0.0217,-0.0069,0.0073,-3.3188,-44.8688,-2.85,,adl
9.918476,0.027,-0.0683,-0.1019,0.0217,-0.0069,0.0073,-3.3188,-44.8688,-2.85,,adl
9.934229,0.051,-0.0941,-0.1331,0.0217,-0.0069,0.0073,-3.3188,-44.8688,-2.85,,adl
9.947196,0.051,-0.0941,-0.1331,-0.0088,-0.0081,-0.0111,-3.3188,-44.8688,-2.85,,adl
9.952506,0.0023,-0.0792,-0.1144,-0.0088,-0.0081,-0.0111,-3.3188,-44.8688,-2.85,,adl
9.959212,0.0023,-0.0792,-0.1144,-0.0088,-0.0081,-0.0111,-3.0188,-44.8688,-2.9625,,adl
9.966125,0.0023,-0.0792,-0.1144,-0.0088,-0.0081,-0.0111,-3.0188,-44.8688,-2.9625,,adl
9.971783,-0.0482,-0.0973,-0.0386,-0.0088,-0.0081,-0.0111,-3.0188,-44.8688,-2.9625,,adl
9.990338,-0.0399,-0.0909,-0.0058,-0.0088,-0.0081,-0.0111,-3.0188,-44.8688,-2.9625,,adl
10.008992,-0.0399,-0.0909,-0.0058,-0.0173,0.0115,-0.0014,-3.0188,-44.8688,-2.9625,,adl
10.012163,-0.025,-0.0662,0.0631,-0.0173,0.0115,-0.0014,-3.0188,-44.8688,-2.9625,,adl
10.014357,-0.025,-0.0662,0.0631,-0.0173,0.0115,-0.0014,-3.0188,-44.8688,-2.9625,,adl
10.019418,-0.025,-0.0662,0.0631,-0.0173,0.0115,-0.0014,-2.8125,-44.8688,-2.9813,,adl
10.028665,-0.0446,-0.0694,0.0651,-0.0173,0.0115,-0.0014,-2.8125,-44.8688,-2.9813,,adl
10.048589,-0.0415,-0.0937,0.0412,-0.0173,0.0115,-0.0014,-2.8125,-44.8688,-2.9813,,adl
10.061318,-0.0415,-0.0937,0.0412,-0.0173,0.0115,-0.0014,-2.8125,-44.8688,-2.9813,,adl
10.067491,-0.0721,-0.0757,0.0341,-0.0173,0.0115,-0.0014,-2.8125,-44.8688,-2.9813,,adl
10.071275,-0.0721,-0.0757,0.0341,0.0058,0.0054,-0.0025,-2.8125,-44.8688,-2.9813,,adl
10.080326,-0.0721,-0.0757,0.0341,0.0058,0.0054,-0.0025,-2.8125,-45.1875,-2.775,,adl
10.085934,-0.0644,-0.0873,-0.0136,0.0058,0.0054,-0.0025,-2.8125,-45.1875,-2.775,,adl
10.105599,-0.0518,-0.0892,-0.0302,0.0058,0.0054,-0.0025,-2.8125,-45.1875,-2.775,,adl
10.109311,-0.0518,-0.0892,-0.0302,0.0058,0.0054,-0.0025,-2.8125,-45.1875,-2.775,,adl
10.12473,-0.0084,-0.0624,-0.0515,0.0058,0.0054,-0.0025,-2.8125,-45.1875,-2.775,,adl
10.133374,-0.0084,-0.0624,-0.0515,0.0022,0.0078,0.0096,-2.8125,-45.1875,-2.775,,adl
10.14025,-0.0084,-0.0624,-0.0515,0.0022,0.0078,0.0096,-3.225,-44.6625,-2.9625,,adl
10.14345,0.0141,-0.0641,-0.0635,0.0022,0.0078,0.0096,-3.225,-44.6625,-2.9625,,adl
10.157714,0.0141,-0.0641,-0.0635,0.0022,0.0078,0.0096,-3.225,-44.6625,-2.9625,,adl
10.162381,0.0255,-0.0741,-0.0614,0.0022,0.0078,0.0096,-3.225,-44.6625,-2.9625,,adl
10.181884,-0.0232,-0.0516,-0.0596,0.0022,0.0078,0.0096,-3.225,-44.6625,-2.9625,,adl
10.195989,-0.0232,-0.0516,-0.0596,-0.015,0.0016,-0.0037,-3.225,-44.6625,-2.9625,,adl
10.198277,-0.0232,-0.0516,-0.0596,-0.015,0.0016,-0.0037,-3.8063,-44.6625,-2.5312,,adl
10.201538,-0.0176,-0.0549,-0.0169,-0.015,0.0016,-0.0037,-3.8063,-44.6625,-2.5312,,adl
10.204473,-0.0176,-0.0549,-0.0169,-0.015,0.0016,-0.0037,-3.8063,-44.6625,-2.5312,,adl
10.220635,-0.0337,-0.0397,0.0308,-0.015,0.0016,-0.0037,-3.8063,-44.6625,-2.5312,,adl
10.239416,-0.0345,-0.0421,0.0666,-0.015,0.0016,-0.0037,-3.8063,-44.6625,-2.5312,,adl
10.253061,-0.0345,-0.0421,0.0666,-0.015,0.0016,-0.0037,-3.8063,-44.6625,-2.5312,,adl
10.258423,-0.0345,-0.0421,0.0666,0.0034,-0.0227,-0.0074,-3.8063,-44.6625,-2.5312,,adl
10.259677,-0.0553,-0.0766,0.0136,0.0034,-0.0227,-0.0074,-3.8063,-44.6625,-2.5312,,adl
10.260565,-0.0553,-0.0766,0.0136,0.0034,-0.0227,-0.0074,-2.9062,-44.9438,-3.3938,,adl
10.277609,-0.0667,-0.0919,-0.0203,0.0034,-0.0227,-0.0074,-2.9062,-44.9438,-3.3938,,adl
10.297893,-0.0868,-0.055,0.018,0.0034,-0.0227,-0.0074,-2.9062,-44.9438,-3.3938,,adl
10.301944,-0.0868,-0.055,0.018,0.0034,-0.0227,-0.0074,-2.9062,-44.9438,-3.3938,,adl
10.316102,0.006,-0.0312,0.0062,0.0034,-0.0227,-0.0074,-2.9062,-44.9438,-3.3938,,adl
10.319856,0.006,-0.0312,0.0062,0.0034,-0.0227,-0.0074,-3.6,-45.0375,-3.1688,,adl
10.320722,0.006,-0.0312,0.0062,0.0082,0.0066,0.0158,-3.6,-45.0375,-3.1688,,adl
10.335054,0.0187,-0.0276,-0.0271,0.0082,0.0066,0.0158,-3.6,-45.0375,-3.1688,,adl
10.34866,0.0187,-0.0276,-0.0271,0.0082,0.0066,0.0158,-3.6,-45.0375,-3.1688,,adl
10.353541,0.0083,-0.0264,-0.051,0.0082,0.0066,0.0158,-3.6,-45.0375,-3.1688,,adl
10.373445,-0.0383,-0.0651,-0.0869,0.0082,0.0066,0.0158,-3.6,-45.0375,-3.1688,,adl
10.378825,-0.0383,-0.0651,-0.0869,0.0082,0.0066,0.0158,-3.1125,-44.775,-2.6625,,adl
10.381865,-0.0383,-0.0651,-0.0869,-0.0015,-0.0154,-0.0037,-3.1125,-44.775,-2.6625,,adl
10.394907,-0.0661,-0.094,-0.0873,-0.0015,-0.0154,-0.0037,-3.1125,-44.775,-2.6625,,adl
10.396005,-0.0661,-0.094,-0.0873,-0.0015,-0.0154,-0.0037,-3.1125,-44.775,-2.6625,,adl
10.411984,-0.0512,-0.0782,-0.0521,-0.0015,-0.0154,-0.0037,-3.1125,-44.775,-2.6625,,adl
10.431074,0.0355,-0.0569,0.0262,-0.0015,-0.0154,-0.0037,-3.1125,-44.775,-2.6625,,adl
10.439595,0.0355,-0.0569,0.0262,-0.0015,-0.0154,-0.0037,-2.7188,-44.8688,-3.075,,adl
10.444465,0.0355,-0.0569,0.0262,-0.0015,-0.0154,-0.0037,-2.7188,-44.8688,-3.075,,adl
10.446987,0.0355,-0.0569,0.0262,-0.01,0.0041,0.0084,-2.7188,-44.8688,-3.075,,adl
10.452459,0.0968,-0.0488,0.0664,-0.01,0.0041,0.0084,-2.7188,-44.8688,-3.075,,adl
10.468991,0.1,-0.0264,0.0542,-0.01,0.0041,0.0084,-2.7188,-44.8688,-3.075,,adl
10.488628,-0.0025,-0.0299,0.0161,-0.01,0.0041,0.0084,-2.7188,-44.8688,-3.075,,adl
10.491754,-0.0025,-0.0299,0.0161,-0.01,0.0041,0.0084,-2.7188,-44.8688,-3.075,,adl
10.49939,-0.0025,-0.0299,0.0161,-0.01,0.0041,0.0084,-3.0188,-44.9813,-2.55,,adl
10.506061,-0.0025,-0.0299,0.0161,0.0143,-0.0044,-0.0124,-3.0188,-44.9813,-2.55,,adl
10.507536,-0.1013,-0.0222,-0.0506,0.0143,-0.0044,-0.0124,-3.0188,-44.9813,-2.55,,adl
10.526457,-0.0909,-0.0513,-0.0984,0.0143,-0.0044,-0.0124,-3.0188,-44.9813,-2.55,,adl
10.539953,-0.0909,-0.0513,-0.0984,0.0143,-0.0044,-0.0124,-3.0188,-44.9813,-2.55,,adl
10.545346,-0.0215,-0.0872,-0.058,0.0143,-0.0044,-0.0124,-3.0188,-44.9813,-2.55,,adl
10.559867,-0.0215,-0.0872,-0.058,0.0143,-0.0044,-0.0124,-2.9062,-45.075,-2.9813,,adl
10.564414,0.0195,-0.053,-0.0081,0.0143,-0.0044,-0.0124,-2.9062,-45.075,-2.9813,,adl
10.571135,0.0195,-0.053,-0.0081,-0.0088,0.0103,0.0096,-2.9062,-45.075,-2.9813,,adl
10.58373,0.0424,0.0201,0.011,-0.0088,0.0103,0.0096,-2.9062,-45.075,-2.9813,,adl
10.58785,0.0424,0.0201,0.011,-0.0088,0.0103,0.0096,-2.9062,-45.075,-2.9813,,adl
10.602534,0.0123,0.0084,-0.0009,-0.0088,0.0103,0.0096,-2.9062,-45.075,-2.9813,,adl
10.619171,0.0123,0.0084,-0.0009,-0.0088,0.0103,0.0096,-3.6938,-44.9438,-2.9438,,adl
10.622306,-0.0359,-0.0394,-0.0488,-0.0088,0.0103,0.0096,-3.6938,-44.9438,-2.9438,,adl
10.630456,-0.0359,-0.0394,-0.0488,0.001,-0.0056,-0.0074,-3.6938,-44.9438,-2.9438,,adl
10.636307,-0.0359,-0.0394,-0.0488,0.001,-0.0056,-0.0074,-3.6938,-44.9438,-2.9438,,adl
10.641014,-0.0565,-0.0576,-0.0488,0.001,-0.0056,-0.0074,-3.6938,-44.9438,-2.9438,,adl
10.660236,0.0003,-0.0911,0.0061,0.001,-0.0056,-0.0074,-3.6938,-44.9438,-2.9438,,adl
10.679622,-0.0062,-0.0604,0.0155,0.001,-0.0056,-0.0074,-3.6938,-44.9438,-2.9438,,adl
10.682862,-0.0062,-0.0604,0.0155,0.001,-0.0056,-0.0074,-3.6938,-44.85,-2.85,,adl
10.68481,-0.0062,-0.0604,0.0155,0.001,-0.0056,-0.0074,-3.6938,-44.85,-2.85,,adl
10.693325,-0.0062,-0.0604,0.0155,-0.0015,-0.0056,0.0011,-3.6938,-44.85,-2.85,,adl
10.699662,-0.0019,-0.0423,-0.0063,-0.0015,-0.0056,0.0011,-3.6938,-44.85,-2.85,,adl
10.717379,-0.0236,-0.0316,-0.0424,-0.0015,-0.0056,0.0011,-3.6938,-44.85,-2.85,,adl
10.731137,-0.0236,-0.0316,-0.0424,-0.0015,-0.0056,0.0011,-3.6938,-44.85,-2.85,,adl
10.737328,0.053,-0.0402,-0.0521,-0.0015,-0.0056,0.0011,-3.6938,-44.85,-2.85,,adl
10.739637,0.053,-0.0402,-0.0521,-0.0015,-0.0056,0.0011,-2.7188,-45.075,-2.8688,,adl
10.755106,0.053,-0.0402,-0.0521,-0.004,0.0091,-0.0025,-2.7188,-45.075,-2.8688,,adl
10.757917,0.0613,-0.0505,-0.0522,-0.004,0.0091,-0.0025,-2.7188,-45.075,-2.8688,,adl
10.775504,0.0164,-0.0144,-0.0118,-0.004,0.0091,-0.0025,-2.7188,-45.075,-2.8688,,adl
10.778946,0.0164,-0.0144,-0.0118,-0.004,0.0091,-0.0025,-2.7188,-45.075,-2.8688,,adl
10.79454,-0.0291,-0.0549,0.019,-0.004,0.0091,-0.0025,-2.7188,-45.075,-2.8688,,adl
10.799146,-0.0291,-0.0549,0.019,-0.004,0.0091,-0.0025,-2.4375,-45.1313,-2.0625,,adl
10.813558,-0.0498,-0.034,-0.0074,-0.004,0.0091,-0.0025,-2.4375,-45.1313,-2.0625,,adl
10.817639,-0.0498,-0.034,-0.0074,-0.0027,0.0054,-0.0025,-2.4375,-45.1313,-2.0625,,adl
10.826176,-0.0498,-0.034,-0.0074,-0.0027,0.0054,-0.0025,-2.4375,-45.1313,-2.0625,,adl
10.832373,-0.018,-0.0185,-0.0241,-0.0027,0.0054,-0.0025,-2.4375,-45.1313,-2.0625,,adl
10.852802,-0.017,-0.0243,-0.0288,-0.0027,0.0054,-0.0025,-2.4375,-45.1313,-2.0625,,adl
10.861707,-0.017,-0.0243,-0.0288,-0.0027,0.0054,-0.0025,-3.1125,-44.9625,-2.8688,,adl
10.870033,-0.0154,-0.0344,-0.0528,-0.0027,0.0054,-0.0025,-3.1125,-44.9625,-2.8688,,adl
10.874001,-0.0154,-0.0344,-0.0528,-0.0027,0.0054,-0.0025,-3.1125,-44.9625,-2.8688,,adl
10.878475,-0.0154,-0.0344,-0.0528,-0.0125,-0.0142,-0.0037,-3.1125,-44.9625,-2.8688,,adl
10.889496,-0.0455,-0.0313,-0.0246,-0.0125,-0.0142,-0.0037,-3.1125,-44.9625,-2.8688,,adl
10.908781,-0.028,-0.0399,-0.0371,-0.0125,-0.0142,-0.0037,-3.1125,-44.9625,-2.8688,,adl
10.91851,-0.028,-0.0399,-0.0371,-0.0125,-0.0142,-0.0037,-2.8125,-44.9813,-2.9813,,adl
10.921838,-0.028,-0.0399,-0.0371,-0.0125,-0.0142,-0.0037,-2.8125,-44.9813,-2.9813,,adl
10.928142,0.0395,-0.02,0.0009,-0.0125,-0.0142,-0.0037,-2.8125,-44.9813,-2.9813,,adl
10.94113,0.0395,-0.02,0.0009,-0.0137,0.0054,0.0084,-2.8125,-44.9813,-2.9813,,adl
10.949749,0.0729,-0.0383,0.0675,-0.0137,0.0054,0.0084,-2.8125,-44.9813,-2.9813,,adl
10.966245,0.0737,-0.0228,0.0433,-0.0137,0.0054,0.0084,-2.8125,-44.9813,-2.9813,,adl
10.969805,0.0737,-0.0228,0.0433,-0.0137,0.0054,0.0084,-2.8125,-44.9813,-2.9813,,adl
10.978856,0.0737,-0.0228,0.0433,-0.0137,0.0054,0.0084,-2.7188,-45.0375,-3.5063,,adl
10.984662,0.0068,-0.0068,-0.0093,-0.0137,0.0054,0.0084,-2.7188,-45.0375,-3.5063,,adl
11.003995,0.0068,-0.0068,-0.0093,0.0082,0.0126,-0.0074,-2.7188,-45.0375,-3.5063,,adl
11.007232,-0.0596,-0.0243,-0.0209,0.0082,0.0126,-0.0074,-2.7188,-45.0375,-3.5063,,adl
11.017739,-0.0596,-0.0243,-0.0209,0.0082,0.0126,-0.0074,-2.7188,-45.0375,-3.5063,,adl
11.023494,-0.0872,-0.0068,-0.0683,0.0082,0.0126,-0.0074,-2.7188,-45.0375,-3.5063,,adl
11.039103,-0.0872,-0.0068,-0.0683,0.0082,0.0126,-0.0074,-2.7188,-44.85,-3.3938,,adl
11.042384,-0.0688,-0.0048,-0.0681,0.0082,0.0126,-0.0074,-2.7188,-44.85,-3.3938,,adl
11.062247,-0.0296,-0.0511,-0.078,0.0082,0.0126,-0.0074,-2.7188,-44.85,-3.3938,,adl
11.065896,-0.0296,-0.0511,-0.078,0.0082,0.0126,-0.0074,-2.7188,-44.85,-3.3938,,adl
11.06911,-0.0296,-0.0511,-0.078,-0.015,-0.0179,0.0096,-2.7188,-44.85,-3.3938,,adl
11.081387,0.062,-0.074,-0.0166,-0.015,-0.0179,0.0096,-2.7188,-44.85,-3.3938,,adl
11.099004,0.062,-0.074,-0.0166,-0.015,-0.0179,0.0096,-3.0,-45.3563,-3.075,,adl
11.100581,0.0853,-0.0278,0.0067,-0.015,-0.0179,0.0096,-3.0,-45.3563,-3.075,,adl
11.113505,0.0853,-0.0278,0.0067,-0.015,-0.0179,0.0096,-3.0,-45.3563,-3.075,,adl
11.11942,0.1013,0.0122,0.028,-0.015,-0.0179,0.0096,-3.0,-45.3563,-3.075,,adl
11.127943,0.1013,0.0122,0.028,-0.0027,0.0139,-0.0062,-3.0,-45.3563,-3.075,,adl
11.138277,0.0473,0.0308,0.0306,-0.0027,0.0139,-0.0062,-3.0,-45.3563,-3.075,,adl
11.15803,-0.0571,-0.0324,-0.053,-0.0027,0.0139,-0.0062,-3.0,-45.3563,-3.075,,adl
11.160998,-0.0571,-0.0324,-0.053,-0.0027,0.0139,-0.0062,-3.4875,-45.0563,-2.9625,,adl
11.16331,-0.0571,-0.0324,-0.053,-0.0027,0.0139,-0.0062,-3.4875,-45.0563,-2.9625,,adl
11.176154,-0.1045,-0.0652,-0.0698,-0.0027,0.0139,-0.0062,-3.4875,-45.0563,-2.9625,,adl
11.191588,-0.1045,-0.0652,-0.0698,-0.0113,-0.0069,-0.0014,-3.4875,-45.0563,-2.9625,,adl
11.195846,-0.0946,-0.0555,-0.0534,-0.0113,-0.0069,-0.0014,-3.4875,-45.0563,-2.9625,,adl
11.208683,-0.0946,-0.0555,-0.0534,-0.0113,-0.0069,-0.0014,-3.4875,-45.0563,-2.9625,,adl
11.214849,-0.0362,-0.0263,-0.0129,-0.0113,-0.0069,-0.0014,-3.4875,-45.0563,-2.9625,,adl
11.220163,-0.0362,-0.0263,-0.0129,-0.0113,-0.0069,-0.0014,-3.3,-45.15,-3.075,,adl
11.235605,0.0253,-0.0332,0.001,-0.0113,-0.0069,-0.0014,-3.3,-45.15,-3.075,,adl
11.25306,0.0253,-0.0332,0.001,-0.0125,-0.0093,0.006,-3.3,-45.15,-3.075,,adl
11.256382,0.1127,-0.0473,0.0172,-0.0125,-0.0093,0.006,-3.3,-45.15,-3.075,,adl
11.258851,0.1127,-0.0473,0.0172,-0.0125,-0.0093,0.006,-3.3,-45.15,-3.075,,adl
11.27194,0.1007,-0.0407,-0.0072,-0.0125,-0.0093,0.006,-3.3,-45.15,-3.075,,adl
11.279307,0.1007,-0.0407,-0.0072,-0.0125,-0.0093,0.006,-3.1125,-44.9625,-3.075,,adl
11.291764,0.0148,-0.0111,-0.0121,-0.0125,-0.0093,0.006,-3.1125,-44.9625,-3.075,,adl
11.305359,0.0148,-0.0111,-0.0121,-0.0125,-0.0093,0.006,-3.1125,-44.9625,-3.075,,adl
11.310424,-0.0531,-0.0013,-0.0096,-0.0125,-0.0093,0.006,-3.1125,-44.9625,-3.075,,adl
11.313666,-0.0531,-0.0013,-0.0096,-0.0015,0.0016,-0.0099,-3.1125,-44.9625,-3.075,,adl
11.32966,-0.0689,-0.0181,0.0312,-0.0015,0.0016,-0.0099,-3.1125,-44.9625,-3.075,,adl
11.339463,-0.0689,-0.0181,0.0312,-0.0015,0.0016,-0.0099,-3.4875,-45.15,-3.0563,,adl
11.347889,-0.0599,-0.0171,0.0292,-0.0015,0.0016,-0.0099,-3.4875,-45.15,-3.0563,,adl
11.352268,-0.0599,-0.0171,0.0292,-0.0015,0.0016,-0.0099,-3.4875,-45.15,-3.0563,,adl
11.368214,-0.0274,-0.0407,0.0343,-0.0015,0.0016,-0.0099,-3.4875,-45.15,-3.0563,,adl
11.376471,-0.0274,-0.0407,0.0343,0.0143,0.0016,0.0036,-3.4875,-45.15,-3.0563,,adl
11.386372,-0.029,-0.0414,0.0132,0.0143,0.0016,0.0036,-3.4875,-45.15,-3.0563,,adl
11.399343,-0.029,-0.0414,0.0132,0.0143,0.0016,0.0036,-2.8125,-44.9438,-3.6,,adl
11.401641,-0.029,-0.0414,0.0132,0.0143,0.0016,0.0036,-2.8125,-44.9438,-3.6,,adl
11.40573,-0.0129,-0.0329,-0.0391,0.0143,0.0016,0.0036,-2.8125,-44.9438,-3.6,,adl
11.425475,0.0169,-0.0076,-0.0244,0.0143,0.0016,0.0036,-2.8125,-44.9438,-3.6,,adl
11.43881,0.0169,-0.0076,-0.0244,0.0155,0.0054,0.0084,-2.8125,-44.9438,-3.6,,adl
11.444376,0.0407,-0.0257,-0.0599,0.0155,0.0054,0.0084,-2.8125,-44.9438,-3.6,,adl
11.450275,0.0407,-0.0257,-0.0599,0.0155,0.0054,0.0084,-2.8125,-44.9438,-3.6,,adl
11.459738,0.0407,-0.0257,-0.0599,0.0155,0.0054,0.0084,-2.5125,-45.0938,-2.8875,,adl
11.463175,0.0366,-0.0239,-0.0595,0.0155,0.0054,0.0084,-2.5125,-45.0938,-2.8875,,adl
11.482379,-0.0189,-0.0138,-0.0497,0.0155,0.0054,0.0084,-2.5125,-45.0938,-2.8875,,adl
11.496237,-0.0189,-0.0138,-0.0497,0.0155,0.0054,0.0084,-2.5125,-45.0938,-2.8875,,adl
11.500826,-0.0189,-0.0138,-0.0497,0.0022,-0.0104,-0.0001,-2.5125,-45.0938,-2.8875,,adl
11.502989,-0.0721,-0.0314,-0.0209,0.0022,-0.0104,-0.0001,-2.5125,-45.0938,-2.8875,,adl
11.518345,-0.0721,-0.0314,-0.0209,0.0022,-0.0104,-0.0001,-3.3,-44.85,-2.9625,,adl
11.520153,-0.0326,-0.0465,-0.0518,0.0022,-0.0104,-0.0001,-3.3,-44.85,-2.9625,,adl
11.539834,0.0245,-0.0514,0.0489,0.0022,-0.0104,-0.0001,-3.3,-44.85,-2.9625,,adl
11.543471,0.0245,-0.0514,0.0489,0.0022,-0.0104,-0.0001,-3.3,-44.85,-2.9625,,adl
11.559331,0.0717,-0.0547,0.1232,0.0022,-0.0104,-0.0001,-3.3,-44.85,-2.9625,,adl
11.563229,0.0717,-0.0547,0.1232,0.0143,-0.0081,0.0011,-3.3,-44.85,-2.9625,,adl
11.578179,0.025,-0.054,0.133,0.0143,-0.0081,0.0011,-3.3,-44.85,-2.9625,,adl
11.579957,0.025,-0.054,0.133,0.0143,-0.0081,0.0011,-2.8125,-44.9625,-3.075,,adl
11.592915,0.025,-0.054,0.133,0.0143,-0.0081,0.0011,-2.8125,-44.9625,-3.075,,adl
11.597455,0.0003,-0.0093,0.0212,0.0143,-0.0081,0.0011,-2.8125,-44.9625,-3.075,,adl
11.616563,-0.0548,-0.0442,-0.0352,0.0143,-0.0081,0.0011,-2.8125,-44.9625,-3.075,,adl
11.627683,-0.0548,-0.0442,-0.0352,0.04,-0.0032,-0.0014,-2.8125,-44.9625,-3.075,,adl
11.637529,-0.0613,-0.0494,-0.1156,0.04,-0.0032,-0.0014,-2.8125,-44.9625,-3.075,,adl
11.639155,-0.0613,-0.0494,-0.1156,0.04,-0.0032,-0.0014,-3.3938,-45.3563,-2.7563,,adl
11.63984,-0.0613,-0.0494,-0.1156,0.04,-0.0032,-0.0014,-3.3938,-45.3563,-2.7563,,adl
11.655826,-0.0169,-0.0364,-0.1987,0.04,-0.0032,-0.0014,-3.3938,-45.3563,-2.7563,,adl
11.674259,0.0471,-0.0106,-0.1675,0.04,-0.0032,-0.0014,-3.3938,-45.3563,-2.7563,,adl
11.687111,0.0471,-0.0106,-0.1675,0.04,-0.0032,-0.0014,-3.3938,-45.3563,-2.7563,,adl
11.688532,0.0471,-0.0106,-0.1675,-0.0052,-0.0129,0.0048,-3.3938,-45.3563,-2.7563,,adl
11.692429,0.0891,-0.0115,-0.115,-0.0052,-0.0129,0.0048,-3.3938,-45.3563,-2.7563,,adl
11.698404,0.0891,-0.0115,-0.115,-0.0052,-0.0129,0.0048,-3.3,-45.0563,-3.075,,adl
11.712012,0.0722,-0.0131,-0.0626,-0.0052,-0.0129,0.0048,-3.3,-45.0563,-3.075,,adl
11.732561,0.0329,-0.0487,0.0447,-0.0052,-0.0129,0.0048,-3.3,-45.0563,-3.075,,adl
11.73632,0.0329,-0.0487,0.0447,-0.0052,-0.0129,0.0048,-3.3,-45.0563,-3.075,,adl
11.748967,0.0329,-0.0487,0.0447,-0.0065,-0.0032,-0.0087,-3.3,-45.0563,-3.075,,adl
11.750029,-0.0178,-0.0732,0.0708,-0.0065,-0.0032,-0.0087,-3.3,-45.0563,-3.075,,adl
11.759226,-0.0178,-0.0732,0.0708,-0.0065,-0.0032,-0.0087,-2.9062,-45.075,-2.9813,,adl
11.770364,-0.0396,-0.0371,0.0564,-0.0065,-0.0032,-0.0087,-2.9062,-45.075,-2.9813,,adl
11.783574,-0.0396,-0.0371,0.0564,-0.0065,-0.0032,-0.0087,-2.9062,-45.075,-2.9813,,adl
11.788547,-0.0355,-0.058,0.0567,-0.0065,-0.0032,-0.0087,-2.9062,-45.075,-2.9813,,adl
11.807906,-0.0548,-0.0396,0.0382,-0.0065,-0.0032,-0.0087,-2.9062,-45.075,-2.9813,,adl
11.812462,-0.0548,-0.0396,0.0382,0.0168,-0.0019,0.0036,-2.9062,-45.075,-2.9813,,adl
11.819161,-0.0548,-0.0396,0.0382,0.0168,-0.0019,0.0036,-3.0188,-45.075,-2.6625,,adl
11.826525,-0.0553,-0.0151,-0.002,0.0168,-0.0019,0.0036,-3.0188,-45.075,-2.6625,,adl
11.830484,-0.0553,-0.0151,-0.002,0.0168,-0.0019,0.0036,-3.0188,-45.075,-2.6625,,adl
11.846852,-0.0662,-0.0503,-0.0352,0.0168,-0.0019,0.0036,-3.0188,-45.075,-2.6625,,adl
11.865353,-0.0599,-0.044,0.0562,0.0168,-0.0019,0.0036,-3.0188,-45.075,-2.6625,,adl
11.874386,-0.0599,-0.044,0.0562,0.0143,-0.0324,0.0158,-3.0188,-45.075,-2.6625,,adl
11.878844,-0.0599,-0.044,0.0562,0.0143,-0.0324,0.0158,-3.0188,-45.075,-2.6625,,adl
11.879505,-0.0599,-0.044,0.0562,0.0143,-0.0324,0.0158,-3.0,-45.1688,-2.8688,,adl
11.883766,0.0017,-0.0285,0.707,0.0143,-0.0324,0.0158,-3.0,-45.1688,-2.8688,,adl
11.903217,0.0049,-0.0996,0.5352,0.0143,-0.0324,0.0158,-3.0,-45.1688,-2.8688,,adl
11.922486,-0.0628,-0.0165,0.4607,0.0143,-0.0324,0.0158,-3.0,-45.1688,-2.8688,,adl
11.926053,-0.0628,-0.0165,0.4607,0.0143,-0.0324,0.0158,-3.0,-45.1688,-2.8688,,adl
11.93727,-0.0628,-0.0165,0.4607,0.2074,-0.0337,0.0256,-3.0,-45.1688,-2.8688,,adl
11.938543,-0.0628,-0.0165,0.4607,0.2074,-0.0337,0.0256,-3.1125,-44.8875,-2.55,,adl
11.941339,-0.2098,-0.0087,0.2289,0.2074,-0.0337,0.0256,-3.1125,-44.8875,-2.55,,adl
11.96087,-0.369,-0.1263,-0.2485,0.2074,-0.0337,0.0256,-3.1125,-44.8875,-2.55,,adl
11.974415,-0.369,-0.1263,-0.2485,0.2074,-0.0337,0.0256,-3.1125,-44.8875,-2.55,,adl
11.980671,-0.5083,-0.0187,-0.5973,0.2074,-0.0337,0.0256,-3.1125,-44.8875,-2.55,,adl
11.997329,-0.5083,-0.0187,-0.5973,0.0522,-0.3648,0.0476,-3.1125,-44.8875,-2.55,,adl
11.999411,-0.2961,0.0003,-0.4865,0.0522,-0.3648,0.0476,-3.1125,-44.8875,-2.55,,adl
12.000283,-0.2961,0.0003,-0.4865,0.0522,-0.3648,0.0476,-3.225,-45.0188,-1.8188,,adl
12.018147,0.1702,-0.0709,-0.4278,0.0522,-0.3648,0.0476,-3.225,-45.0188,-1.8188,,adl
12.021796,0.1702,-0.0709,-0.4278,0.0522,-0.3648,0.0476,-3.225,-45.0188,-1.8188,,adl
12.036939,0.6434,-0.0001,-0.1938,0.0522,-0.3648,0.0476,-3.225,-45.0188,-1.8188,,adl
12.056851,0.6852,-0.0464,-0.2248,0.0522,-0.3648,0.0476,-3.225,-45.0188,-1.8188,,adl
12.059828,0.6852,-0.0464,-0.2248,0.0522,-0.3648,0.0476,-3.525,-44.8313,-1.7063,,adl
12.061721,0.6852,-0.0464,-0.2248,0.0107,-0.0984,0.0243,-3.525,-44.8313,-1.7063,,adl
12.071102,0.6852,-0.0464,-0.2248,0.0107,-0.0984,0.0243,-3.525,-44.8313,-1.7063,,adl
12.075374,0.4441,-0.0614,-0.2818,0.0107,-0.0984,0.0243,-3.525,-44.8313,-1.7063,,adl
12.094242,0.2315,-0.0392,0.0996,0.0107,-0.0984,0.0243,-3.525,-44.8313,-1.7063,,adl
12.11437,0.1169,-0.0153,-0.0882,0.0107,-0.0984,0.0243,-3.525,-44.8313,-1.7063,,adl
12.117521,0.1169,-0.0153,-0.0882,0.0107,-0.0984,0.0243,-3.525,-44.8313,-1.7063,,adl
12.119586,0.1169,-0.0153,-0.0882,0.0107,-0.0984,0.0243,-3.0375,-44.6438,-1.6125,,adl
12.121652,0.1169,-0.0153,-0.0882,0.0242,-0.0069,-0.0967,-3.0375,-44.6438,-1.6125,,adl
12.133173,-0.1247,0.0557,-0.1914,0.0242,-0.0069,-0.0967,-3.0375,-44.6438,-1.6125,,adl
12.151999,-0.3244,0.108,-0.3833,0.0242,-0.0069,-0.0967,-3.0375,-44.6438,-1.6125,,adl
12.165312,-0.3244,0.108,-0.3833,0.0242,-0.0069,-0.0967,-3.0375,-44.6438,-1.6125,,adl
12.17131,-0.3031,-0.0111,-0.2062,0.0242,-0.0069,-0.0967,-3.0375,-44.6438,-1.6125,,adl
12.180465,-0.3031,-0.0111,-0.2062,0.0242,-0.0069,-0.0967,-2.7188,-45.2625,-1.5188,,adl
12.184418,-0.3031,-0.0111,-0.2062,-0.142,-0.2622,-0.0477,-2.7188,-45.2625,-1.5188,,adl
12.189872,-0.1643,-0.0784,-0.1907,-0.142,-0.2622,-0.0477,-2.7188,-45.2625,-1.5188,,adl
12.209146,0.0191,-0.0646,0.1386,-0.142,-0.2622,-0.0477,-2.7188,-45.2625,-1.5188,,adl
12.2155,0.0191,-0.0646,0.1386,-0.142,-0.2622,-0.0477,-2.7188,-45.2625,-1.5188,,adl
12.228857,-0.0125,-0.1146,0.0805,-0.142,-0.2622,-0.0477,-2.7188,-45.2625,-1.5188,,adl
12.239371,-0.0125,-0.1146,0.0805,-0.142,-0.2622,-0.0477,-3.4125,-44.9062,-2.2313,,adl
12.248098,-0.0125,-0.1146,0.0805,-0.1298,-0.1974,0.0524,-3.4125,-44.9062,-2.2313,,adl
12.249586,0.0243,-0.0961,-0.1639,-0.1298,-0.1974,0.0524,-3.4125,-44.9062,-2.2313,,adl
12.261357,0.0243,-0.0961,-0.1639,-0.1298,-0.1974,0.0524,-3.4125,-44.9062,-2.2313,,adl
12.266277,0.06,0.0384,-0.2865,-0.1298,-0.1974,0.0524,-3.4125,-44.9062,-2.2313,,adl
12.285687,0.2908,-0.2557,-0.3551,-0.1298,-0.1974,0.0524,-3.4125,-44.9062,-2.2313,,adl
12.298933,0.2908,-0.2557,-0.3551,-0.1298,-0.1974,0.0524,-3.0188,-44.775,-2.8688,,adl
12.304735,0.1847,0.0812,0.8429,-0.1298,-0.1974,0.0524,-3.0188,-44.775,-2.8688,,adl
12.309277,0.1847,0.0812,0.8429,-0.1298,-0.1974,0.0524,-3.0188,-44.775,-2.8688,,adl
12.309962,0.1847,0.0812,0.8429,0.1023,0.4623,0.0316,-3.0188,-44.775,-2.8688,,adl
12.324284,0.4047,0.129,1.0069,0.1023,0.4623,0.0316,-3.0188,-44.775,-2.8688,,adl
12.343099,0.2603,0.0169,0.7532,0.1023,0.4623,0.0316,-3.0188,-44.775,-2.8688,,adl
12.356171,0.2603,0.0169,0.7532,0.1023,0.4623,0.0316,-3.0188,-44.775,-2.8688,,adl
12.358537,0.2603,0.0169,0.7532,0.1023,0.4623,0.0316,-2.8875,-45.45,-3.3938,,adl
12.362996,-0.1503,0.1592,0.4812,0.1023,0.4623,0.0316,-2.8875,-45.45,-3.3938,,adl
12.370578,-0.1503,0.1592,0.4812,0.1988,-0.1277,-0.0612,-2.8875,-45.45,-3.3938,,adl
12.381303,-0.1449,0.3501,-0.0587,0.1988,-0.1277,-0.0612,-2.8875,-45.45,-3.3938,,adl
12.400774,-0.0601,-0.2887,-0.6037,0.1988,-0.1277,-0.0612,-2.8875,-45.45,-3.3938,,adl
12.404838,-0.0601,-0.2887,-0.6037,0.1988,-0.1277,-0.0612,-2.8875,-45.45,-3.3938,,adl
12.424257,-0.8925,0.0624,-0.6338,0.1988,-0.1277,-0.0612,-2.8875,-45.45,-3.3938,,adl
12.425335,-0.8925,0.0624,-0.6338,0.1988,-0.1277,-0.0612,-2.325,-45.15,-1.95,,adl
