time,ax,ay,az,wx,wy,wz,Bx,By,Bz,Unnamed: 10,label
0.025422,0.422,0.0087,-0.294,0.0,0.0,0.0,0.0,0.0,0.0,,adl
0.043834,0.5205,0.0876,-0.4007,0.0,0.0,0.0,0.0,0.0,0.0,,adl
0.047381,0.5205,0.0876,-0.4007,0.0,0.0,0.0,0.0,0.0,0.0,,adl
0.05633,0.5205,0.0876,-0.4007,0.0,0.0,0.0,-24.4313,-30.3375,7.3313,,adl
0.064448,0.5205,0.0876,-0.4007,-0.0637,0.0604,-0.0133,-24.4313,-30.3375,7.3313,,adl
0.065569,-0.1081,0.0576,0.0988,-0.0637,0.0604,-0.0133,-24.4313,-30.3375,7.3313,,adl
0.082331,-0.3891,0.0086,0.2195,-0.0637,0.0604,-0.0133,-24.4313,-30.3375,7.3313,,adl
0.096345,-0.3891,0.0086,0.2195,-0.0637,0.0604,-0.0133,-24.4313,-30.3375,7.3313,,adl
0.103158,-0.0058,0.0158,-0.083,-0.0637,0.0604,-0.0133,-24.4313,-30.3375,7.3313,,adl
0.11669,-0.0058,0.0158,-0.083,-0.0637,0.0604,-0.0133,-25.425,-30.0938,7.05,,adl
0.120998,0.2483,0.0575,-0.2392,-0.0637,0.0604,-0.0133,-25.425,-30.0938,7.05,,adl
0.124717,0.2483,0.0575,-0.2392,-0.0161,-0.008,-0.006,-25.425,-30.0938,7.05,,adl
0.140756,0.1488,-0.0184,-0.0693,-0.0161,-0.008,-0.006,-25.425,-30.0938,7.05,,adl
0.144024,0.1488,-0.0184,-0.0693,-0.0161,-0.008,-0.006,-25.425,-30.0938,7.05,,adl
0.159731,-0.0382,-0.0766,0.2023,-0.0161,-0.008,-0.006,-25.425,-30.0938,7.05,,adl
0.17701,-0.0382,-0.0766,0.2023,-0.0161,-0.008,-0.006,-25.1063,-30.2813,6.6188,,adl
0.180231,-0.1073,-0.0264,0.0221,-0.0161,-0.008,-0.006,-25.1063,-30.2813,6.6188,,adl
0.186608,-0.1073,-0.0264,0.0221,0.0316,-0.0177,-0.0084,-25.1063,-30.2813,6.6188,,adl
0.19187,-0.1073,-0.0264,0.0221,0.0316,-0.0177,-0.0084,-25.1063,-30.2813,6.6188,,adl
0.198912,-0.0093,0.0688,-0.1009,0.0316,-0.0177,-0.0084,-25.1063,-30.2813,6.6188,,adl
0.216168,0.0771,0.0529,-0.0797,0.0316,-0.0177,-0.0084,-25.1063,-30.2813,6.6188,,adl
0.236244,0.0496,-0.0459,0.0325,0.0316,-0.0177,-0.0084,-25.1063,-30.2813,6.6188,,adl
0.239332,0.0496,-0.0459,0.0325,0.0316,-0.0177,-0.0084,-24.75,-30.0375,7.4438,,adl
0.241735,0.0496,-0.0459,0.0325,0.0316,-0.0177,-0.0084,-24.75,-30.0375,7.4438,,adl
0.248849,0.0496,-0.0459,0.0325,-0.0099,-0.0044,-0.0011,-24.75,-30.0375,7.4438,,adl
0.254225,-0.0162,-0.0674,0.0916,-0.0099,-0.0044,-0.0011,-24.75,-30.0375,7.4438,,adl
0.274477,0.0004,0.0044,-0.0259,-0.0099,-0.0044,-0.0011,-24.75,-30.0375,7.4438,,adl
0.286866,0.0004,0.0044,-0.0259,-0.0099,-0.0044,-0.0011,-24.75,-30.0375,7.4438,,adl
0.292497,0.044,0.0563,-0.1154,-0.0099,-0.0044,-0.0011,-24.75,-30.0375,7.4438,,adl
0.298054,0.044,0.0563,-0.1154,-0.0099,-0.0044,-0.0011,-24.3563,-29.8313,6.9188,,adl
0.312522,0.044,0.0563,-0.1154,-0.0148,-0.008,0.0026,-24.3563,-29.8313,6.9188,,adl
0.31359,0.037,0.0136,-0.029,-0.0148,-0.008,0.0026,-24.3563,-29.8313,6.9188,,adl
0.331424,0.0008,-0.0316,0.0222,-0.0148,-0.008,0.0026,-24.3563,-29.8313,6.9188,,adl
0.33981,0.0008,-0.0316,0.0222,-0.0148,-0.008,0.0026,-24.3563,-29.8313,6.9188,,adl
0.350639,0.0212,-0.0262,0.0188,-0.0148,-0.008,0.0026,-24.3563,-29.8313,6.9188,,adl
0.357022,0.0212,-0.0262,0.0188,-0.0148,-0.008,0.0026,-24.825,-30.2063,6.9188,,adl
0.370099,0.0585,-0.0305,-0.033,-0.0148,-0.008,0.0026,-24.825,-30.2063,6.9188,,adl
0.373409,0.0585,-0.0305,-0.033,0.0084,-0.0214,-0.0146,-24.825,-30.2063,6.9188,,adl
0.382663,0.0585,-0.0305,-0.033,0.0084,-0.0214,-0.0146,-24.825,-30.2063,6.9188,,adl
0.388362,0.0269,0.0263,-0.0329,0.0084,-0.0214,-0.0146,-24.825,-30.2063,6.9188,,adl
0.410707,-0.0112,0.0311,-0.0288,0.0084,-0.0214,-0.0146,-24.825,-30.2063,6.9188,,adl
0.418035,-0.0112,0.0311,-0.0288,0.0084,-0.0214,-0.0146,-24.9188,-30.4125,7.1438,,adl
0.427028,-0.0003,0.0418,-0.047,0.0084,-0.0214,-0.0146,-24.9188,-30.4125,7.1438,,adl
0.431687,-0.0003,0.0418,-0.047,0.0084,-0.0214,-0.0146,-24.9188,-30.4125,7.1438,,adl
0.435544,-0.0003,0.0418,-0.047,0.0011,-0.0067,0.0026,-24.9188,-30.4125,7.1438,,adl
0.446354,0.0442,0.0033,-0.0651,0.0011,-0.0067,0.0026,-24.9188,-30.4125,7.1438,,adl
0.466176,0.0631,-0.0289,-0.0478,0.0011,-0.0067,0.0026,-24.9188,-30.4125,7.1438,,adl
0.478056,0.0631,-0.0289,-0.0478,0.0011,-0.0067,0.0026,-24.7313,-30.1125,6.825,,adl
0.481304,0.0631,-0.0289,-0.0478,0.0011,-0.0067,0.0026,-24.7313,-30.1125,6.825,,adl
0.484649,0.0336,-0.0064,0.0034,0.0011,-0.0067,0.0026,-24.7313,-30.1125,6.825,,adl
0.498594,0.0336,-0.0064,0.0034,-0.0014,0.0066,-0.0023,-24.7313,-30.1125,6.825,,adl
0.503378,-0.0056,-0.009,0.0328,-0.0014,0.0066,-0.0023,-24.7313,-30.1125,6.825,,adl
0.522837,0.0111,0.0377,-0.0081,-0.0014,0.0066,-0.0023,-24.7313,-30.1125,6.825,,adl
0.526605,0.0111,0.0377,-0.0081,-0.0014,0.0066,-0.0023,-24.7313,-30.1125,6.825,,adl
0.537538,0.0111,0.0377,-0.0081,-0.0014,0.0066,-0.0023,-24.6375,-30.3188,7.125,,adl
0.544831,-0.0062,0.025,-0.0365,-0.0014,0.0066,-0.0023,-24.6375,-30.3188,7.125,,adl
0.559927,-0.0062,0.025,-0.0365,-0.0136,0.0018,0.0049,-24.6375,-30.3188,7.125,,adl
0.561307,0.0511,0.0095,-0.024,-0.0136,0.0018,0.0049,-24.6375,-30.3188,7.125,,adl
0.574158,0.0511,0.0095,-0.024,-0.0136,0.0018,0.0049,-24.6375,-30.3188,7.125,,adl
0.579842,0.03,-0.0386,0.0167,-0.0136,0.0018,0.0049,-24.6375,-30.3188,7.125,,adl
0.597265,0.03,-0.0386,0.0167,-0.0136,0.0018,0.0049,-24.9188,-30.4313,7.4438,,adl
0.599987,0.0182,-0.005,0.019,-0.0136,0.0018,0.0049,-24.9188,-30.4313,7.4438,,adl
0.618839,0.0171,0.0173,0.0006,-0.0136,0.0018,0.0049,-24.9188,-30.4313,7.4438,,adl
0.621885,0.0171,0.0173,0.0006,-0.0136,0.0018,0.0049,-24.9188,-30.4313,7.4438,,adl
0.622825,0.0171,0.0173,0.0006,0.0059,-0.0129,-0.0011,-24.9188,-30.4313,7.4438,,adl
0.637414,0.0111,0.0216,-0.0316,0.0059,-0.0129,-0.0011,-24.9188,-30.4313,7.4438,,adl
0.656827,0.0159,-0.0081,0.007,0.0059,-0.0129,-0.0011,-24.9188,-30.4313,7.4438,,adl
0.659982,0.0159,-0.0081,0.007,0.0059,-0.0129,-0.0011,-25.0313,-30.1125,7.1438,,adl
0.669707,0.0159,-0.0081,0.007,0.0059,-0.0129,-0.0011,-25.0313,-30.1125,7.1438,,adl
0.677026,0.0186,-0.0375,0.0334,0.0059,-0.0129,-0.0011,-25.0313,-30.1125,7.1438,,adl
0.684562,0.0186,-0.0375,0.0334,0.0011,-0.0142,-0.0036,-25.0313,-30.1125,7.1438,,adl
0.694465,0.0198,-0.016,0.0107,0.0011,-0.0142,-0.0036,-25.0313,-30.1125,7.1438,,adl
0.714349,0.0366,0.0066,-0.0373,0.0011,-0.0142,-0.0036,-25.0313,-30.1125,7.1438,,adl
0.717531,0.0366,0.0066,-0.0373,0.0011,-0.0142,-0.0036,-24.825,-30.4125,7.125,,adl
0.719677,0.0366,0.0066,-0.0373,0.0011,-0.0142,-0.0036,-24.825,-30.4125,7.125,,adl
0.732547,0.0058,0.0441,-0.0352,0.0011,-0.0142,-0.0036,-24.825,-30.4125,7.125,,adl
0.746959,0.0058,0.0441,-0.0352,-0.0074,-0.0166,-0.0036,-24.825,-30.4125,7.125,,adl
0.751608,0.0163,0.011,-0.0168,-0.0074,-0.0166,-0.0036,-24.825,-30.4125,7.125,,adl
0.76566,0.0163,0.011,-0.0168,-0.0074,-0.0166,-0.0036,-24.825,-30.4125,7.125,,adl
0.771955,0.0395,0.0215,-0.0084,-0.0074,-0.0166,-0.0036,-24.825,-30.4125,7.125,,adl
0.777499,0.0395,0.0215,-0.0084,-0.0074,-0.0166,-0.0036,-24.825,-30.2063,7.0313,,adl
0.79006,0.0625,-0.0023,-0.0529,-0.0074,-0.0166,-0.0036,-24.825,-30.2063,7.0313,,adl
0.80922,0.0625,-0.0023,-0.0529,0.0011,0.0054,-0.0011,-24.825,-30.2063,7.0313,,adl
0.811788,0.0293,0.0048,-0.0532,0.0011,0.0054,-0.0011,-24.825,-30.2063,7.0313,,adl
0.813994,0.0293,0.0048,-0.0532,0.0011,0.0054,-0.0011,-24.825,-30.2063,7.0313,,adl
0.828891,0.0239,0.0007,-0.0168,0.0011,0.0054,-0.0011,-24.825,-30.2063,7.0313,,adl
0.838668,0.0239,0.0007,-0.0168,0.0011,0.0054,-0.0011,-24.0563,-30.15,7.2188,,adl
0.84853,0.0075,0.0115,0.0427,0.0011,0.0054,-0.0011,-24.0563,-30.15,7.2188,,adl
0.861006,0.0075,0.0115,0.0427,0.0011,0.0054,-0.0011,-24.0563,-30.15,7.2188,,adl
0.866533,0.0468,0.0174,0.0276,0.0011,0.0054,-0.0011,-24.0563,-30.15,7.2188,,adl
0.870636,0.0468,0.0174,0.0276,-0.0001,-0.0069,0.0001,-24.0563,-30.15,7.2188,,adl
0.887998,0.032,-0.0159,0.0017,-0.0001,-0.0069,0.0001,-24.0563,-30.15,7.2188,,adl
0.900388,0.032,-0.0159,0.0017,-0.0001,-0.0069,0.0001,-24.5438,-30.15,7.4438,,adl
0.905482,0.0192,0.0011,-0.038,-0.0001,-0.0069,0.0001,-24.5438,-30.15,7.4438,,adl
0.911172,0.0192,0.0011,-0.038,-0.0001,-0.0069,0.0001,-24.5438,-30.15,7.4438,,adl
0.924365,0.0546,0.0177,-0.0015,-0.0001,-0.0069,0.0001,-24.5438,-30.15,7.4438,,adl
0.932352,0.0546,0.0177,-0.0015,0.0011,-0.0044,-0.0036,-24.5438,-30.15,7.4438,,adl
0.943829,-0.0101,0.0177,-0.047,0.0011,-0.0044,-0.0036,-24.5438,-30.15,7.4438,,adl
0.957091,-0.0101,0.0177,-0.047,0.0011,-0.0044,-0.0036,-24.5438,-30.15,7.4438,,adl
0.9601,-0.0101,0.0177,-0.047,0.0011,-0.0044,-0.0036,-24.3375,-30.4125,6.9188,,adl
0.963731,0.0597,-0.0033,0.0006,0.0011,-0.0044,-0.0036,-24.3375,-30.4125,6.9188,,adl
0.981751,0.0216,-0.0088,-0.0093,0.0011,-0.0044,-0.0036,-24.3375,-30.4125,6.9188,,adl
0.994857,0.0216,-0.0088,-0.0093,0.0011,0.003,0.0001,-24.3375,-30.4125,6.9188,,adl
1.000129,0.0436,-0.0114,0.0165,0.0011,0.003,0.0001,-24.3375,-30.4125,6.9188,,adl
1.005496,0.0436,-0.0114,0.0165,0.0011,0.003,0.0001,-24.3375,-30.4125,6.9188,,adl
1.015959,0.0436,-0.0114,0.0165,0.0011,0.003,0.0001,-23.9438,-30.525,6.9,,adl
1.020038,0.01,0.0066,0.033,0.0011,0.003,0.0001,-23.9438,-30.525,6.9,,adl
1.039618,0.0154,0.0263,-0.0038,0.0011,0.003,0.0001,-23.9438,-30.525,6.9,,adl
1.054544,0.0154,0.0263,-0.0038,0.0011,0.003,0.0001,-23.9438,-30.525,6.9,,adl
1.057257,0.0154,0.0263,-0.0038,0.0011,-0.0154,-0.0036,-23.9438,-30.525,6.9,,adl
1.059372,0.0582,0.0225,-0.0586,0.0011,-0.0154,-0.0036,-23.9438,-30.525,6.9,,adl
1.077652,0.0037,-0.012,-0.0305,0.0011,-0.0154,-0.0036,-23.9438,-30.525,6.9,,adl
1.079392,0.0037,-0.012,-0.0305,0.0011,-0.0154,-0.0036,-24.6375,-30.3375,7.3313,,adl
1.096421,0.0077,0.0115,-0.0393,0.0011,-0.0154,-0.0036,-24.6375,-30.3375,7.3313,,adl
1.102173,0.0077,0.0115,-0.0393,0.0011,-0.0154,-0.0036,-24.6375,-30.3375,7.3313,,adl
1.11507,0.0504,0.0045,-0.0125,0.0011,-0.0154,-0.0036,-24.6375,-30.3375,7.3313,,adl
1.120851,0.0504,0.0045,-0.0125,-0.0014,0.003,0.0025,-24.6375,-30.3375,7.3313,,adl
1.134392,0.017,-0.0072,0.0114,-0.0014,0.003,0.0025,-24.6375,-30.3375,7.3313,,adl
1.136503,0.017,-0.0072,0.0114,-0.0014,0.003,0.0025,-24.525,-30.3188,7.125,,adl
1.149216,0.017,-0.0072,0.0114,-0.0014,0.003,0.0025,-24.525,-30.3188,7.125,,adl
1.154535,0.0397,0.0074,0.02,-0.0014,0.003,0.0025,-24.525,-30.3188,7.125,,adl
1.1725,0.0333,0.0074,0.0385,-0.0014,0.003,0.0025,-24.525,-30.3188,7.125,,adl
1.180883,0.0333,0.0074,0.0385,-0.0026,-0.0252,-0.0011,-24.525,-30.3188,7.125,,adl
1.19208,0.0396,0.0002,-0.0201,-0.0026,-0.0252,-0.0011,-24.525,-30.3188,7.125,,adl
1.195042,0.0396,0.0002,-0.0201,-0.0026,-0.0252,-0.0011,-24.525,-30.3188,7.125,,adl
1.198513,0.0396,0.0002,-0.0201,-0.0026,-0.0252,-0.0011,-24.7125,-30.5063,7.0313,,adl
1.210307,0.0504,-0.0079,0.0076,-0.0026,-0.0252,-0.0011,-24.7125,-30.5063,7.0313,,adl
1.22971,-0.0005,0.0218,-0.0636,-0.0026,-0.0252,-0.0011,-24.7125,-30.5063,7.0313,,adl
1.24398,-0.0005,0.0218,-0.0636,-0.0026,-0.0252,-0.0011,-24.7125,-30.5063,7.0313,,adl
1.246644,-0.0005,0.0218,-0.0636,-0.0001,-0.0154,-0.0023,-24.7125,-30.5063,7.0313,,adl
1.250636,0.0425,0.0469,-0.042,-0.0001,-0.0154,-0.0023,-24.7125,-30.5063,7.0313,,adl
1.256755,0.0425,0.0469,-0.042,-0.0001,-0.0154,-0.0023,-25.0313,-30.3188,7.35,,adl
1.268391,0.0412,0.0229,-0.0143,-0.0001,-0.0154,-0.0023,-25.0313,-30.3188,7.35,,adl
1.288527,0.0529,-0.0106,-0.0379,-0.0001,-0.0154,-0.0023,-25.0313,-30.3188,7.35,,adl
1.291781,0.0529,-0.0106,-0.0379,-0.0001,-0.0154,-0.0023,-25.0313,-30.3188,7.35,,adl
1.306731,0.0529,-0.0106,-0.0379,-0.0014,0.0225,0.0025,-25.0313,-30.3188,7.35,,adl
1.309258,0.0208,-0.0432,-0.0656,-0.0014,0.0225,0.0025,-25.0313,-30.3188,7.35,,adl
1.316388,0.0208,-0.0432,-0.0656,-0.0014,0.0225,0.0025,-24.6375,-30.225,7.125,,adl
1.325937,0.0549,0.0031,-0.0088,-0.0014,0.0225,0.0025,-24.6375,-30.225,7.125,,adl
1.339845,0.0549,0.0031,-0.0088,-0.0014,0.0225,0.0025,-24.6375,-30.225,7.125,,adl
1.344333,0.0542,0.0,-0.016,-0.0014,0.0225,0.0025,-24.6375,-30.225,7.125,,adl
1.364402,0.0382,0.0151,-0.0751,-0.0014,0.0225,0.0025,-24.6375,-30.225,7.125,,adl
1.37089,0.0382,0.0151,-0.0751,0.0096,0.0628,0.0001,-24.6375,-30.225,7.125,,adl
1.376556,0.0382,0.0151,-0.0751,0.0096,0.0628,0.0001,-24.525,-30.5063,6.9188,,adl
1.3823,-0.0093,0.0169,-0.0405,0.0096,0.0628,0.0001,-24.525,-30.5063,6.9188,,adl
1.387525,-0.0093,0.0169,-0.0405,0.0096,0.0628,0.0001,-24.525,-30.5063,6.9188,,adl
1.402354,-0.005,-0.0202,0.0791,0.0096,0.0628,0.0001,-24.525,-30.5063,6.9188,,adl
1.421646,0.0166,-0.0265,0.2198,0.0096,0.0628,0.0001,-24.525,-30.5063,6.9188,,adl
1.430406,0.0166,-0.0265,0.2198,0.0109,-0.008,0.0014,-24.525,-30.5063,6.9188,,adl
1.437326,0.0166,-0.0265,0.2198,0.0109,-0.008,0.0014,-24.525,-30.5063,6.9188,,adl
1.441013,0.0166,-0.0265,0.2198,0.0109,-0.008,0.0014,-24.825,-30.225,7.35,,adl
1.442919,0.0408,-0.0044,0.164,0.0109,-0.008,0.0014,-24.825,-30.225,7.35,,adl
1.459852,0.0007,0.0156,0.0096,0.0109,-0.008,0.0014,-24.825,-30.225,7.35,,adl
1.479113,-0.0141,0.0353,-0.0766,0.0109,-0.008,0.0014,-24.825,-30.225,7.35,,adl
1.482534,-0.0141,0.0353,-0.0766,0.0109,-0.008,0.0014,-24.825,-30.225,7.35,,adl
1.492363,-0.0141,0.0353,-0.0766,0.0084,-0.0276,-0.006,-24.825,-30.225,7.35,,adl
1.496307,-0.0141,0.0353,-0.0766,0.0084,-0.0276,-0.006,-24.45,-30.0375,7.2375,,adl
1.497555,0.0502,-0.0005,-0.1505,0.0084,-0.0276,-0.006,-24.45,-30.0375,7.2375,,adl
1.516457,0.0516,-0.0098,-0.0942,0.0084,-0.0276,-0.006,-24.45,-30.0375,7.2375,,adl
1.532823,0.0516,-0.0098,-0.0942,0.0084,-0.0276,-0.006,-24.45,-30.0375,7.2375,,adl
1.543533,0.0352,-0.0015,0.0514,0.0084,-0.0276,-0.006,-24.45,-30.0375,7.2375,,adl
1.55582,0.0352,-0.0015,0.0514,-0.0001,0.0054,0.0025,-24.45,-30.0375,7.2375,,adl
1.556974,-0.0031,-0.0153,0.092,-0.0001,0.0054,0.0025,-24.45,-30.0375,7.2375,,adl
1.557721,-0.0031,-0.0153,0.092,-0.0001,0.0054,0.0025,-24.5438,-30.3375,7.3313,,adl
1.574853,-0.0102,0.0178,0.0918,-0.0001,0.0054,0.0025,-24.5438,-30.3375,7.3313,,adl
1.581156,-0.0102,0.0178,0.0918,-0.0001,0.0054,0.0025,-24.5438,-30.3375,7.3313,,adl
1.593376,0.0347,0.0164,0.0277,-0.0001,0.0054,0.0025,-24.5438,-30.3375,7.3313,,adl
1.612846,0.0064,0.0076,-0.0301,-0.0001,0.0054,0.0025,-24.5438,-30.3375,7.3313,,adl
1.616866,0.0064,0.0076,-0.0301,0.0059,-0.0349,-0.0036,-24.5438,-30.3375,7.3313,,adl
1.617692,0.0064,0.0076,-0.0301,0.0059,-0.0349,-0.0036,-24.225,-30.7313,7.0125,,adl
1.626461,0.0064,0.0076,-0.0301,0.0059,-0.0349,-0.0036,-24.225,-30.7313,7.0125,,adl
1.631677,0.0511,0.0116,-0.1106,0.0059,-0.0349,-0.0036,-24.225,-30.7313,7.0125,,adl
1.650923,0.0559,0.0047,-0.1154,0.0059,-0.0349,-0.0036,-24.225,-30.7313,7.0125,,adl
1.67093,0.0429,-0.0055,-0.0448,0.0059,-0.0349,-0.0036,-24.225,-30.7313,7.0125,,adl
1.674203,0.0429,-0.0055,-0.0448,0.0059,-0.0349,-0.0036,-24.225,-30.7313,7.0125,,adl
1.678746,0.0429,-0.0055,-0.0448,0.0059,-0.0349,-0.0036,-24.225,-30.5438,7.2188,,adl
1.679974,0.0429,-0.0055,-0.0448,-0.0076,0.0274,0.0074,-24.225,-30.5438,7.2188,,adl
1.689699,0.0099,-0.0035,0.036,-0.0076,0.0274,0.0074,-24.225,-30.5438,7.2188,,adl
1.708408,0.0219,-0.0164,0.0741,-0.0076,0.0274,0.0074,-24.225,-30.5438,7.2188,,adl
1.721593,0.0219,-0.0164,0.0741,-0.0076,0.0274,0.0074,-24.225,-30.5438,7.2188,,adl
1.72792,0.0224,-0.0182,0.0495,-0.0076,0.0274,0.0074,-24.225,-30.5438,7.2188,,adl
1.737125,0.0224,-0.0182,0.0495,-0.0076,0.0274,0.0074,-24.525,-30.5438,7.4438,,adl
1.7411,0.0224,-0.0182,0.0495,-0.0001,-0.0177,-0.0011,-24.525,-30.5438,7.4438,,adl
1.746633,0.025,-0.0134,0.0206,-0.0001,-0.0177,-0.0011,-24.525,-30.5438,7.4438,,adl
1.766326,0.0459,0.0026,-0.0243,-0.0001,-0.0177,-0.0011,-24.525,-30.5438,7.4438,,adl
1.769607,0.0459,0.0026,-0.0243,-0.0001,-0.0177,-0.0011,-24.525,-30.5438,7.4438,,adl
1.785411,0.0421,0.0066,-0.0924,-0.0001,-0.0177,-0.0011,-24.525,-30.5438,7.4438,,adl
1.797543,0.0421,0.0066,-0.0924,-0.0001,-0.0177,-0.0011,-24.7313,-30.3188,7.125,,adl
1.802572,0.0421,0.0066,-0.0924,-0.0001,0.0054,0.0012,-24.7313,-30.3188,7.125,,adl
1.803737,0.0402,-0.0034,-0.0739,-0.0001,0.0054,0.0012,-24.7313,-30.3188,7.125,,adl
1.817345,0.0402,-0.0034,-0.0739,-0.0001,0.0054,0.0012,-24.7313,-30.3188,7.125,,adl
1.822774,0.0286,0.0117,-0.0169,-0.0001,0.0054,0.0012,-24.7313,-30.3188,7.125,,adl
1.844035,0.0488,0.003,0.0059,-0.0001,0.0054,0.0012,-24.7313,-30.3188,7.125,,adl
1.857631,0.0488,0.003,0.0059,-0.0001,0.0054,0.0012,-24.4313,-30.4313,7.125,,adl
1.86171,0.0516,0.0109,0.0221,-0.0001,0.0054,0.0012,-24.4313,-30.4313,7.125,,adl
1.867952,0.0516,0.0109,0.0221,-0.0001,0.0054,0.0012,-24.4313,-30.4313,7.125,,adl
1.869381,0.0516,0.0109,0.0221,-0.0026,0.0018,0.0012,-24.4313,-30.4313,7.125,,adl
1.88003,0.0416,-0.0101,0.0201,-0.0026,0.0018,0.0012,-24.4313,-30.4313,7.125,,adl
1.899693,0.0685,0.0139,-0.0068,-0.0026,0.0018,0.0012,-24.4313,-30.4313,7.125,,adl
1.913258,0.0685,0.0139,-0.0068,-0.0026,0.0018,0.0012,-24.4313,-30.4313,7.125,,adl
1.917471,0.0685,0.0139,-0.0068,-0.0026,0.0018,0.0012,-24.45,-30.15,7.5375,,adl
1.918321,0.0563,0.0058,-0.0738,-0.0026,0.0018,0.0012,-24.45,-30.15,7.5375,,adl
1.927375,0.0563,0.0058,-0.0738,0.0023,-0.0032,-0.0011,-24.45,-30.15,7.5375,,adl
1.938274,0.0306,0.008,-0.0698,0.0023,-0.0032,-0.0011,-24.45,-30.15,7.5375,,adl
1.956734,0.0514,-0.0055,-0.0355,0.0023,-0.0032,-0.0011,-24.45,-30.15,7.5375,,adl
1.961086,0.0514,-0.0055,-0.0355,0.0023,-0.0032,-0.0011,-24.45,-30.15,7.5375,,adl
1.976476,0.0626,0.0033,0.0134,0.0023,-0.0032,-0.0011,-24.45,-30.15,7.5375,,adl
1.977769,0.0626,0.0033,0.0134,0.0023,-0.0032,-0.0011,-24.525,-30.3188,6.9188,,adl
1.99028,0.0626,0.0033,0.0134,-0.0014,-0.0019,0.0025,-24.525,-30.3188,6.9188,,adl
1.995414,0.0515,0.0044,0.0032,-0.0014,-0.0019,0.0025,-24.525,-30.3188,6.9188,,adl
2.008798,0.0515,0.0044,0.0032,-0.0014,-0.0019,0.0025,-24.525,-30.3188,6.9188,,adl
2.014823,0.0635,0.0096,0.0487,-0.0014,-0.0019,0.0025,-24.525,-30.3188,6.9188,,adl
2.033704,0.0428,0.0071,-0.0502,-0.0014,-0.0019,0.0025,-24.525,-30.3188,6.9188,,adl
2.037212,0.0428,0.0071,-0.0502,-0.0014,-0.0019,0.0025,-23.85,-30.4688,7.5188,,adl
2.052063,0.0428,0.0071,-0.0502,-0.0001,-0.0227,-0.0011,-23.85,-30.4688,7.5188,,adl
2.055406,0.0334,0.0284,-0.0382,-0.0001,-0.0227,-0.0011,-23.85,-30.4688,7.5188,,adl
2.057631,0.0334,0.0284,-0.0382,-0.0001,-0.0227,-0.0011,-23.85,-30.4688,7.5188,,adl
2.071827,0.0476,0.038,-0.0499,-0.0001,-0.0227,-0.0011,-23.85,-30.4688,7.5188,,adl
2.090954,0.0458,0.0431,-0.0597,-0.0001,-0.0227,-0.0011,-23.85,-30.4688,7.5188,,adl
2.096846,0.0458,0.0431,-0.0597,-0.0001,-0.0227,-0.0011,-24.3563,-30.2625,7.65,,adl
2.104379,0.0458,0.0431,-0.0597,-0.0001,-0.0227,-0.0011,-24.3563,-30.2625,7.65,,adl
2.110955,0.0922,-0.0317,-0.0841,-0.0001,-0.0227,-0.0011,-24.3563,-30.2625,7.65,,adl
2.113707,0.0922,-0.0317,-0.0841,-0.0063,-0.008,0.0037,-24.3563,-30.2625,7.65,,adl
2.128912,0.0554,-0.0407,-0.0393,-0.0063,-0.008,0.0037,-24.3563,-30.2625,7.65,,adl
2.148194,0.0684,-0.0077,0.0007,-0.0063,-0.008,0.0037,-24.3563,-30.2625,7.65,,adl
2.151781,0.0684,-0.0077,0.0007,-0.0063,-0.008,0.0037,-24.3563,-30.2625,7.65,,adl
2.157622,0.0684,-0.0077,0.0007,-0.0063,-0.008,0.0037,-24.3375,-30.4125,6.9188,,adl
2.167098,0.0409,-0.0113,0.0284,-0.0063,-0.008,0.0037,-24.3375,-30.4125,6.9188,,adl
2.176502,0.0409,-0.0113,0.0284,-0.0014,-0.0117,-0.0023,-24.3375,-30.4125,6.9188,,adl
2.18641,0.0521,0.0341,-0.0163,-0.0014,-0.0117,-0.0023,-24.3375,-30.4125,6.9188,,adl
2.19997,0.0521,0.0341,-0.0163,-0.0014,-0.0117,-0.0023,-24.3375,-30.4125,6.9188,,adl
2.206897,0.0294,0.0386,-0.0126,-0.0014,-0.0117,-0.0023,-24.3375,-30.4125,6.9188,,adl
2.217636,0.0294,0.0386,-0.0126,-0.0014,-0.0117,-0.0023,-23.9625,-30.1688,7.425,,adl
2.225116,0.0573,-0.001,-0.0259,-0.0014,-0.0117,-0.0023,-23.9625,-30.1688,7.425,,adl
2.238207,0.0573,-0.001,-0.0259,-0.0001,-0.0104,0.0001,-23.9625,-30.1688,7.425,,adl
2.245692,0.0918,0.0139,-0.0529,-0.0001,-0.0104,0.0001,-23.9625,-30.1688,7.425,,adl
2.248475,0.0918,0.0139,-0.0529,-0.0001,-0.0104,0.0001,-23.9625,-30.1688,7.425,,adl
2.263122,0.0717,0.0158,-0.0736,-0.0001,-0.0104,0.0001,-23.9625,-30.1688,7.425,,adl
2.278077,0.0717,0.0158,-0.0736,-0.0001,-0.0104,0.0001,-24.2438,-30.3188,6.8063,,adl
2.282795,0.0702,0.037,-0.0651,-0.0001,-0.0104,0.0001,-24.2438,-30.3188,6.8063,,adl
2.295422,0.0702,0.037,-0.0651,-0.0001,-0.0104,0.0001,-24.2438,-30.3188,6.8063,,adl
2.301521,0.0702,0.037,-0.0651,0.0011,0.0151,0.0049,-24.2438,-30.3188,6.8063,,adl
2.304377,0.0639,0.006,-0.0277,0.0011,0.0151,0.0049,-24.2438,-30.3188,6.8063,,adl
2.320081,0.0819,-0.0272,0.0045,0.0011,0.0151,0.0049,-24.2438,-30.3188,6.8063,,adl
2.336369,0.0819,-0.0272,0.0045,0.0011,0.0151,0.0049,-24.3375,-30.3188,7.0125,,adl
2.339814,0.0325,-0.0183,0.0082,0.0011,0.0151,0.0049,-24.3375,-30.3188,7.0125,,adl
2.346105,0.0325,-0.0183,0.0082,0.0011,0.0151,0.0049,-24.3375,-30.3188,7.0125,,adl
2.358564,0.0841,-0.0026,-0.0028,0.0011,0.0151,0.0049,-24.3375,-30.3188,7.0125,,adl
2.362417,0.0841,-0.0026,-0.0028,0.0059,-0.0056,-0.0036,-24.3375,-30.3188,7.0125,,adl
2.377753,0.0559,-0.0164,-0.0156,0.0059,-0.0056,-0.0036,-24.3375,-30.3188,7.0125,,adl
2.391218,0.0559,-0.0164,-0.0156,0.0059,-0.0056,-0.0036,-24.3375,-30.3188,7.0125,,adl
2.401313,0.0536,0.0294,-0.0207,0.0059,-0.0056,-0.0036,-24.3375,-30.3188,7.0125,,adl
2.403988,0.0536,0.0294,-0.0207,0.0059,-0.0056,-0.0036,-24.225,-30.525,7.0125,,adl
2.416089,0.0195,0.0274,-0.0514,0.0059,-0.0056,-0.0036,-24.225,-30.525,7.0125,,adl
2.42401,0.0195,0.0274,-0.0514,0.0011,-0.0142,-0.0011,-24.225,-30.525,7.0125,,adl
2.435033,0.0739,-0.0069,-0.0292,0.0011,-0.0142,-0.0011,-24.225,-30.525,7.0125,,adl
2.439121,0.0739,-0.0069,-0.0292,0.0011,-0.0142,-0.0011,-24.225,-30.525,7.0125,,adl
2.454065,0.0737,0.0019,-0.0672,0.0011,-0.0142,-0.0011,-24.225,-30.525,7.0125,,adl
2.457614,0.0737,0.0019,-0.0672,0.0011,-0.0142,-0.0011,-24.15,-30.2438,7.3313,,adl
2.473518,0.0386,0.011,-0.0727,0.0011,-0.0142,-0.0011,-24.15,-30.2438,7.3313,,adl
2.488749,0.0386,0.011,-0.0727,0.0011,-0.0142,-0.0011,-24.15,-30.2438,7.3313,,adl
2.491049,0.0386,0.011,-0.0727,-0.0063,0.0078,0.0025,-24.15,-30.2438,7.3313,,adl
2.493865,0.0529,0.0044,0.0017,-0.0063,0.0078,0.0025,-24.15,-30.2438,7.3313,,adl
2.511899,0.0502,-0.0021,0.0334,-0.0063,0.0078,0.0025,-24.15,-30.2438,7.3313,,adl
2.516992,0.0502,-0.0021,0.0334,-0.0063,0.0078,0.0025,-24.5438,-30.1313,7.2375,,adl
2.531081,0.058,-0.0211,0.0402,-0.0063,0.0078,0.0025,-24.5438,-30.1313,7.2375,,adl
2.534213,0.058,-0.0211,0.0402,-0.0063,0.0078,0.0025,-24.5438,-30.1313,7.2375,,adl
2.549119,0.058,-0.0211,0.0402,0.0059,-0.019,-0.0073,-24.5438,-30.1313,7.2375,,adl
2.55017,0.0622,-0.013,-0.0024,0.0059,-0.019,-0.0073,-24.5438,-30.1313,7.2375,,adl
2.568913,0.037,0.0064,-0.0756,0.0059,-0.019,-0.0073,-24.5438,-30.1313,7.2375,,adl
2.578158,0.037,0.0064,-0.0756,0.0059,-0.019,-0.0073,-24.2438,-30.2438,7.3313,,adl
2.583983,0.037,0.0064,-0.0756,0.0059,-0.019,-0.0073,-24.2438,-30.2438,7.3313,,adl
2.588837,0.0508,0.0359,-0.099,0.0059,-0.019,-0.0073,-24.2438,-30.2438,7.3313,,adl
2.607214,0.0477,0.0003,-0.0574,0.0059,-0.019,-0.0073,-24.2438,-30.2438,7.3313,,adl
2.611481,0.0477,0.0003,-0.0574,-0.0087,0.0151,0.0062,-24.2438,-30.2438,7.3313,,adl
2.626535,0.0383,-0.0217,0.0264,-0.0087,0.0151,0.0062,-24.2438,-30.2438,7.3313,,adl
2.630285,0.0383,-0.0217,0.0264,-0.0087,0.0151,0.0062,-24.2438,-30.2438,7.3313,,adl
2.637074,0.0383,-0.0217,0.0264,-0.0087,0.0151,0.0062,-24.0375,-30.45,7.2188,,adl
2.646658,0.0547,-0.0206,0.0651,-0.0087,0.0151,0.0062,-24.0375,-30.45,7.2188,,adl
2.66423,0.0336,-0.0022,0.0357,-0.0087,0.0151,0.0062,-24.0375,-30.45,7.2188,,adl
2.67297,0.0336,-0.0022,0.0357,0.0034,-0.0142,-0.0023,-24.0375,-30.45,7.2188,,adl
2.678651,0.0336,-0.0022,0.0357,0.0034,-0.0142,-0.0023,-24.0375,-30.45,7.2188,,adl
2.683906,0.0465,0.0063,-0.0084,0.0034,-0.0142,-0.0023,-24.0375,-30.45,7.2188,,adl
2.69712,0.0465,0.0063,-0.0084,0.0034,-0.0142,-0.0023,-24.15,-30.15,7.3313,,adl
2.702974,0.0348,0.0148,-0.0423,0.0034,-0.0142,-0.0023,-24.15,-30.15,7.3313,,adl
2.722459,0.0502,-0.0047,-0.0576,0.0034,-0.0142,-0.0023,-24.15,-30.15,7.3313,,adl
2.725957,0.0502,-0.0047,-0.0576,0.0034,-0.0142,-0.0023,-24.15,-30.15,7.3313,,adl
2.734676,0.0502,-0.0047,-0.0576,-0.0001,-0.0032,0.0,-24.15,-30.15,7.3313,,adl
2.740701,0.0543,-0.0002,-0.0617,-0.0001,-0.0032,0.0,-24.15,-30.15,7.3313,,adl
2.75744,0.0543,-0.0002,-0.0617,-0.0001,-0.0032,0.0,-24.4313,-30.3563,7.4438,,adl
2.760486,0.045,0.0048,-0.05,-0.0001,-0.0032,0.0,-24.4313,-30.3563,7.4438,,adl
2.773743,0.045,0.0048,-0.05,-0.0001,-0.0032,0.0,-24.4313,-30.3563,7.4438,,adl
2.778954,0.0441,-0.0045,0.0083,-0.0001,-0.0032,0.0,-24.4313,-30.3563,7.4438,,adl
2.798243,0.0441,-0.0045,0.0083,-0.0001,0.0018,0.0,-24.4313,-30.3563,7.4438,,adl
2.800388,0.0429,0.0005,0.0022,-0.0001,0.0018,0.0,-24.4313,-30.3563,7.4438,,adl
2.817858,0.0335,0.0001,-0.0124,-0.0001,0.0018,0.0,-24.4313,-30.3563,7.4438,,adl
2.82032,0.0335,0.0001,-0.0124,-0.0001,0.0018,0.0,-24.3375,-30.525,7.125,,adl
2.822698,0.0335,0.0001,-0.0124,-0.0001,0.0018,0.0,-24.3375,-30.525,7.125,,adl
2.837492,0.0454,-0.0027,-0.0195,-0.0001,0.0018,0.0,-24.3375,-30.525,7.125,,adl
2.856411,0.0595,-0.0054,-0.0194,-0.0001,0.0018,0.0,-24.3375,-30.525,7.125,,adl
2.859532,0.0595,-0.0054,-0.0194,-0.0014,-0.0032,0.0,-24.3375,-30.525,7.125,,adl
2.868932,0.0595,-0.0054,-0.0194,-0.0014,-0.0032,0.0,-24.3375,-30.525,7.125,,adl
2.874826,0.0663,0.0037,-0.0382,-0.0014,-0.0032,0.0,-24.3375,-30.525,7.125,,adl
2.878095,0.0663,0.0037,-0.0382,-0.0014,-0.0032,0.0,-24.1313,-30.4125,6.8063,,adl
2.893946,0.0329,0.0273,-0.0002,-0.0014,-0.0032,0.0,-24.1313,-30.4125,6.8063,,adl
2.913464,0.0566,0.0245,-0.0143,-0.0014,-0.0032,0.0,-24.1313,-30.4125,6.8063,,adl
2.917597,0.0566,0.0245,-0.0143,-0.0014,-0.0032,0.0,-24.1313,-30.4125,6.8063,,adl
2.922031,0.0566,0.0245,-0.0143,0.0011,-0.0056,0.0025,-24.1313,-30.4125,6.8063,,adl
2.933756,0.0274,0.0052,-0.0354,0.0011,-0.0056,0.0025,-24.1313,-30.4125,6.8063,,adl
2.937625,0.0274,0.0052,-0.0354,0.0011,-0.0056,0.0025,-23.6625,-30.1875,7.725,,adl
2.951747,0.0885,-0.0516,-0.089,0.0011,-0.0056,0.0025,-23.6625,-30.1875,7.725,,adl
2.967334,0.0885,-0.0516,-0.089,0.0011,-0.0056,0.0025,-23.6625,-30.1875,7.725,,adl
2.970654,0.0413,-0.0377,-0.0247,0.0011,-0.0056,0.0025,-23.6625,-30.1875,7.725,,adl
2.985117,0.0413,-0.0377,-0.0247,-0.0088,0.0066,0.0,-23.6625,-30.1875,7.725,,adl
2.989562,0.0596,0.0159,0.0313,-0.0088,0.0066,0.0,-23.6625,-30.1875,7.725,,adl
2.996076,0.0596,0.0159,0.0313,-0.0088,0.0066,0.0,-24.2438,-30.1313,6.9188,,adl
3.009257,0.0334,0.0065,0.0168,-0.0088,0.0066,0.0,-24.2438,-30.1313,6.9188,,adl
3.015466,0.0334,0.0065,0.0168,-0.0088,0.0066,0.0,-24.2438,-30.1313,6.9188,,adl
3.027544,0.0132,0.0275,-0.0157,-0.0088,0.0066,0.0,-24.2438,-30.1313,6.9188,,adl
3.046975,0.0132,0.0275,-0.0157,-0.0051,-0.0069,0.0025,-24.2438,-30.1313,6.9188,,adl
3.049798,0.0363,0.0014,-0.053,-0.0051,-0.0069,0.0025,-24.2438,-30.1313,6.9188,,adl
3.057973,0.0363,0.0014,-0.053,-0.0051,-0.0069,0.0025,-24.6375,-30.2438,7.3313,,adl
3.06086,0.0363,0.0014,-0.053,-0.0051,-0.0069,0.0025,-24.6375,-30.2438,7.3313,,adl
3.067151,0.0807,-0.0338,-0.0612,-0.0051,-0.0069,0.0025,-24.6375,-30.2438,7.3313,,adl
3.085823,0.0759,-0.0117,-0.0467,-0.0051,-0.0069,0.0025,-24.6375,-30.2438,7.3313,,adl
3.104207,0.0314,0.0051,-0.0214,-0.0051,-0.0069,0.0025,-24.6375,-30.2438,7.3313,,adl
3.108082,0.0314,0.0051,-0.0214,-0.0051,-0.0069,0.0025,-24.6375,-30.2438,7.3313,,adl
3.108993,0.0314,0.0051,-0.0214,0.0022,0.0066,0.0037,-24.6375,-30.2438,7.3313,,adl
3.116928,0.0314,0.0051,-0.0214,0.0022,0.0066,0.0037,-24.3375,-30.525,7.125,,adl
3.123201,0.0207,0.0005,0.0035,0.0022,0.0066,0.0037,-24.3375,-30.525,7.125,,adl
3.144943,0.0357,0.0058,0.0054,0.0022,0.0066,0.0037,-24.3375,-30.525,7.125,,adl
3.157993,0.0357,0.0058,0.0054,0.0022,0.0066,0.0037,-24.3375,-30.525,7.125,,adl
3.161867,0.0709,-0.0248,-0.0249,0.0022,0.0066,0.0037,-24.3375,-30.525,7.125,,adl
3.170464,0.0709,-0.0248,-0.0249,-0.0038,-0.0069,-0.0023,-24.3375,-30.525,7.125,,adl
3.178734,0.0709,-0.0248,-0.0249,-0.0038,-0.0069,-0.0023,-24.4313,-30.3563,7.65,,adl
3.180445,0.0534,-0.0243,-0.0048,-0.0038,-0.0069,-0.0023,-24.4313,-30.3563,7.65,,adl
3.200768,0.0571,0.0024,-0.0011,-0.0038,-0.0069,-0.0023,-24.4313,-30.3563,7.65,,adl
3.2042,0.0571,0.0024,-0.0011,-0.0038,-0.0069,-0.0023,-24.4313,-30.3563,7.65,,adl
3.219794,0.0147,-0.0002,0.0367,-0.0038,-0.0069,-0.0023,-24.4313,-30.3563,7.65,,adl
3.234148,0.0147,-0.0002,0.0367,-0.0051,-0.0374,-0.0036,-24.4313,-30.3563,7.65,,adl
3.239286,-0.0011,0.0236,-0.0023,-0.0051,-0.0374,-0.0036,-24.4313,-30.3563,7.65,,adl
3.241601,-0.0011,0.0236,-0.0023,-0.0051,-0.0374,-0.0036,-24.3375,-30.3563,7.425,,adl
3.251388,-0.0011,0.0236,-0.0023,-0.0051,-0.0374,-0.0036,-24.3375,-30.3563,7.425,,adl
3.257009,0.0327,0.0259,0.0315,-0.0051,-0.0374,-0.0036,-24.3375,-30.3563,7.425,,adl
3.277401,0.0445,0.0051,-0.0201,-0.0051,-0.0374,-0.0036,-24.3375,-30.3563,7.425,,adl
3.294705,0.0445,0.0051,-0.0201,-0.0088,-0.0594,-0.006,-24.3375,-30.3563,7.425,,adl
3.29581,0.0935,-0.0297,-0.0607,-0.0088,-0.0594,-0.006,-24.3375,-30.3563,7.425,,adl
3.296951,0.0935,-0.0297,-0.0607,-0.0088,-0.0594,-0.006,-23.85,-30.45,7.2,,adl
3.300517,0.0935,-0.0297,-0.0607,-0.0088,-0.0594,-0.006,-23.85,-30.45,7.2,,adl
3.315116,0.0782,-0.0347,-0.0803,-0.0088,-0.0594,-0.006,-23.85,-30.45,7.2,,adl
3.334609,0.0211,-0.0101,-0.1453,-0.0088,-0.0594,-0.006,-23.85,-30.45,7.2,,adl
3.347742,0.0211,-0.0101,-0.1453,-0.0088,-0.0594,-0.006,-23.85,-30.45,7.2,,adl
3.353322,0.0791,0.0309,-0.1219,-0.0088,-0.0594,-0.006,-23.85,-30.45,7.2,,adl
3.356791,0.0791,0.0309,-0.1219,-0.0038,0.0225,0.0087,-23.85,-30.45,7.2,,adl
3.358067,0.0791,0.0309,-0.1219,-0.0038,0.0225,0.0087,-24.15,-30.45,7.3313,,adl
3.372516,0.0839,0.0036,-0.0381,-0.0038,0.0225,0.0087,-24.15,-30.45,7.3313,,adl
3.391132,0.0164,-0.0042,0.051,-0.0038,0.0225,0.0087,-24.15,-30.45,7.3313,,adl
3.394924,0.0164,-0.0042,0.051,-0.0038,0.0225,0.0087,-24.15,-30.45,7.3313,,adl
3.409993,0.0247,0.0129,0.0519,-0.0038,0.0225,0.0087,-24.15,-30.45,7.3313,,adl
3.41704,0.0247,0.0129,0.0519,-0.0038,0.0225,0.0087,-24.2438,-30.1313,7.0125,,adl
3.419287,0.0247,0.0129,0.0519,0.0059,0.0078,0.0025,-24.2438,-30.1313,7.0125,,adl
3.429007,0.0615,-0.0139,-0.021,0.0059,0.0078,0.0025,-24.2438,-30.1313,7.0125,,adl
3.44383,0.0615,-0.0139,-0.021,0.0059,0.0078,0.0025,-24.2438,-30.1313,7.0125,,adl
3.449077,0.0491,-0.0001,-0.0542,0.0059,0.0078,0.0025,-24.2438,-30.1313,7.0125,,adl
3.468446,0.0355,-0.0093,-0.0167,0.0059,0.0078,0.0025,-24.2438,-30.1313,7.0125,,adl
3.479578,0.0355,-0.0093,-0.0167,0.0059,0.0078,0.0025,-24.3375,-30.2438,7.425,,adl
3.482405,0.0355,-0.0093,-0.0167,-0.0001,0.0091,0.0025,-24.3375,-30.2438,7.425,,adl
3.486441,0.0512,-0.0254,0.0036,-0.0001,0.0091,0.0025,-24.3375,-30.2438,7.425,,adl
3.491524,0.0512,-0.0254,0.0036,-0.0001,0.0091,0.0025,-24.3375,-30.2438,7.425,,adl
3.50653,0.0631,-0.0066,-0.0108,-0.0001,0.0091,0.0025,-24.3375,-30.2438,7.425,,adl
3.525215,0.0552,0.0212,-0.0366,-0.0001,0.0091,0.0025,-24.3375,-30.2438,7.425,,adl
3.537188,0.0552,0.0212,-0.0366,-0.0001,0.0091,0.0025,-24.45,-30.2438,7.4438,,adl
3.540236,0.0552,0.0212,-0.0366,-0.0001,0.0091,0.0025,-24.45,-30.2438,7.4438,,adl
3.545224,0.0552,0.0212,-0.0366,-0.0001,-0.0007,0.0,-24.45,-30.2438,7.4438,,adl
3.546978,0.0527,-0.0054,-0.0246,-0.0001,-0.0007,0.0,-24.45,-30.2438,7.4438,,adl
3.56362,0.0545,0.0041,-0.0311,-0.0001,-0.0007,0.0,-24.45,-30.2438,7.4438,,adl
3.582634,0.0329,0.0088,-0.0238,-0.0001,-0.0007,0.0,-24.45,-30.2438,7.4438,,adl
3.58656,0.0329,0.0088,-0.0238,-0.0001,-0.0007,0.0,-24.45,-30.2438,7.4438,,adl
3.598089,0.0329,0.0088,-0.0238,-0.0001,-0.0007,0.0,-24.2438,-30.2438,7.125,,adl
3.602089,0.0451,-0.0004,-0.0192,-0.0001,-0.0007,0.0,-24.2438,-30.2438,7.125,,adl
3.605563,0.0451,-0.0004,-0.0192,-0.0001,-0.0019,0.0025,-24.2438,-30.2438,7.125,,adl
3.620477,0.0567,0.0046,-0.0284,-0.0001,-0.0019,0.0025,-24.2438,-30.2438,7.125,,adl
3.633931,0.0567,0.0046,-0.0284,-0.0001,-0.0019,0.0025,-24.2438,-30.2438,7.125,,adl
3.63977,0.0278,-0.0093,0.0006,-0.0001,-0.0019,0.0025,-24.2438,-30.2438,7.125,,adl
3.656499,0.0278,-0.0093,0.0006,-0.0001,-0.0019,0.0025,-24.15,-30.375,7.6313,,adl
3.659609,0.0656,-0.0118,-0.006,-0.0001,-0.0019,0.0025,-24.15,-30.375,7.6313,,adl
3.667358,0.0656,-0.0118,-0.006,0.0022,-0.0069,-0.0012,-24.15,-30.375,7.6313,,adl
3.678827,0.0478,0.0166,-0.0193,0.0022,-0.0069,-0.0012,-24.15,-30.375,7.6313,,adl
3.682579,0.0478,0.0166,-0.0193,0.0022,-0.0069,-0.0012,-24.15,-30.375,7.6313,,adl
3.697721,0.0584,0.0162,-0.0466,0.0022,-0.0069,-0.0012,-24.15,-30.375,7.6313,,adl
3.717155,0.0385,-0.0051,-0.0457,0.0022,-0.0069,-0.0012,-24.15,-30.375,7.6313,,adl
3.718668,0.0385,-0.0051,-0.0457,0.0022,-0.0069,-0.0012,-24.6188,-30.6563,7.7438,,adl
3.730735,0.0385,-0.0051,-0.0457,0.0022,-0.0069,-0.0012,-24.6188,-30.6563,7.7438,,adl
3.732079,0.0385,-0.0051,-0.0457,-0.0051,0.0005,0.0012,-24.6188,-30.6563,7.7438,,adl
3.735392,0.041,0.0027,0.0046,-0.0051,0.0005,0.0012,-24.6188,-30.6563,7.7438,,adl
3.75484,0.0505,-0.0281,-0.0048,-0.0051,0.0005,0.0012,-24.6188,-30.6563,7.7438,,adl
3.774578,0.0458,0.0211,0.0045,-0.0051,0.0005,0.0012,-24.6188,-30.6563,7.7438,,adl
3.777591,0.0458,0.0211,0.0045,-0.0051,0.0005,0.0012,-23.9625,-30.0563,7.425,,adl
3.7797,0.0458,0.0211,0.0045,-0.0051,0.0005,0.0012,-23.9625,-30.0563,7.425,,adl
3.792071,0.0458,0.0211,0.0045,0.0059,-0.0056,0.0,-23.9625,-30.0563,7.425,,adl
3.795437,0.0375,0.034,-0.0378,0.0059,-0.0056,0.0,-23.9625,-30.0563,7.425,,adl
3.811688,0.0321,0.0262,-0.054,0.0059,-0.0056,0.0,-23.9625,-30.0563,7.425,,adl
3.825613,0.0321,0.0262,-0.054,0.0059,-0.0056,0.0,-23.9625,-30.0563,7.425,,adl
3.831659,0.044,-0.0372,-0.0727,0.0059,-0.0056,0.0,-23.9625,-30.0563,7.425,,adl
3.843076,0.044,-0.0372,-0.0727,0.0059,-0.0056,0.0,-23.7563,-30.4688,7.3125,,adl
3.850513,0.0527,-0.0464,0.0172,0.0059,-0.0056,0.0,-23.7563,-30.4688,7.3125,,adl
3.854536,0.0527,-0.0464,0.0172,-0.0124,0.0115,0.0,-23.7563,-30.4688,7.3125,,adl
3.869807,0.0589,-0.0238,0.0686,-0.0124,0.0115,0.0,-23.7563,-30.4688,7.3125,,adl
3.873691,0.0589,-0.0238,0.0686,-0.0124,0.0115,0.0,-23.7563,-30.4688,7.3125,,adl
3.888897,0.0462,0.0135,0.0117,-0.0124,0.0115,0.0,-23.7563,-30.4688,7.3125,,adl
3.89655,0.0462,0.0135,0.0117,-0.0124,0.0115,0.0,-24.2438,-30.2625,7.6313,,adl
3.907816,0.025,0.0311,-0.0296,-0.0124,0.0115,0.0,-24.2438,-30.2625,7.6313,,adl
3.91614,0.025,0.0311,-0.0296,-0.0001,-0.0129,0.0012,-24.2438,-30.2625,7.6313,,adl
3.920834,0.025,0.0311,-0.0296,-0.0001,-0.0129,0.0012,-24.2438,-30.2625,7.6313,,adl
3.926236,0.0108,0.0145,-0.0605,-0.0001,-0.0129,0.0012,-24.2438,-30.2625,7.6313,,adl
3.945841,0.0547,-0.0127,0.0015,-0.0001,-0.0129,0.0012,-24.2438,-30.2625,7.6313,,adl
3.956386,0.0547,-0.0127,0.0015,-0.0001,-0.0129,0.0012,-23.475,-30.075,7.2,,adl
3.965222,0.0798,-0.0119,-0.0137,-0.0001,-0.0129,0.0012,-23.475,-30.075,7.2,,adl
3.969952,0.0798,-0.0119,-0.0137,-0.0001,-0.0129,0.0012,-23.475,-30.075,7.2,,adl
3.979873,0.0798,-0.0119,-0.0137,0.0071,0.0029,-0.0012,-23.475,-30.075,7.2,,adl
3.985319,0.0239,0.0253,-0.0441,0.0071,0.0029,-0.0012,-23.475,-30.075,7.2,,adl
4.003046,0.0164,0.0272,-0.0535,0.0071,0.0029,-0.0012,-23.475,-30.075,7.2,,adl
4.01708,0.0164,0.0272,-0.0535,0.0071,0.0029,-0.0012,-23.475,-30.075,7.2,,adl
4.018387,0.0164,0.0272,-0.0535,0.0071,0.0029,-0.0012,-23.9438,-30.45,7.3125,,adl
4.022621,0.027,-0.0006,-0.0017,0.0071,0.0029,-0.0012,-23.9438,-30.45,7.3125,,adl
4.041053,0.027,-0.0006,-0.0017,-0.0063,0.0066,0.0037,-23.9438,-30.45,7.3125,,adl
4.044179,0.0257,-0.0298,0.0238,-0.0063,0.0066,0.0037,-23.9438,-30.45,7.3125,,adl
4.060762,0.0551,-0.0527,0.0329,-0.0063,0.0066,0.0037,-23.9438,-30.45,7.3125,,adl
4.063774,0.0551,-0.0527,0.0329,-0.0063,0.0066,0.0037,-23.9438,-30.45,7.3125,,adl
4.076743,0.0551,-0.0527,0.0329,-0.0063,0.0066,0.0037,-24.525,-30.5438,7.3313,,adl
4.079925,0.054,0.0041,0.022,-0.0063,0.0066,0.0037,-24.525,-30.5438,7.3313,,adl
4.099382,0.032,0.0046,-0.0447,-0.0063,0.0066,0.0037,-24.525,-30.5438,7.3313,,adl
4.103134,0.032,0.0046,-0.0447,0.0034,-0.0129,-0.0048,-24.525,-30.5438,7.3313,,adl
4.114646,0.032,0.0046,-0.0447,0.0034,-0.0129,-0.0048,-24.525,-30.5438,7.3313,,adl
4.118651,0.0012,0.0299,-0.045,0.0034,-0.0129,-0.0048,-24.525,-30.5438,7.3313,,adl
4.137622,0.0359,0.0225,-0.027,0.0034,-0.0129,-0.0048,-24.525,-30.5438,7.3313,,adl
4.138986,0.0359,0.0225,-0.027,0.0034,-0.0129,-0.0048,-24.0563,-30.4875,7.8375,,adl
4.156771,0.0681,0.0225,-0.0207,0.0034,-0.0129,-0.0048,-24.0563,-30.4875,7.8375,,adl
4.159803,0.0681,0.0225,-0.0207,0.0034,-0.0129,-0.0048,-24.0563,-30.4875,7.8375,,adl
4.16478,0.0681,0.0225,-0.0207,0.0022,0.0016,0.0012,-24.0563,-30.4875,7.8375,,adl
4.175263,0.0532,0.0008,-0.0249,0.0022,0.0016,0.0012,-24.0563,-30.4875,7.8375,,adl
4.194857,0.0151,-0.0153,-0.0106,0.0022,0.0016,0.0012,-24.0563,-30.4875,7.8375,,adl
4.198133,0.0151,-0.0153,-0.0106,0.0022,0.0016,0.0012,-23.9438,-30.45,7.1063,,adl
4.207854,0.0151,-0.0153,-0.0106,0.0022,0.0016,0.0012,-23.9438,-30.45,7.1063,,adl
4.214106,0.0369,-0.0264,-0.0083,0.0022,0.0016,0.0012,-23.9438,-30.45,7.1063,,adl
4.227182,0.0369,-0.0264,-0.0083,-0.0038,0.0005,-0.0025,-23.9438,-30.45,7.1063,,adl
4.233255,0.0416,-0.014,0.0183,-0.0038,0.0005,-0.0025,-23.9438,-30.45,7.1063,,adl
4.252262,0.0596,0.0,0.0123,-0.0038,0.0005,-0.0025,-23.9438,-30.45,7.1063,,adl
4.255824,0.0596,0.0,0.0123,-0.0038,0.0005,-0.0025,-23.9438,-30.45,7.1063,,adl
4.256909,0.0596,0.0,0.0123,-0.0038,0.0005,-0.0025,-24.2625,-30.0563,7.3313,,adl
4.271668,0.0224,0.028,-0.0032,-0.0038,0.0005,-0.0025,-24.2625,-30.0563,7.3313,,adl
4.28876,0.0224,0.028,-0.0032,0.0011,-0.0056,-0.0012,-24.2625,-30.0563,7.3313,,adl
4.290052,0.0402,0.037,-0.0186,0.0011,-0.0056,-0.0012,-24.2625,-30.0563,7.3313,,adl
4.303716,0.0402,0.037,-0.0186,0.0011,-0.0056,-0.0012,-24.2625,-30.0563,7.3313,,adl
4.309671,0.0273,0.0104,-0.0392,0.0011,-0.0056,-0.0012,-24.2625,-30.0563,7.3313,,adl
4.317445,0.0273,0.0104,-0.0392,0.0011,-0.0056,-0.0012,-23.85,-30.5438,7.2,,adl
4.328685,0.0368,0.004,-0.0294,0.0011,-0.0056,-0.0012,-23.85,-30.5438,7.2,,adl
4.348361,0.0422,-0.0189,0.0205,0.0011,-0.0056,-0.0012,-23.85,-30.5438,7.2,,adl
4.351946,0.0422,-0.0189,0.0205,0.0011,-0.0056,-0.0012,-23.85,-30.5438,7.2,,adl
4.354074,0.0422,-0.0189,0.0205,-0.0026,0.0066,0.0012,-23.85,-30.5438,7.2,,adl
4.366394,0.0401,-0.0162,0.0418,-0.0026,0.0066,0.0012,-23.85,-30.5438,7.2,,adl
4.376927,0.0401,-0.0162,0.0418,-0.0026,0.0066,0.0012,-24.3375,-30.3563,7.6313,,adl
4.386004,0.032,0.0116,-0.0028,-0.0026,0.0066,0.0012,-24.3375,-30.3563,7.6313,,adl
4.402708,0.032,0.0116,-0.0028,-0.0026,0.0066,0.0012,-24.3375,-30.3563,7.6313,,adl
4.40554,0.0256,0.0153,-0.0181,-0.0026,0.0066,0.0012,-24.3375,-30.3563,7.6313,,adl
4.41329,0.0256,0.0153,-0.0181,-0.0001,-0.0069,-0.0025,-24.3375,-30.3563,7.6313,,adl
4.424777,0.0242,0.0244,-0.0382,-0.0001,-0.0069,-0.0025,-24.3375,-30.3563,7.6313,,adl
4.437282,0.0242,0.0244,-0.0382,-0.0001,-0.0069,-0.0025,-23.85,-30.3563,7.425,,adl
4.443713,0.0401,0.0102,-0.0348,-0.0001,-0.0069,-0.0025,-23.85,-30.3563,7.425,,adl
4.449461,0.0401,0.0102,-0.0348,-0.0001,-0.0069,-0.0025,-23.85,-30.3563,7.425,,adl
4.462978,0.055,-0.0105,-0.0017,-0.0001,-0.0069,-0.0025,-23.85,-30.3563,7.425,,adl
4.476032,0.055,-0.0105,-0.0017,-0.0026,0.0078,0.0012,-23.85,-30.3563,7.425,,adl
4.481647,0.0012,0.0019,0.0186,-0.0026,0.0078,0.0012,-23.85,-30.3563,7.425,,adl
4.494957,0.0012,0.0019,0.0186,-0.0026,0.0078,0.0012,-23.85,-30.3563,7.425,,adl
4.498078,0.0012,0.0019,0.0186,-0.0026,0.0078,0.0012,-23.85,-30.3563,7.3125,,adl
4.500066,0.0331,-0.0239,0.0441,-0.0026,0.0078,0.0012,-23.85,-30.3563,7.3125,,adl
4.520047,0.0138,0.0042,0.037,-0.0026,0.0078,0.0012,-23.85,-30.3563,7.3125,,adl
4.538072,0.0138,0.0042,0.037,0.0034,-0.0117,-0.0037,-23.85,-30.3563,7.3125,,adl
4.541139,0.0269,-0.0111,0.0047,0.0034,-0.0117,-0.0037,-23.85,-30.3563,7.3125,,adl
4.543174,0.0269,-0.0111,0.0047,0.0034,-0.0117,-0.0037,-23.85,-30.3563,7.3125,,adl
4.557116,0.0269,-0.0111,0.0047,0.0034,-0.0117,-0.0037,-24.15,-30.3563,7.3313,,adl
4.558531,0.0203,0.0073,-0.0343,0.0034,-0.0117,-0.0037,-24.15,-30.3563,7.3313,,adl
4.577404,0.0264,-0.0028,-0.0427,0.0034,-0.0117,-0.0037,-24.15,-30.3563,7.3313,,adl
4.591799,0.0264,-0.0028,-0.0427,0.0034,-0.0117,-0.0037,-24.15,-30.3563,7.3313,,adl
4.596467,0.0311,0.0068,-0.0258,0.0034,-0.0117,-0.0037,-24.15,-30.3563,7.3313,,adl
4.601857,0.0311,0.0068,-0.0258,-0.0026,0.0041,0.0025,-24.15,-30.3563,7.3313,,adl
4.615514,0.0462,-0.0068,-0.0025,-0.0026,0.0041,0.0025,-24.15,-30.3563,7.3313,,adl
4.618926,0.0462,-0.0068,-0.0025,-0.0026,0.0041,0.0025,-24.15,-30.2438,7.2188,,adl
4.634857,0.0281,-0.0134,0.0036,-0.0026,0.0041,0.0025,-24.15,-30.2438,7.2188,,adl
4.638278,0.0281,-0.0134,0.0036,-0.0026,0.0041,0.0025,-24.15,-30.2438,7.2188,,adl
4.654477,0.0339,-0.0057,0.0098,-0.0026,0.0041,0.0025,-24.15,-30.2438,7.2188,,adl
4.66213,0.0339,-0.0057,0.0098,-0.0001,-0.0019,-0.0012,-24.15,-30.2438,7.2188,,adl
4.673242,0.0293,-0.0126,0.0145,-0.0001,-0.0019,-0.0012,-24.15,-30.2438,7.2188,,adl
4.681125,0.0293,-0.0126,0.0145,-0.0001,-0.0019,-0.0012,-24.1688,-30.075,7.6313,,adl
4.689216,0.0293,-0.0126,0.0145,-0.0001,-0.0019,-0.0012,-24.1688,-30.075,7.6313,,adl
4.691142,0.0192,0.02,0.0267,-0.0001,-0.0019,-0.0012,-24.1688,-30.075,7.6313,,adl
4.711126,0.0465,0.0211,-0.027,-0.0001,-0.0019,-0.0012,-24.1688,-30.075,7.6313,,adl
4.725065,0.0465,0.0211,-0.027,0.0034,-0.0081,0.0025,-24.1688,-30.075,7.6313,,adl
4.730201,0.033,0.0203,-0.0877,0.0034,-0.0081,0.0025,-24.1688,-30.075,7.6313,,adl
4.736463,0.033,0.0203,-0.0877,0.0034,-0.0081,0.0025,-24.1688,-30.075,7.6313,,adl
4.738133,0.033,0.0203,-0.0877,0.0034,-0.0081,0.0025,-24.3563,-30.1875,7.95,,adl
4.749029,0.0546,-0.0499,-0.0849,0.0034,-0.0081,0.0025,-24.3563,-30.1875,7.95,,adl
4.769012,0.0501,-0.0422,0.0396,0.0034,-0.0081,0.0025,-24.3563,-30.1875,7.95,,adl
4.781805,0.0501,-0.0422,0.0396,0.0034,-0.0081,0.0025,-24.3563,-30.1875,7.95,,adl
4.786174,0.0501,-0.0422,0.0396,-0.0001,0.0041,-0.0037,-24.3563,-30.1875,7.95,,adl
4.787053,0.0452,-0.0153,0.0898,-0.0001,0.0041,-0.0037,-24.3563,-30.1875,7.95,,adl
4.797274,0.0452,-0.0153,0.0898,-0.0001,0.0041,-0.0037,-24.0375,-30.6563,7.5188,,adl
4.806809,-0.0006,0.012,0.0348,-0.0001,0.0041,-0.0037,-24.0375,-30.6563,7.5188,,adl
4.825206,0.01,0.0277,-0.0142,-0.0001,0.0041,-0.0037,-24.0375,-30.6563,7.5188,,adl
4.82924,0.01,0.0277,-0.0142,-0.0001,0.0041,-0.0037,-24.0375,-30.6563,7.5188,,adl
4.845582,0.0082,-0.0032,-0.0337,-0.0001,0.0041,-0.0037,-24.0375,-30.6563,7.5188,,adl
4.848128,0.0082,-0.0032,-0.0337,-0.0088,-0.0142,0.0,-24.0375,-30.6563,7.5188,,adl
4.859782,0.0082,-0.0032,-0.0337,-0.0088,-0.0142,0.0,-24.0563,-30.1688,7.7438,,adl
4.864461,0.0639,-0.0187,0.0045,-0.0088,-0.0142,0.0,-24.0563,-30.1688,7.7438,,adl
4.878071,0.0639,-0.0187,0.0045,-0.0088,-0.0142,0.0,-24.0563,-30.1688,7.7438,,adl
4.884053,0.0858,-0.0018,-0.0338,-0.0088,-0.0142,0.0,-24.0563,-30.1688,7.7438,,adl
4.902408,0.0153,0.0283,-0.0257,-0.0088,-0.0142,0.0,-24.0563,-30.1688,7.7438,,adl
4.911829,0.0153,0.0283,-0.0257,0.0059,-0.0032,0.0025,-24.0563,-30.1688,7.7438,,adl
4.916841,0.0153,0.0283,-0.0257,0.0059,-0.0032,0.0025,-24.15,-30.0563,7.5375,,adl
4.921413,0.0098,-0.0008,-0.0705,0.0059,-0.0032,0.0025,-24.15,-30.0563,7.5375,,adl
4.926643,0.0098,-0.0008,-0.0705,0.0059,-0.0032,0.0025,-24.15,-30.0563,7.5375,,adl
4.940078,0.0176,-0.0071,-0.0135,0.0059,-0.0032,0.0025,-24.15,-30.0563,7.5375,,adl
4.959431,0.0189,-0.0336,0.055,0.0059,-0.0032,0.0025,-24.15,-30.0563,7.5375,,adl
4.973402,0.0189,-0.0336,0.055,0.0059,-0.0032,0.0025,-24.15,-30.0563,7.5375,,adl
4.976387,0.0189,-0.0336,0.055,-0.0076,-0.0032,-0.0037,-24.15,-30.0563,7.5375,,adl
4.978668,0.0189,-0.0336,0.055,-0.0076,-0.0032,-0.0037,-23.7563,-30.5625,7.4063,,adl
4.981168,0.0644,-0.042,0.0696,-0.0076,-0.0032,-0.0037,-23.7563,-30.5625,7.4063,,adl
4.998524,0.0169,-0.0141,0.0668,-0.0076,-0.0032,-0.0037,-23.7563,-30.5625,7.4063,,adl
5.017298,0.0034,-0.0161,-0.0417,-0.0076,-0.0032,-0.0037,-23.7563,-30.5625,7.4063,,adl
5.021125,0.0034,-0.0161,-0.0417,-0.0076,-0.0032,-0.0037,-23.7563,-30.5625,7.4063,,adl
5.035728,0.0034,-0.0161,-0.0417,-0.0001,-0.0264,-0.006,-23.7563,-30.5625,7.4063,,adl
5.038936,-0.0079,0.0373,-0.0423,-0.0001,-0.0264,-0.006,-23.7563,-30.5625,7.4063,,adl
5.041722,-0.0079,0.0373,-0.0423,-0.0001,-0.0264,-0.006,-24.2438,-30.2438,7.2188,,adl
5.055311,0.024,0.0273,-0.0473,-0.0001,-0.0264,-0.006,-24.2438,-30.2438,7.2188,,adl
5.069715,0.024,0.0273,-0.0473,-0.0001,-0.0264,-0.006,-24.2438,-30.2438,7.2188,,adl
5.074537,0.1348,0.0109,-0.0777,-0.0001,-0.0264,-0.006,-24.2438,-30.2438,7.2188,,adl
5.093626,0.0191,-0.0422,-0.0021,-0.0001,-0.0264,-0.006,-24.2438,-30.2438,7.2188,,adl
5.096831,0.0191,-0.0422,-0.0021,-0.0001,-0.0264,-0.006,-24.2438,-30.4875,7.95,,adl
5.097725,0.0191,-0.0422,-0.0021,-0.0063,0.0298,-0.0012,-24.2438,-30.4875,7.95,,adl
5.112722,0.0269,-0.0051,0.0188,-0.0063,0.0298,-0.0012,-24.2438,-30.4875,7.95,,adl
5.116742,0.0269,-0.0051,0.0188,-0.0063,0.0298,-0.0012,-24.2438,-30.4875,7.95,,adl
5.131468,0.0301,-0.0217,0.0346,-0.0063,0.0298,-0.0012,-24.2438,-30.4875,7.95,,adl
5.150885,-0.0203,0.0335,-0.0993,-0.0063,0.0298,-0.0012,-24.2438,-30.4875,7.95,,adl
5.157247,-0.0203,0.0335,-0.0993,-0.0063,0.0298,-0.0012,-24.45,-30.2438,7.3313,,adl
5.15879,-0.0203,0.0335,-0.0993,-0.0234,-0.0179,-0.0025,-24.45,-30.2438,7.3313,,adl
5.164714,-0.0203,0.0335,-0.0993,-0.0234,-0.0179,-0.0025,-24.45,-30.2438,7.3313,,adl
5.169928,0.0333,-0.0247,0.0344,-0.0234,-0.0179,-0.0025,-24.45,-30.2438,7.3313,,adl
5.189724,0.0413,-0.0029,0.048,-0.0234,-0.0179,-0.0025,-24.45,-30.2438,7.3313,,adl
5.208852,0.0487,-0.0043,0.0022,-0.0234,-0.0179,-0.0025,-24.45,-30.2438,7.3313,,adl
5.211733,0.0487,-0.0043,0.0022,-0.0234,-0.0179,-0.0025,-24.45,-30.2438,7.3313,,adl
5.217953,0.0487,-0.0043,0.0022,-0.0234,-0.0179,-0.0025,-24.825,-30.525,7.35,,adl
5.221826,0.0487,-0.0043,0.0022,0.0047,-0.0129,-0.0085,-24.825,-30.525,7.35,,adl
5.227346,0.027,0.0132,-0.0576,0.0047,-0.0129,-0.0085,-24.825,-30.525,7.35,,adl
5.248121,0.0144,0.0176,-0.045,0.0047,-0.0129,-0.0085,-24.825,-30.525,7.35,,adl
5.26004,0.0144,0.0176,-0.045,0.0047,-0.0129,-0.0085,-24.825,-30.525,7.35,,adl
5.265898,0.0436,-0.0201,-0.0238,0.0047,-0.0129,-0.0085,-24.825,-30.525,7.35,,adl
5.277326,0.0436,-0.0201,-0.0238,0.0047,-0.0129,-0.0085,-24.0375,-30.5438,7.2188,,adl
5.283615,0.0436,-0.0201,-0.0238,-0.0026,0.0016,-0.0012,-24.0375,-30.5438,7.2188,,adl
5.28451,0.0204,-0.0076,0.0114,-0.0026,0.0016,-0.0012,-24.0375,-30.5438,7.2188,,adl
5.303808,0.0304,0.0037,-0.0012,-0.0026,0.0016,-0.0012,-24.0375,-30.5438,7.2188,,adl
5.307919,0.0304,0.0037,-0.0012,-0.0026,0.0016,-0.0012,-24.0375,-30.5438,7.2188,,adl
5.323147,0.0136,-0.002,-0.011,-0.0026,0.0016,-0.0012,-24.0375,-30.5438,7.2188,,adl
5.338482,0.0136,-0.002,-0.011,-0.0026,0.0016,-0.0012,-23.8313,-30.7688,7.4063,,adl
5.342283,0.0042,0.0096,-0.0089,-0.0026,0.0016,-0.0012,-23.8313,-30.7688,7.4063,,adl
5.346842,0.0042,0.0096,-0.0089,-0.0026,-0.0032,-0.0012,-23.8313,-30.7688,7.4063,,adl
5.355581,0.0042,0.0096,-0.0089,-0.0026,-0.0032,-0.0012,-23.8313,-30.7688,7.4063,,adl
5.360911,0.0306,-0.0071,0.0006,-0.0026,-0.0032,-0.0012,-23.8313,-30.7688,7.4063,,adl
5.38005,0.0399,-0.0193,-0.0231,-0.0026,-0.0032,-0.0012,-23.8313,-30.7688,7.4063,,adl
5.397648,0.0399,-0.0193,-0.0231,-0.0026,-0.0032,-0.0012,-24.6375,-30.3563,7.65,,adl
5.400772,0.0276,-0.0198,-0.0132,-0.0026,-0.0032,-0.0012,-24.6375,-30.3563,7.65,,adl
5.403774,0.0276,-0.0198,-0.0132,-0.0026,-0.0032,-0.0012,-24.6375,-30.3563,7.65,,adl
5.408316,0.0276,-0.0198,-0.0132,-0.0001,-0.0019,-0.0025,-24.6375,-30.3563,7.65,,adl
5.418586,0.0349,-0.0009,-0.0206,-0.0001,-0.0019,-0.0025,-24.6375,-30.3563,7.65,,adl
5.438711,0.0305,-0.0033,-0.0019,-0.0001,-0.0019,-0.0025,-24.6375,-30.3563,7.65,,adl
5.451645,0.0305,-0.0033,-0.0019,-0.0001,-0.0019,-0.0025,-24.6375,-30.3563,7.65,,adl
5.45779,0.0427,-0.0155,-0.0046,-0.0001,-0.0019,-0.0025,-24.6375,-30.3563,7.65,,adl
5.460202,0.0427,-0.0155,-0.0046,-0.0001,-0.0019,-0.0025,-24.15,-30.3563,7.3313,,adl
5.470409,0.0427,-0.0155,-0.0046,0.0022,-0.0032,-0.0037,-24.15,-30.3563,7.3313,,adl
5.476334,0.0257,0.0076,-0.0261,0.0022,-0.0032,-0.0037,-24.15,-30.3563,7.3313,,adl
5.495364,0.0254,0.0097,-0.0258,0.0022,-0.0032,-0.0037,-24.15,-30.3563,7.3313,,adl
5.498584,0.0254,0.0097,-0.0258,0.0022,-0.0032,-0.0037,-24.15,-30.3563,7.3313,,adl
5.51454,0.0323,0.0095,-0.0327,0.0022,-0.0032,-0.0037,-24.15,-30.3563,7.3313,,adl
5.517661,0.0323,0.0095,-0.0327,0.0022,-0.0032,-0.0037,-24.3375,-30.3938,8.0625,,adl
5.532549,0.0323,0.0095,-0.0327,-0.0038,-0.0032,-0.0,-24.3375,-30.3938,8.0625,,adl
5.53542,0.0396,0.0003,-0.0328,-0.0038,-0.0032,-0.0,-24.3375,-30.3938,8.0625,,adl
5.547069,0.0396,0.0003,-0.0328,-0.0038,-0.0032,-0.0,-24.3375,-30.3938,8.0625,,adl
5.552789,0.0567,-0.0281,-0.0354,-0.0038,-0.0032,-0.0,-24.3375,-30.3938,8.0625,,adl
5.572561,0.0241,-0.0233,-0.0077,-0.0038,-0.0032,-0.0,-24.3375,-30.3938,8.0625,,adl
5.578407,0.0241,-0.0233,-0.0077,-0.0038,-0.0032,-0.0,-24.225,-30.75,7.5375,,adl
5.591556,0.0199,0.0152,0.0348,-0.0038,-0.0032,-0.0,-24.225,-30.75,7.5375,,adl
5.594705,0.0199,0.0152,0.0348,-0.0038,-0.0032,-0.0,-24.225,-30.75,7.5375,,adl
5.595577,0.0199,0.0152,0.0348,-0.0026,-0.0032,-0.0,-24.225,-30.75,7.5375,,adl
5.609815,0.0411,0.0197,0.0374,-0.0026,-0.0032,-0.0,-24.225,-30.75,7.5375,,adl
5.629233,0.0296,-0.0123,-0.0683,-0.0026,-0.0032,-0.0,-24.225,-30.75,7.5375,,adl
5.637202,0.0296,-0.0123,-0.0683,-0.0026,-0.0032,-0.0,-23.7563,-30.4688,7.6313,,adl
5.642318,0.0296,-0.0123,-0.0683,-0.0026,-0.0032,-0.0,-23.7563,-30.4688,7.6313,,adl
5.648181,0.0402,-0.0474,-0.0929,-0.0026,-0.0032,-0.0,-23.7563,-30.4688,7.6313,,adl
5.658242,0.0402,-0.0474,-0.0929,-0.01,0.0078,0.0012,-23.7563,-30.4688,7.6313,,adl
5.667694,0.0291,-0.0266,0.0166,-0.01,0.0078,0.0012,-23.7563,-30.4688,7.6313,,adl
5.686565,0.0413,0.0069,0.0139,-0.01,0.0078,0.0012,-23.7563,-30.4688,7.6313,,adl
5.690856,0.0413,0.0069,0.0139,-0.01,0.0078,0.0012,-23.7563,-30.4688,7.6313,,adl
5.696292,0.0413,0.0069,0.0139,-0.01,0.0078,0.0012,-24.15,-30.375,7.7438,,adl
5.705737,0.0166,0.0195,-0.0287,-0.01,0.0078,0.0012,-24.15,-30.375,7.7438,,adl
5.718839,0.0166,0.0195,-0.0287,-0.0001,-0.0032,0.0025,-24.15,-30.375,7.7438,,adl
5.724793,0.0042,0.0241,-0.0331,-0.0001,-0.0032,0.0025,-24.15,-30.375,7.7438,,adl
5.738725,0.0042,0.0241,-0.0331,-0.0001,-0.0032,0.0025,-24.15,-30.375,7.7438,,adl
5.743922,0.0569,-0.0174,0.0008,-0.0001,-0.0032,0.0025,-24.15,-30.375,7.7438,,adl
5.756485,0.0569,-0.0174,0.0008,-0.0001,-0.0032,0.0025,-24.2438,-30.3375,7.0125,,adl
5.763085,0.0682,-0.0213,-0.0053,-0.0001,-0.0032,0.0025,-24.2438,-30.3375,7.0125,,adl
5.781976,0.0682,-0.0213,-0.0053,0.0096,-0.0044,0.0012,-24.2438,-30.3375,7.0125,,adl
5.785274,0.029,0.0136,-0.0406,0.0096,-0.0044,0.0012,-24.2438,-30.3375,7.0125,,adl
5.787293,0.029,0.0136,-0.0406,0.0096,-0.0044,0.0012,-24.2438,-30.3375,7.0125,,adl
5.801569,0.012,0.0369,-0.0644,0.0096,-0.0044,0.0012,-24.2438,-30.3375,7.0125,,adl
5.817355,0.012,0.0369,-0.0644,0.0096,-0.0044,0.0012,-23.3813,-30.2438,8.6438,,adl
5.81939,0.0295,-0.0053,-0.0362,0.0096,-0.0044,0.0012,-23.3813,-30.2438,8.6438,,adl
5.833936,0.0295,-0.0053,-0.0362,0.0096,-0.0044,0.0012,-23.3813,-30.2438,8.6438,,adl
5.839491,0.0382,-0.0367,-0.0135,0.0096,-0.0044,0.0012,-23.3813,-30.2438,8.6438,,adl
5.843501,0.0382,-0.0367,-0.0135,-0.0076,0.0126,0.0048,-23.3813,-30.2438,8.6438,,adl
5.861187,0.0328,-0.0348,0.0544,-0.0076,0.0126,0.0048,-23.3813,-30.2438,8.6438,,adl
5.877794,0.0332,-0.027,0.0589,-0.0076,0.0126,0.0048,-23.3813,-30.2438,8.6438,,adl
5.879141,0.0332,-0.027,0.0589,-0.0076,0.0126,0.0048,-24.2438,-30.2625,7.7438,,adl
5.881378,0.0332,-0.027,0.0589,-0.0076,0.0126,0.0048,-24.2438,-30.2625,7.7438,,adl
5.897298,0.0364,-0.0115,0.0029,-0.0076,0.0126,0.0048,-24.2438,-30.2625,7.7438,,adl
5.904826,0.0364,-0.0115,0.0029,0.0059,-0.0179,-0.0062,-24.2438,-30.2625,7.7438,,adl
5.916226,0.0362,0.0253,-0.0496,0.0059,-0.0179,-0.0062,-24.2438,-30.2625,7.7438,,adl
5.929542,0.0362,0.0253,-0.0496,0.0059,-0.0179,-0.0062,-24.2438,-30.2625,7.7438,,adl
5.935866,0.0171,0.0263,-0.0473,0.0059,-0.0179,-0.0062,-24.2438,-30.2625,7.7438,,adl
5.938073,0.0171,0.0263,-0.0473,0.0059,-0.0179,-0.0062,-24.2438,-30.15,7.425,,adl
5.954154,0.0129,0.0189,-0.0597,0.0059,-0.0179,-0.0062,-24.2438,-30.15,7.425,,adl
5.970325,0.0129,0.0189,-0.0597,-0.0051,-0.0007,0.006,-24.2438,-30.15,7.425,,adl
5.974532,0.017,0.001,-0.0538,-0.0051,-0.0007,0.006,-24.2438,-30.15,7.425,,adl
5.977628,0.017,0.001,-0.0538,-0.0051,-0.0007,0.006,-24.2438,-30.15,7.425,,adl
5.992498,0.0625,-0.0374,-0.0222,-0.0051,-0.0007,0.006,-24.2438,-30.15,7.425,,adl
5.997623,0.0625,-0.0374,-0.0222,-0.0051,-0.0007,0.006,-24.3375,-30.45,7.425,,adl
6.011899,0.0086,-0.0337,0.0176,-0.0051,-0.0007,0.006,-24.3375,-30.45,7.425,,adl
6.024143,0.0086,-0.0337,0.0176,-0.0051,-0.0007,0.006,-24.3375,-30.45,7.425,,adl
6.029378,0.0086,-0.0337,0.0176,0.0022,-0.0044,-0.0,-24.3375,-30.45,7.425,,adl
6.030089,0.0467,0.0047,0.0155,0.0022,-0.0044,-0.0,-24.3375,-30.45,7.425,,adl
6.049873,-0.0067,0.0042,-0.0101,0.0022,-0.0044,-0.0,-24.3375,-30.45,7.425,,adl
6.057765,-0.0067,0.0042,-0.0101,0.0022,-0.0044,-0.0,-23.85,-30.375,7.725,,adl
6.068482,0.0376,-0.0031,-0.0184,0.0022,-0.0044,-0.0,-23.85,-30.375,7.725,,adl
6.072448,0.0376,-0.0031,-0.0184,0.0022,-0.0044,-0.0,-23.85,-30.375,7.725,,adl
6.087852,0.0531,-0.0057,-0.0386,0.0022,-0.0044,-0.0,-23.85,-30.375,7.725,,adl
6.092029,0.0531,-0.0057,-0.0386,0.001,-0.0044,0.0012,-23.85,-30.375,7.725,,adl
6.108079,0.0895,-0.0103,-0.0292,0.001,-0.0044,0.0012,-23.85,-30.375,7.725,,adl
6.11755,0.0895,-0.0103,-0.0292,0.001,-0.0044,0.0012,-24.4313,-30.45,7.5375,,adl
6.120097,0.0895,-0.0103,-0.0292,0.001,-0.0044,0.0012,-24.4313,-30.45,7.5375,,adl
6.125902,-0.0208,-0.0062,-0.0216,0.001,-0.0044,0.0012,-24.4313,-30.45,7.5375,,adl
6.145677,-0.0021,0.009,-0.0021,0.001,-0.0044,0.0012,-24.4313,-30.45,7.5375,,adl
6.154094,-0.0021,0.009,-0.0021,-0.0026,0.0016,0.0098,-24.4313,-30.45,7.5375,,adl
6.164768,0.0672,-0.0229,-0.004,-0.0026,0.0016,0.0098,-24.4313,-30.45,7.5375,,adl
6.167922,0.0672,-0.0229,-0.004,-0.0026,0.0016,0.0098,-24.4313,-30.45,7.5375,,adl
6.176301,0.0672,-0.0229,-0.004,-0.0026,0.0016,0.0098,-24.2438,-30.3563,7.3313,,adl
6.183875,0.0212,-0.0038,0.0158,-0.0026,0.0016,0.0098,-24.2438,-30.3563,7.3313,,adl
6.203327,0.0254,0.0077,0.0162,-0.0026,0.0016,0.0098,-24.2438,-30.3563,7.3313,,adl
6.215658,0.0254,0.0077,0.0162,-0.0026,0.0016,0.0098,-24.2438,-30.3563,7.3313,,adl
6.217327,0.0254,0.0077,0.0162,0.0047,-0.0081,0.0012,-24.2438,-30.3563,7.3313,,adl
6.221404,0.0339,-0.0046,-0.04,0.0047,-0.0081,0.0012,-24.2438,-30.3563,7.3313,,adl
6.23719,0.0339,-0.0046,-0.04,0.0047,-0.0081,0.0012,-23.6625,-30.4313,8.3438,,adl
6.241701,0.0112,0.0164,-0.0269,0.0047,-0.0081,0.0012,-23.6625,-30.4313,8.3438,,adl
6.259865,0.0272,0.0021,-0.0165,0.0047,-0.0081,0.0012,-23.6625,-30.4313,8.3438,,adl
6.26412,0.0272,0.0021,-0.0165,0.0047,-0.0081,0.0012,-23.6625,-30.4313,8.3438,,adl
6.278859,0.0272,0.0021,-0.0165,-0.0014,0.0029,0.0025,-23.6625,-30.4313,8.3438,,adl
6.282013,0.0461,-0.0141,-0.0135,-0.0014,0.0029,0.0025,-23.6625,-30.4313,8.3438,,adl
6.297212,0.0461,-0.0141,-0.0135,-0.0014,0.0029,0.0025,-23.9625,-30.3938,7.8375,,adl
6.299858,0.0195,-0.0042,0.0012,-0.0014,0.0029,0.0025,-23.9625,-30.3938,7.8375,,adl
6.312077,0.0195,-0.0042,0.0012,-0.0014,0.0029,0.0025,-23.9625,-30.3938,7.8375,,adl
6.31769,0.0216,0.0128,0.0254,-0.0014,0.0029,0.0025,-23.9625,-30.3938,7.8375,,adl
6.336733,0.0204,0.001,0.0245,-0.0014,0.0029,0.0025,-23.9625,-30.3938,7.8375,,adl
6.340505,0.0204,0.001,0.0245,-0.0038,-0.0166,-0.0,-23.9625,-30.3938,7.8375,,adl
6.356265,0.0465,-0.0179,0.0228,-0.0038,-0.0166,-0.0,-23.9625,-30.3938,7.8375,,adl
6.359435,0.0465,-0.0179,0.0228,-0.0038,-0.0166,-0.0,-23.9625,-30.075,7.7438,,adl
6.361794,0.0465,-0.0179,0.0228,-0.0038,-0.0166,-0.0,-23.9625,-30.075,7.7438,,adl
6.375016,0.0294,-0.0135,-0.0029,-0.0038,-0.0166,-0.0,-23.9625,-30.075,7.7438,,adl
6.394355,0.0578,0.0073,-0.0503,-0.0038,-0.0166,-0.0,-23.9625,-30.075,7.7438,,adl
6.40318,0.0578,0.0073,-0.0503,0.001,-0.0081,-0.0025,-23.9625,-30.075,7.7438,,adl
6.406368,0.0578,0.0073,-0.0503,0.001,-0.0081,-0.0025,-23.9625,-30.075,7.7438,,adl
6.414352,0.032,0.0044,-0.0555,0.001,-0.0081,-0.0025,-23.9625,-30.075,7.7438,,adl
6.417619,0.032,0.0044,-0.0555,0.001,-0.0081,-0.0025,-24.3375,-30.2438,7.2188,,adl
6.43237,0.0177,0.0238,-0.0052,0.001,-0.0081,-0.0025,-24.3375,-30.2438,7.2188,,adl
6.451815,0.0088,0.0294,0.0302,0.001,-0.0081,-0.0025,-24.3375,-30.2438,7.2188,,adl
6.455354,0.0088,0.0294,0.0302,0.001,-0.0081,-0.0025,-24.3375,-30.2438,7.2188,,adl
6.464441,0.0088,0.0294,0.0302,-0.0026,-0.0044,0.0036,-24.3375,-30.2438,7.2188,,adl
6.470472,0.021,0.0154,0.0156,-0.0026,-0.0044,0.0036,-24.3375,-30.2438,7.2188,,adl
6.476862,0.021,0.0154,0.0156,-0.0026,-0.0044,0.0036,-23.9438,-30.2438,7.2188,,adl
6.489875,0.0465,-0.0288,-0.0597,-0.0026,-0.0044,0.0036,-23.9438,-30.2438,7.2188,,adl
6.502898,0.0465,-0.0288,-0.0597,-0.0026,-0.0044,0.0036,-23.9438,-30.2438,7.2188,,adl
6.508831,0.0442,-0.0459,-0.0207,-0.0026,-0.0044,0.0036,-23.9438,-30.2438,7.2188,,adl
6.526915,0.0442,-0.0459,-0.0207,-0.0308,-0.0214,-0.0062,-23.9438,-30.2438,7.2188,,adl
6.529861,0.01,0.0056,-0.0768,-0.0308,-0.0214,-0.0062,-23.9438,-30.2438,7.2188,,adl
6.537902,0.01,0.0056,-0.0768,-0.0308,-0.0214,-0.0062,-23.85,-30.675,7.5188,,adl
6.54652,-0.0001,-0.0135,0.0178,-0.0308,-0.0214,-0.0062,-23.85,-30.675,7.5188,,adl
6.550716,-0.0001,-0.0135,0.0178,-0.0308,-0.0214,-0.0062,-23.85,-30.675,7.5188,,adl
6.566348,0.0091,0.0239,0.0542,-0.0308,-0.0214,-0.0062,-23.85,-30.675,7.5188,,adl
6.585452,0.0021,-0.0041,0.0275,-0.0308,-0.0214,-0.0062,-23.85,-30.675,7.5188,,adl
6.589486,0.0021,-0.0041,0.0275,-0.0026,0.0066,0.0036,-23.85,-30.675,7.5188,,adl
6.59682,0.0021,-0.0041,0.0275,-0.0026,0.0066,0.0036,-24.2438,-30.2625,7.425,,adl
6.599838,0.0021,-0.0041,0.0275,-0.0026,0.0066,0.0036,-24.2438,-30.2625,7.425,,adl
6.603477,0.0192,-0.0011,-0.0015,-0.0026,0.0066,0.0036,-24.2438,-30.2625,7.425,,adl
6.623073,0.0337,-0.0126,-0.0111,-0.0026,0.0066,0.0036,-24.2438,-30.2625,7.425,,adl
6.644026,0.0125,0.007,-0.0186,-0.0026,0.0066,0.0036,-24.2438,-30.2625,7.425,,adl
6.646241,0.0125,0.007,-0.0186,-0.0026,0.0066,0.0036,-24.2438,-30.2625,7.425,,adl
6.65157,0.0125,0.007,-0.0186,0.001,0.0016,0.0036,-24.2438,-30.2625,7.425,,adl
6.65986,0.0125,0.007,-0.0186,0.001,0.0016,0.0036,-23.85,-30.5813,7.6313,,adl
6.661892,0.0249,-0.0001,-0.0094,0.001,0.0016,0.0036,-23.85,-30.5813,7.6313,,adl
6.68082,0.037,0.0098,-0.0143,0.001,0.0016,0.0036,-23.85,-30.5813,7.6313,,adl
6.694659,0.037,0.0098,-0.0143,0.001,0.0016,0.0036,-23.85,-30.5813,7.6313,,adl
6.700404,0.047,-0.0256,-0.0123,0.001,0.0016,0.0036,-23.85,-30.5813,7.6313,,adl
6.713594,0.047,-0.0256,-0.0123,-0.0038,0.0029,0.0025,-23.85,-30.5813,7.6313,,adl
6.716392,0.047,-0.0256,-0.0123,-0.0038,0.0029,0.0025,-24.0563,-30.2438,7.2188,,adl
6.718409,0.0213,-0.0078,0.0039,-0.0038,0.0029,0.0025,-24.0563,-30.2438,7.2188,,adl
6.738285,0.0268,-0.0121,0.0272,-0.0038,0.0029,0.0025,-24.0563,-30.2438,7.2188,,adl
6.742583,0.0268,-0.0121,0.0272,-0.0038,0.0029,0.0025,-24.0563,-30.2438,7.2188,,adl
6.757648,0.0483,-0.0149,-0.0015,-0.0038,0.0029,0.0025,-24.0563,-30.2438,7.2188,,adl
6.775764,0.0483,-0.0149,-0.0015,0.0034,-0.0056,-0.0012,-24.0563,-30.2438,7.2188,,adl
6.777321,0.0096,-0.0132,-0.0037,0.0034,-0.0056,-0.0012,-24.0563,-30.2438,7.2188,,adl
6.778029,0.0096,-0.0132,-0.0037,0.0034,-0.0056,-0.0012,-24.0375,-30.5625,7.6313,,adl
6.790305,0.0096,-0.0132,-0.0037,0.0034,-0.0056,-0.0012,-24.0375,-30.5625,7.6313,,adl
6.795454,0.014,0.0315,-0.0201,0.0034,-0.0056,-0.0012,-24.0375,-30.5625,7.6313,,adl
6.815357,0.0373,-0.0087,-0.0169,0.0034,-0.0056,-0.0012,-24.0375,-30.5625,7.6313,,adl
6.834478,0.0556,-0.0083,-0.0422,0.0034,-0.0056,-0.0012,-24.0375,-30.5625,7.6313,,adl
6.838092,0.0556,-0.0083,-0.0422,0.0034,-0.0056,-0.0012,-23.8688,-30.1875,7.725,,adl
6.840074,0.0556,-0.0083,-0.0422,0.0034,-0.0056,-0.0012,-23.8688,-30.1875,7.725,,adl
6.842108,0.0556,-0.0083,-0.0422,0.001,-0.0019,0.0012,-23.8688,-30.1875,7.725,,adl
6.853135,0.0364,-0.0151,-0.0564,0.001,-0.0019,0.0012,-23.8688,-30.1875,7.725,,adl
6.872505,0.0399,-0.0193,-0.024,0.001,-0.0019,0.0012,-23.8688,-30.1875,7.725,,adl
6.885426,0.0399,-0.0193,-0.024,0.001,-0.0019,0.0012,-23.8688,-30.1875,7.725,,adl
6.89207,0.0203,-0.0237,0.0122,0.001,-0.0019,0.0012,-23.8688,-30.1875,7.725,,adl
6.896282,0.0203,-0.0237,0.0122,0.001,-0.0019,0.0012,-24.15,-30.375,7.6313,,adl
6.899356,0.0203,-0.0237,0.0122,-0.0014,0.0066,0.0012,-24.15,-30.375,7.6313,,adl
6.910685,0.0216,-0.0128,0.0152,-0.0014,0.0066,0.0012,-24.15,-30.375,7.6313,,adl
6.929589,0.0318,0.0026,0.0309,-0.0014,0.0066,0.0012,-24.15,-30.375,7.6313,,adl
6.933083,0.0318,0.0026,0.0309,-0.0014,0.0066,0.0012,-24.15,-30.375,7.6313,,adl
6.94826,0.055,-0.021,0.005,-0.0014,0.0066,0.0012,-24.15,-30.375,7.6313,,adl
6.957028,0.055,-0.021,0.005,-0.0014,0.0066,0.0012,-23.85,-30.5813,7.725,,adl
6.962258,0.055,-0.021,0.005,0.0071,-0.0154,-0.0037,-23.85,-30.5813,7.725,,adl
6.969839,0.0314,-0.0117,-0.0509,0.0071,-0.0154,-0.0037,-23.85,-30.5813,7.725,,adl
6.981402,0.0314,-0.0117,-0.0509,0.0071,-0.0154,-0.0037,-23.85,-30.5813,7.725,,adl
6.986779,0.0373,0.003,-0.0786,0.0071,-0.0154,-0.0037,-23.85,-30.5813,7.725,,adl
7.006323,0.0329,-0.0028,-0.0481,0.0071,-0.0154,-0.0037,-23.85,-30.5813,7.725,,adl
7.017099,0.0329,-0.0028,-0.0481,0.0071,-0.0154,-0.0037,-24.2438,-30.1688,7.5375,,adl
7.023983,0.0329,-0.0028,-0.0481,-0.0051,0.0164,0.0048,-24.2438,-30.1688,7.5375,,adl
7.025346,0.0134,-0.0126,-0.017,-0.0051,0.0164,0.0048,-24.2438,-30.1688,7.5375,,adl
7.028351,0.0134,-0.0126,-0.017,-0.0051,0.0164,0.0048,-24.2438,-30.1688,7.5375,,adl
7.045441,0.0321,-0.0202,0.0333,-0.0051,0.0164,0.0048,-24.2438,-30.1688,7.5375,,adl
7.063745,0.0523,-0.0234,0.0247,-0.0051,0.0164,0.0048,-24.2438,-30.1688,7.5375,,adl
7.076396,0.0523,-0.0234,0.0247,-0.0051,0.0164,0.0048,-24.2438,-30.1688,7.5375,,adl
7.078745,0.0523,-0.0234,0.0247,-0.0051,0.0164,0.0048,-23.6438,-30.45,7.2,,adl
7.082702,0.0399,-0.0158,0.008,-0.0051,0.0164,0.0048,-23.6438,-30.45,7.2,,adl
7.086541,0.0399,-0.0158,0.008,0.0047,-0.0117,-0.0037,-23.6438,-30.45,7.2,,adl
7.101625,0.036,-0.0181,-0.0506,0.0047,-0.0117,-0.0037,-23.6438,-30.45,7.2,,adl
7.12089,0.0279,-0.0222,-0.0644,0.0047,-0.0117,-0.0037,-23.6438,-30.45,7.2,,adl
7.124511,0.0279,-0.0222,-0.0644,0.0047,-0.0117,-0.0037,-23.6438,-30.45,7.2,,adl
7.135988,0.0279,-0.0222,-0.0644,0.0047,-0.0117,-0.0037,-24.0375,-30.4688,7.6313,,adl
7.139475,0.0305,-0.023,-0.0361,0.0047,-0.0117,-0.0037,-24.0375,-30.4688,7.6313,,adl
7.148796,0.0305,-0.023,-0.0361,-0.0038,0.0091,0.0036,-24.0375,-30.4688,7.6313,,adl
7.159312,0.0485,-0.0163,-0.0185,-0.0038,0.0091,0.0036,-24.0375,-30.4688,7.6313,,adl
7.173447,0.0485,-0.0163,-0.0185,-0.0038,0.0091,0.0036,-24.0375,-30.4688,7.6313,,adl
7.179398,0.043,-0.0338,-0.0062,-0.0038,0.0091,0.0036,-24.0375,-30.4688,7.6313,,adl
7.197431,0.039,-0.0253,-0.0002,-0.0038,0.0091,0.0036,-24.0375,-30.4688,7.6313,,adl
7.200462,0.039,-0.0253,-0.0002,-0.0038,0.0091,0.0036,-23.85,-30.5625,7.5188,,adl
7.210748,0.039,-0.0253,-0.0002,-0.0001,-0.0019,-0.0012,-23.85,-30.5625,7.5188,,adl
7.216456,0.0296,-0.0264,-0.0007,-0.0001,-0.0019,-0.0012,-23.85,-30.5625,7.5188,,adl
7.220458,0.0296,-0.0264,-0.0007,-0.0001,-0.0019,-0.0012,-23.85,-30.5625,7.5188,,adl
7.235848,0.0452,-0.0055,-0.0354,-0.0001,-0.0019,-0.0012,-23.85,-30.5625,7.5188,,adl
7.255697,0.032,-0.03,-0.0509,-0.0001,-0.0019,-0.0012,-23.85,-30.5625,7.5188,,adl
7.257352,0.032,-0.03,-0.0509,-0.0001,-0.0019,-0.0012,-24.4313,-30.5438,7.3313,,adl
7.268149,0.032,-0.03,-0.0509,-0.0001,-0.0019,-0.0012,-24.4313,-30.5438,7.3313,,adl
7.272964,0.032,-0.03,-0.0509,0.0022,0.0066,-0.0,-24.4313,-30.5438,7.3313,,adl
7.27572,0.0603,-0.0154,-0.0552,0.0022,0.0066,-0.0,-24.4313,-30.5438,7.3313,,adl
7.293045,0.0131,-0.0392,-0.0319,0.0022,0.0066,-0.0,-24.4313,-30.5438,7.3313,,adl
7.312254,0.0378,-0.034,-0.004,0.0022,0.0066,-0.0,-24.4313,-30.5438,7.3313,,adl
7.316234,0.0378,-0.034,-0.004,0.0022,0.0066,-0.0,-24.4313,-30.5438,7.3313,,adl
7.317919,0.0378,-0.034,-0.004,0.0022,0.0066,-0.0,-24.6375,-30.3188,7.125,,adl
7.331056,0.0053,-0.0075,0.0428,0.0022,0.0066,-0.0,-24.6375,-30.3188,7.125,,adl
7.334473,0.0053,-0.0075,0.0428,0.0022,0.0004,-0.0012,-24.6375,-30.3188,7.125,,adl
7.350976,0.0262,0.0181,0.0121,0.0022,0.0004,-0.0012,-24.6375,-30.3188,7.125,,adl
7.36359,0.0262,0.0181,0.0121,0.0022,0.0004,-0.0012,-24.6375,-30.3188,7.125,,adl
7.369038,0.0481,0.0075,-0.0455,0.0022,0.0004,-0.0012,-24.6375,-30.3188,7.125,,adl
7.376339,0.0481,0.0075,-0.0455,0.0022,0.0004,-0.0012,-24.2438,-30.2625,7.5375,,adl
7.389382,0.0344,-0.0661,-0.0865,0.0022,0.0004,-0.0012,-24.2438,-30.2625,7.5375,,adl
7.397289,0.0344,-0.0661,-0.0865,-0.0076,0.0054,-0.0,-24.2438,-30.2625,7.5375,,adl
7.407127,0.0514,-0.0569,-0.0025,-0.0076,0.0054,-0.0,-24.2438,-30.2625,7.5375,,adl
7.410548,0.0514,-0.0569,-0.0025,-0.0076,0.0054,-0.0,-24.2438,-30.2625,7.5375,,adl
7.426167,0.0468,-0.0281,-0.0004,-0.0076,0.0054,-0.0,-24.2438,-30.2625,7.5375,,adl
7.436927,0.0468,-0.0281,-0.0004,-0.0076,0.0054,-0.0,-24.2625,-30.075,7.6313,,adl
7.448875,0.0294,0.002,-0.0166,-0.0076,0.0054,-0.0,-24.2625,-30.075,7.6313,,adl
7.460315,0.0294,0.002,-0.0166,-0.0076,0.0054,-0.0,-24.2625,-30.075,7.6313,,adl
7.46379,0.0294,0.002,-0.0166,0.001,-0.0007,-0.0012,-24.2625,-30.075,7.6313,,adl
7.465968,-0.0189,0.0347,-0.0283,0.001,-0.0007,-0.0012,-24.2625,-30.075,7.6313,,adl
7.483846,0.0023,-0.0171,-0.0228,0.001,-0.0007,-0.0012,-24.2625,-30.075,7.6313,,adl
7.497115,0.0023,-0.0171,-0.0228,0.001,-0.0007,-0.0012,-24.525,-30.5438,7.4438,,adl
7.502997,0.0401,-0.0511,0.0117,0.001,-0.0007,-0.0012,-24.525,-30.5438,7.4438,,adl
7.506756,0.0401,-0.0511,0.0117,0.001,-0.0007,-0.0012,-24.525,-30.5438,7.4438,,adl
7.520762,0.0401,-0.0511,0.0117,0.0022,-0.0081,-0.0012,-24.525,-30.5438,7.4438,,adl
7.522063,0.0511,-0.0312,-0.0014,0.0022,-0.0081,-0.0012,-24.525,-30.5438,7.4438,,adl
7.54088,0.0376,-0.0008,-0.0454,0.0022,-0.0081,-0.0012,-24.525,-30.5438,7.4438,,adl
7.555965,0.0376,-0.0008,-0.0454,0.0022,-0.0081,-0.0012,-24.525,-30.5438,7.4438,,adl
7.559049,0.0376,-0.0008,-0.0454,0.0022,-0.0081,-0.0012,-24.4313,-30.3563,7.65,,adl
7.561095,-0.001,0.0157,-0.0402,0.0022,-0.0081,-0.0012,-24.4313,-30.3563,7.65,,adl
7.579696,0.059,-0.0426,-0.0161,0.0022,-0.0081,-0.0012,-24.4313,-30.3563,7.65,,adl
7.583599,0.059,-0.0426,-0.0161,-0.0026,0.0029,0.0036,-24.4313,-30.3563,7.65,,adl
7.599424,0.0281,-0.0367,-0.0018,-0.0026,0.0029,0.0036,-24.4313,-30.3563,7.65,,adl
7.603267,0.0281,-0.0367,-0.0018,-0.0026,0.0029,0.0036,-24.4313,-30.3563,7.65,,adl
7.617482,0.0281,-0.0367,-0.0018,-0.0026,0.0029,0.0036,-23.85,-30.4688,7.6313,,adl
7.620237,0.0308,-0.0498,0.0413,-0.0026,0.0029,0.0036,-23.85,-30.4688,7.6313,,adl
7.637124,0.0205,-0.0162,0.0326,-0.0026,0.0029,0.0036,-23.85,-30.4688,7.6313,,adl
7.647849,0.0205,-0.0162,0.0326,0.0059,-0.0166,-0.0062,-23.85,-30.4688,7.6313,,adl
7.651017,0.0205,-0.0162,0.0326,0.0059,-0.0166,-0.0062,-23.85,-30.4688,7.6313,,adl
7.656772,0.0276,-0.0079,-0.0368,0.0059,-0.0166,-0.0062,-23.85,-30.4688,7.6313,,adl
7.675763,-0.0032,0.0102,-0.0538,0.0059,-0.0166,-0.0062,-23.85,-30.4688,7.6313,,adl
7.679046,-0.0032,0.0102,-0.0538,0.0059,-0.0166,-0.0062,-24.15,-30.3375,7.2188,,adl
7.694373,0.0267,0.0318,-0.062,0.0059,-0.0166,-0.0062,-24.15,-30.3375,7.2188,,adl
7.698745,0.0267,0.0318,-0.062,0.0059,-0.0166,-0.0062,-24.15,-30.3375,7.2188,,adl
7.707288,0.0267,0.0318,-0.062,-0.0063,0.0066,0.0023,-24.15,-30.3375,7.2188,,adl
7.713244,0.0435,-0.0172,-0.0448,-0.0063,0.0066,0.0023,-24.15,-30.3375,7.2188,,adl
7.733137,0.0301,-0.0134,-0.005,-0.0063,0.0066,0.0023,-24.15,-30.3375,7.2188,,adl
7.737584,0.0301,-0.0134,-0.005,-0.0063,0.0066,0.0023,-23.6438,-30.5625,7.3125,,adl
7.749203,0.0301,-0.0134,-0.005,-0.0063,0.0066,0.0023,-23.6438,-30.5625,7.3125,,adl
7.752259,0.0265,-0.0316,0.0083,-0.0063,0.0066,0.0023,-23.6438,-30.5625,7.3125,,adl
7.770718,0.0265,-0.0316,0.0083,-0.0026,0.0029,0.0012,-23.6438,-30.5625,7.3125,,adl
7.77292,0.0009,0.0052,0.0244,-0.0026,0.0029,0.0012,-23.6438,-30.5625,7.3125,,adl
7.79091,0.0414,-0.0226,0.0368,-0.0026,0.0029,0.0012,-23.6438,-30.5625,7.3125,,adl
7.794349,0.0414,-0.0226,0.0368,-0.0026,0.0029,0.0012,-23.6438,-30.5625,7.3125,,adl
7.796344,0.0414,-0.0226,0.0368,-0.0026,0.0029,0.0012,-24.15,-30.1688,7.5375,,adl
7.80958,0.0258,-0.0198,0.0025,-0.0026,0.0029,0.0012,-24.15,-30.1688,7.5375,,adl
7.827946,0.0147,-0.0038,-0.0151,-0.0026,0.0029,0.0012,-24.15,-30.1688,7.5375,,adl
7.8315,0.0147,-0.0038,-0.0151,0.0084,-0.0117,-0.0037,-24.15,-30.1688,7.5375,,adl
7.842099,0.0147,-0.0038,-0.0151,0.0084,-0.0117,-0.0037,-24.15,-30.1688,7.5375,,adl
7.849049,0.001,0.0259,-0.0781,0.0084,-0.0117,-0.0037,-24.15,-30.1688,7.5375,,adl
7.857779,0.001,0.0259,-0.0781,0.0084,-0.0117,-0.0037,-24.525,-30.4125,7.0313,,adl
7.866695,0.0108,-0.0047,-0.0447,0.0084,-0.0117,-0.0037,-24.525,-30.4125,7.0313,,adl
7.886107,0.0292,-0.0243,0.0041,0.0084,-0.0117,-0.0037,-24.525,-30.4125,7.0313,,adl
7.889638,0.0292,-0.0243,0.0041,0.0084,-0.0117,-0.0037,-24.525,-30.4125,7.0313,,adl
7.895181,0.0292,-0.0243,0.0041,-0.0088,0.0126,0.006,-24.525,-30.4125,7.0313,,adl
7.904858,0.0171,-0.0458,0.0524,-0.0088,0.0126,0.006,-24.525,-30.4125,7.0313,,adl
7.91864,0.0171,-0.0458,0.0524,-0.0088,0.0126,0.006,-23.9438,-30.6563,7.2188,,adl
7.925272,0.0134,-0.0641,0.0561,-0.0088,0.0126,0.006,-23.9438,-30.6563,7.2188,,adl
7.938234,0.0134,-0.0641,0.0561,-0.0088,0.0126,0.006,-23.9438,-30.6563,7.2188,,adl
7.943995,0.0292,0.0018,-0.0053,-0.0088,0.0126,0.006,-23.9438,-30.6563,7.2188,,adl
7.956552,0.0292,0.0018,-0.0053,0.0084,-0.0106,-0.0049,-23.9438,-30.6563,7.2188,,adl
7.962609,0.0107,-0.0023,-0.0372,0.0084,-0.0106,-0.0049,-23.9438,-30.6563,7.2188,,adl
7.97817,0.0107,-0.0023,-0.0372,0.0084,-0.0106,-0.0049,-24.1313,-30.5625,7.6313,,adl
7.981896,0.012,0.0091,-0.0529,0.0084,-0.0106,-0.0049,-24.1313,-30.5625,7.6313,,adl
7.985258,0.012,0.0091,-0.0529,0.0084,-0.0106,-0.0049,-24.1313,-30.5625,7.6313,,adl
8.000074,0.0312,0.0001,-0.0385,0.0084,-0.0106,-0.0049,-24.1313,-30.5625,7.6313,,adl
8.0189,0.0312,0.0001,-0.0385,-0.0038,0.0091,0.0036,-24.1313,-30.5625,7.6313,,adl
8.022168,0.025,-0.025,-0.0129,-0.0038,0.0091,0.0036,-24.1313,-30.5625,7.6313,,adl
8.034579,0.025,-0.025,-0.0129,-0.0038,0.0091,0.0036,-24.1313,-30.5625,7.6313,,adl
8.037004,0.025,-0.025,-0.0129,-0.0038,0.0091,0.0036,-24.15,-30.4875,7.8375,,adl
8.038445,0.0455,-0.0286,-0.0094,-0.0038,0.0091,0.0036,-24.15,-30.4875,7.8375,,adl
8.05795,0.0372,-0.0136,0.0228,-0.0038,0.0091,0.0036,-24.15,-30.4875,7.8375,,adl
8.077484,0.0187,-0.0208,0.0197,-0.0038,0.0091,0.0036,-24.15,-30.4875,7.8375,,adl
8.080989,0.0187,-0.0208,0.0197,-0.0038,0.0091,0.0036,-24.15,-30.4875,7.8375,,adl
8.082915,0.0187,-0.0208,0.0197,0.0047,-0.0032,-0.0012,-24.15,-30.4875,7.8375,,adl
8.096215,0.0041,0.0024,-0.009,0.0047,-0.0032,-0.0012,-24.15,-30.4875,7.8375,,adl
8.099477,0.0041,0.0024,-0.009,0.0047,-0.0032,-0.0012,-24.2625,-30.0938,8.0625,,adl
8.115487,0.0294,0.0042,-0.0151,0.0047,-0.0032,-0.0012,-24.2625,-30.0938,8.0625,,adl
8.128289,0.0294,0.0042,-0.0151,0.0047,-0.0032,-0.0012,-24.2625,-30.0938,8.0625,,adl
8.13603,0.0401,0.004,-0.04,0.0047,-0.0032,-0.0012,-24.2625,-30.0938,8.0625,,adl
8.143344,0.0401,0.004,-0.04,0.0022,-0.0007,0.0012,-24.2625,-30.0938,8.0625,,adl
8.153557,0.0278,-0.022,-0.0371,0.0022,-0.0007,0.0012,-24.2625,-30.0938,8.0625,,adl
8.156366,0.0278,-0.022,-0.0371,0.0022,-0.0007,0.0012,-24.1313,-30.675,7.8375,,adl
8.177378,0.0497,-0.0259,-0.0302,0.0022,-0.0007,0.0012,-24.1313,-30.675,7.8375,,adl
8.17901,0.0497,-0.0259,-0.0302,0.0022,-0.0007,0.0012,-24.1313,-30.675,7.8375,,adl
8.193232,0.0198,-0.0317,0.0286,0.0022,-0.0007,0.0012,-24.1313,-30.675,7.8375,,adl
8.206034,0.0198,-0.0317,0.0286,-0.0026,-0.0007,-0.0,-24.1313,-30.675,7.8375,,adl
8.210093,0.0279,-0.0048,0.0756,-0.0026,-0.0007,-0.0,-24.1313,-30.675,7.8375,,adl
8.216133,0.0279,-0.0048,0.0756,-0.0026,-0.0007,-0.0,-24.0188,-30.975,7.725,,adl
8.225,0.0279,-0.0048,0.0756,-0.0026,-0.0007,-0.0,-24.0188,-30.975,7.725,,adl
8.229415,0.0093,0.0059,0.0343,-0.0026,-0.0007,-0.0,-24.0188,-30.975,7.725,,adl
8.250093,0.0034,0.0258,-0.0387,-0.0026,-0.0007,-0.0,-24.0188,-30.975,7.725,,adl
8.267397,0.0034,0.0258,-0.0387,0.0022,-0.0142,0.0025,-24.0188,-30.975,7.725,,adl
8.2704,0.05,-0.0508,-0.0992,0.0022,-0.0142,0.0025,-24.0188,-30.975,7.725,,adl
8.273462,0.05,-0.0508,-0.0992,0.0022,-0.0142,0.0025,-24.0188,-30.975,7.725,,adl
8.279381,0.05,-0.0508,-0.0992,0.0022,-0.0142,0.0025,-23.5688,-30.4875,7.8188,,adl
8.288341,-0.0085,0.003,-0.057,0.0022,-0.0142,0.0025,-23.5688,-30.4875,7.8188,,adl
8.307247,0.021,0.0137,-0.0001,0.0022,-0.0142,0.0025,-23.5688,-30.4875,7.8188,,adl
8.320109,0.021,0.0137,-0.0001,0.0022,-0.0142,0.0025,-23.5688,-30.4875,7.8188,,adl
8.32509,0.0503,-0.0093,0.0258,0.0022,-0.0142,0.0025,-23.5688,-30.4875,7.8188,,adl
8.328517,0.0503,-0.0093,0.0258,-0.0051,0.0029,0.0023,-23.5688,-30.4875,7.8188,,adl
8.336238,0.0503,-0.0093,0.0258,-0.0051,0.0029,0.0023,-22.7812,-30.5625,8.4188,,adl
8.344398,0.0195,-0.0107,0.0568,-0.0051,0.0029,0.0023,-22.7812,-30.5625,8.4188,,adl
8.364356,0.0087,-0.0054,0.032,-0.0051,0.0029,0.0023,-22.7812,-30.5625,8.4188,,adl
8.371415,0.0087,-0.0054,0.032,-0.0051,0.0029,0.0023,-22.7812,-30.5625,8.4188,,adl
8.382618,0.0421,-0.0146,-0.0034,-0.0051,0.0029,0.0023,-22.7812,-30.5625,8.4188,,adl
8.392548,0.0421,-0.0146,-0.0034,0.001,-0.0179,-0.0,-22.7812,-30.5625,8.4188,,adl
8.397973,0.0421,-0.0146,-0.0034,0.001,-0.0179,-0.0,-24.3563,-30.1313,7.2188,,adl
8.404555,0.0561,0.0208,-0.0673,0.001,-0.0179,-0.0,-24.3563,-30.1313,7.2188,,adl
8.415775,0.0561,0.0208,-0.0673,0.001,-0.0179,-0.0,-24.3563,-30.1313,7.2188,,adl
8.420863,0.0162,0.0154,-0.0896,0.001,-0.0179,-0.0,-24.3563,-30.1313,7.2188,,adl
8.440098,-0.0095,0.0133,-0.0472,0.001,-0.0179,-0.0,-24.3563,-30.1313,7.2188,,adl
8.45433,-0.0095,0.0133,-0.0472,-0.0088,0.0188,0.0098,-24.3563,-30.1313,7.2188,,adl
8.457575,-0.0095,0.0133,-0.0472,-0.0088,0.0188,0.0098,-24.225,-30.6375,7.3313,,adl
8.459309,0.031,-0.0108,-0.0013,-0.0088,0.0188,0.0098,-24.225,-30.6375,7.3313,,adl
8.46276,0.031,-0.0108,-0.0013,-0.0088,0.0188,0.0098,-24.225,-30.6375,7.3313,,adl
8.478364,0.0117,-0.0491,0.0806,-0.0088,0.0188,0.0098,-24.225,-30.6375,7.3313,,adl
8.497918,0.0171,-0.0454,0.0778,-0.0088,0.0188,0.0098,-24.225,-30.6375,7.3313,,adl
8.511814,0.0171,-0.0454,0.0778,-0.0088,0.0188,0.0098,-24.225,-30.6375,7.3313,,adl
8.515958,0.0171,-0.0454,0.0778,0.0071,-0.0203,-0.0074,-24.225,-30.6375,7.3313,,adl
8.518691,0.0177,-0.034,0.0437,0.0071,-0.0203,-0.0074,-24.225,-30.6375,7.3313,,adl
8.521363,0.0177,-0.034,0.0437,0.0071,-0.0203,-0.0074,-24.2438,-30.45,7.3313,,adl
8.536772,0.0331,-0.0005,-0.0387,0.0071,-0.0203,-0.0074,-24.2438,-30.45,7.3313,,adl
8.555427,-0.0011,0.0544,-0.0573,0.0071,-0.0203,-0.0074,-24.2438,-30.45,7.3313,,adl
8.558855,-0.0011,0.0544,-0.0573,0.0071,-0.0203,-0.0074,-24.2438,-30.45,7.3313,,adl
8.574352,-0.0166,0.0153,-0.0322,0.0071,-0.0203,-0.0074,-24.2438,-30.45,7.3313,,adl
8.577281,-0.0166,0.0153,-0.0322,0.0071,-0.0203,-0.0074,-23.9438,-30.6938,8.0438,,adl
8.578736,-0.0166,0.0153,-0.0322,-0.0026,-0.0044,0.0048,-23.9438,-30.6938,8.0438,,adl
8.593646,0.0404,-0.0266,-0.0219,-0.0026,-0.0044,0.0048,-23.9438,-30.6938,8.0438,,adl
8.607019,0.0404,-0.0266,-0.0219,-0.0026,-0.0044,0.0048,-23.9438,-30.6938,8.0438,,adl
8.612915,0.0599,-0.023,-0.0004,-0.0026,-0.0044,0.0048,-23.9438,-30.6938,8.0438,,adl
8.631724,-0.0038,0.006,-0.0062,-0.0026,-0.0044,0.0048,-23.9438,-30.6938,8.0438,,adl
8.636745,-0.0038,0.006,-0.0062,-0.0026,-0.0044,0.0048,-24.4313,-30.3563,7.65,,adl
8.640073,-0.0038,0.006,-0.0062,-0.0014,0.0078,0.0048,-24.4313,-30.3563,7.65,,adl
8.651662,-0.0073,-0.0098,0.0285,-0.0014,0.0078,0.0048,-24.4313,-30.3563,7.65,,adl
8.654851,-0.0073,-0.0098,0.0285,-0.0014,0.0078,0.0048,-24.4313,-30.3563,7.65,,adl
8.669806,0.0435,-0.0554,0.0451,-0.0014,0.0078,0.0048,-24.4313,-30.3563,7.65,,adl
8.689441,0.0575,-0.0544,0.0459,-0.0014,0.0078,0.0048,-24.4313,-30.3563,7.65,,adl
8.697162,0.0575,-0.0544,0.0459,-0.0014,0.0078,0.0048,-23.9625,-30.2625,7.5188,,adl
8.70532,0.0575,-0.0544,0.0459,-0.0014,0.0078,0.0048,-23.9625,-30.2625,7.5188,,adl
8.708256,0.0575,-0.0544,0.0459,0.0071,-0.0154,-0.0074,-23.9625,-30.2625,7.5188,,adl
8.710537,0.0269,-0.0221,0.0022,0.0071,-0.0154,-0.0074,-23.9625,-30.2625,7.5188,,adl
8.727068,0.0008,0.043,-0.0221,0.0071,-0.0154,-0.0074,-23.9625,-30.2625,7.5188,,adl
8.745967,-0.0157,0.0224,-0.0607,0.0071,-0.0154,-0.0074,-23.9625,-30.2625,7.5188,,adl
8.750452,-0.0157,0.0224,-0.0607,0.0071,-0.0154,-0.0074,-23.9625,-30.2625,7.5188,,adl
8.75713,-0.0157,0.0224,-0.0607,0.0071,-0.0154,-0.0074,-24.075,-29.9625,7.5375,,adl
8.763988,-0.0157,0.0224,-0.0607,-0.0051,-0.0032,0.0036,-24.075,-29.9625,7.5375,,adl
8.765328,0.0071,0.0037,-0.0497,-0.0051,-0.0032,0.0036,-24.075,-29.9625,7.5375,,adl
8.784838,0.0313,-0.0207,-0.0304,-0.0051,-0.0032,0.0036,-24.075,-29.9625,7.5375,,adl
8.798445,0.0313,-0.0207,-0.0304,-0.0051,-0.0032,0.0036,-24.075,-29.9625,7.5375,,adl
8.804068,0.0516,-0.0523,0.0118,-0.0051,-0.0032,0.0036,-24.075,-29.9625,7.5375,,adl
8.81735,0.0516,-0.0523,0.0118,-0.0051,-0.0032,0.0036,-23.6438,-30.7688,7.4063,,adl
8.823931,0.0285,-0.0209,0.0325,-0.0051,-0.0032,0.0036,-23.6438,-30.7688,7.4063,,adl
8.826963,0.0285,-0.0209,0.0325,0.0047,0.0029,-0.0012,-23.6438,-30.7688,7.4063,,adl
8.842657,-0.0117,0.0024,0.0174,0.0047,0.0029,-0.0012,-23.6438,-30.7688,7.4063,,adl
8.845778,-0.0117,0.0024,0.0174,0.0047,0.0029,-0.0012,-23.6438,-30.7688,7.4063,,adl
8.861131,0.0049,-0.0024,0.0104,0.0047,0.0029,-0.0012,-23.6438,-30.7688,7.4063,,adl
8.876301,0.0049,-0.0024,0.0104,0.0047,0.0029,-0.0012,-23.8688,-30.15,7.2188,,adl
8.880961,0.0238,-0.0158,0.0205,0.0047,0.0029,-0.0012,-23.8688,-30.15,7.2188,,adl
8.889074,0.0238,-0.0158,0.0205,-0.0014,-0.0093,-0.0012,-23.8688,-30.15,7.2188,,adl
8.893786,0.0238,-0.0158,0.0205,-0.0014,-0.0093,-0.0012,-23.8688,-30.15,7.2188,,adl
8.899686,0.0538,-0.0228,0.0123,-0.0014,-0.0093,-0.0012,-23.8688,-30.15,7.2188,,adl
8.918686,0.031,-0.0068,-0.0104,-0.0014,-0.0093,-0.0012,-23.8688,-30.15,7.2188,,adl
8.938013,0.0326,0.0136,-0.0385,-0.0014,-0.0093,-0.0012,-23.8688,-30.15,7.2188,,adl
8.941085,0.0326,0.0136,-0.0385,-0.0014,-0.0093,-0.0012,-24.2438,-30.45,7.425,,adl
8.943313,0.0326,0.0136,-0.0385,-0.0014,-0.0093,-0.0012,-24.2438,-30.45,7.425,,adl
8.951108,0.0326,0.0136,-0.0385,-0.0003,0.0004,-0.0012,-24.2438,-30.45,7.425,,adl
8.95675,-0.0103,0.0226,-0.0221,-0.0003,0.0004,-0.0012,-24.2438,-30.45,7.425,,adl
8.976104,0.0028,-0.0081,-0.0137,-0.0003,0.0004,-0.0012,-24.2438,-30.45,7.425,,adl
8.9895,0.0028,-0.0081,-0.0137,-0.0003,0.0004,-0.0012,-24.2438,-30.45,7.425,,adl
8.996069,0.0685,-0.0258,0.0165,-0.0003,0.0004,-0.0012,-24.2438,-30.45,7.425,,adl
8.998377,0.0685,-0.0258,0.0165,-0.0003,0.0004,-0.0012,-24.3188,-30.6375,7.3313,,adl
9.013961,0.0685,-0.0258,0.0165,0.0022,0.0004,-0.0012,-24.3188,-30.6375,7.3313,,adl
9.017079,0.0312,-0.0254,0.0346,0.0022,0.0004,-0.0012,-24.3188,-30.6375,7.3313,,adl
9.033604,0.0124,-0.0002,-0.0092,0.0022,0.0004,-0.0012,-24.3188,-30.6375,7.3313,,adl
9.036727,0.0124,-0.0002,-0.0092,0.0022,0.0004,-0.0012,-24.3188,-30.6375,7.3313,,adl
9.054162,-0.0045,0.0203,-0.0117,0.0022,0.0004,-0.0012,-24.3188,-30.6375,7.3313,,adl
9.057681,-0.0045,0.0203,-0.0117,0.0022,0.0004,-0.0012,-23.9625,-30.3,7.95,,adl
9.072008,0.0192,0.0132,-0.0329,0.0022,0.0004,-0.0012,-23.9625,-30.3,7.95,,adl
9.075496,0.0192,0.0132,-0.0329,-0.0038,-0.0007,-0.0012,-23.9625,-30.3,7.95,,adl
9.085312,0.0192,0.0132,-0.0329,-0.0038,-0.0007,-0.0012,-23.9625,-30.3,7.95,,adl
9.090592,0.0338,0.0019,0.0148,-0.0038,-0.0007,-0.0012,-23.9625,-30.3,7.95,,adl
9.110082,0.0313,-0.0242,-0.0161,-0.0038,-0.0007,-0.0012,-23.9625,-30.3,7.95,,adl
9.11709,0.0313,-0.0242,-0.0161,-0.0038,-0.0007,-0.0012,-24.3563,-30.075,7.7438,,adl
9.12921,0.0023,0.0137,-0.023,-0.0038,-0.0007,-0.0012,-24.3563,-30.075,7.7438,,adl
9.133102,0.0023,0.0137,-0.023,-0.0038,-0.0007,-0.0012,-24.3563,-30.075,7.7438,,adl
9.137817,0.0023,0.0137,-0.023,0.0034,-0.0056,0.0023,-24.3563,-30.075,7.7438,,adl
9.149198,0.0332,-0.0006,-0.0275,0.0034,-0.0056,0.0023,-24.3563,-30.075,7.7438,,adl
9.167448,0.0265,-0.059,-0.0469,0.0034,-0.0056,0.0023,-24.3563,-30.075,7.7438,,adl
9.176669,0.0265,-0.059,-0.0469,0.0034,-0.0056,0.0023,-24.6375,-30.45,7.7438,,adl
9.180805,0.0265,-0.059,-0.0469,0.0034,-0.0056,0.0023,-24.6375,-30.45,7.7438,,adl
9.187025,0.0377,0.002,0.0257,0.0034,-0.0056,0.0023,-24.6375,-30.45,7.7438,,adl
9.199724,0.0377,0.002,0.0257,-0.0003,0.0016,-0.0025,-24.6375,-30.45,7.7438,,adl
9.205672,0.0243,0.009,0.0246,-0.0003,0.0016,-0.0025,-24.6375,-30.45,7.7438,,adl
9.225066,0.0244,0.0084,0.0027,-0.0003,0.0016,-0.0025,-24.6375,-30.45,7.7438,,adl
9.229262,0.0244,0.0084,0.0027,-0.0003,0.0016,-0.0025,-24.6375,-30.45,7.7438,,adl
9.238677,0.0244,0.0084,0.0027,-0.0003,0.0016,-0.0025,-23.85,-30.2813,7.6313,,adl
9.243746,0.0198,0.0228,-0.0286,-0.0003,0.0016,-0.0025,-23.85,-30.2813,7.6313,,adl
9.262133,0.0198,0.0228,-0.0286,-0.0038,-0.0019,0.0012,-23.85,-30.2813,7.6313,,adl
9.263557,0.0337,-0.0007,-0.0256,-0.0038,-0.0019,0.0012,-23.85,-30.2813,7.6313,,adl
9.276308,0.0337,-0.0007,-0.0256,-0.0038,-0.0019,0.0012,-23.85,-30.2813,7.6313,,adl
9.282878,0.0501,-0.0169,-0.0059,-0.0038,-0.0019,0.0012,-23.85,-30.2813,7.6313,,adl
9.296528,0.0501,-0.0169,-0.0059,-0.0038,-0.0019,0.0012,-23.9438,-30.5625,7.5188,,adl
9.304025,0.0382,0.0001,-0.0011,-0.0038,-0.0019,0.0012,-23.9438,-30.5625,7.5188,,adl
9.321308,-0.0046,-0.0072,-0.0253,-0.0038,-0.0019,0.0012,-23.9438,-30.5625,7.5188,,adl
9.32571,-0.0046,-0.0072,-0.0253,-0.0038,-0.0019,0.0012,-23.9438,-30.5625,7.5188,,adl
9.327677,-0.0046,-0.0072,-0.0253,-0.0003,0.0016,0.0011,-23.9438,-30.5625,7.5188,,adl
9.338294,0.0146,0.0048,-0.0111,-0.0003,0.0016,0.0011,-23.9438,-30.5625,7.5188,,adl
9.35595,0.0146,0.0048,-0.0111,-0.0003,0.0016,0.0011,-23.3438,-30.7875,7.5,,adl
9.357547,0.0387,-0.0165,-0.0112,-0.0003,0.0016,0.0011,-23.3438,-30.7875,7.5,,adl
9.372406,0.0387,-0.0165,-0.0112,-0.0003,0.0016,0.0011,-23.3438,-30.7875,7.5,,adl
9.377623,0.0387,0.0004,-0.0087,-0.0003,0.0016,0.0011,-23.3438,-30.7875,7.5,,adl
9.387037,0.0387,0.0004,-0.0087,-0.0014,0.0029,-0.0025,-23.3438,-30.7875,7.5,,adl
9.396158,0.0364,-0.0187,-0.0065,-0.0014,0.0029,-0.0025,-23.3438,-30.7875,7.5,,adl
9.416101,0.034,-0.0188,0.0055,-0.0014,0.0029,-0.0025,-23.3438,-30.7875,7.5,,adl
9.419345,0.034,-0.0188,0.0055,-0.0014,0.0029,-0.0025,-24.15,-30.2813,7.7438,,adl
9.421722,0.034,-0.0188,0.0055,-0.0014,0.0029,-0.0025,-24.15,-30.2813,7.7438,,adl
9.434544,0.0143,-0.0126,-0.0061,-0.0014,0.0029,-0.0025,-24.15,-30.2813,7.7438,,adl
9.448513,0.0143,-0.0126,-0.0061,0.0034,-0.0044,-0.0037,-24.15,-30.2813,7.7438,,adl
9.455039,0.0253,0.0198,-0.0244,0.0034,-0.0044,-0.0037,-24.15,-30.2813,7.7438,,adl
9.467835,0.0253,0.0198,-0.0244,0.0034,-0.0044,-0.0037,-24.15,-30.2813,7.7438,,adl
9.473431,0.0366,0.0095,-0.0285,0.0034,-0.0044,-0.0037,-24.15,-30.2813,7.7438,,adl
9.477041,0.0366,0.0095,-0.0285,0.0034,-0.0044,-0.0037,-24.2438,-30.1688,7.5375,,adl
9.492053,0.0484,-0.0023,-0.0355,0.0034,-0.0044,-0.0037,-24.2438,-30.1688,7.5375,,adl
9.510974,0.0484,-0.0023,-0.0355,0.001,0.0091,0.0011,-24.2438,-30.1688,7.5375,,adl
9.514342,0.0346,-0.0071,-0.0386,0.001,0.0091,0.0011,-24.2438,-30.1688,7.5375,,adl
9.516482,0.0346,-0.0071,-0.0386,0.001,0.0091,0.0011,-24.2438,-30.1688,7.5375,,adl
9.53002,0.0118,0.0027,-0.016,0.001,0.0091,0.0011,-24.2438,-30.1688,7.5375,,adl
9.536725,0.0118,0.0027,-0.016,0.001,0.0091,0.0011,-24.0375,-30.5438,7.2188,,adl
9.550205,0.0204,-0.011,0.0066,0.001,0.0091,0.0011,-24.0375,-30.5438,7.2188,,adl
9.563093,0.0204,-0.011,0.0066,0.001,0.0091,0.0011,-24.0375,-30.5438,7.2188,,adl
9.568873,0.0234,-0.0248,0.0204,0.001,0.0091,0.0011,-24.0375,-30.5438,7.2188,,adl
9.572523,0.0234,-0.0248,0.0204,-0.0026,-0.0019,-0.0025,-24.0375,-30.5438,7.2188,,adl
9.588228,0.0302,-0.0057,0.0184,-0.0026,-0.0019,-0.0025,-24.0375,-30.5438,7.2188,,adl
9.597486,0.0302,-0.0057,0.0184,-0.0026,-0.0019,-0.0025,-23.9438,-30.375,7.5188,,adl
9.606971,0.0403,0.0175,-0.0419,-0.0026,-0.0019,-0.0025,-23.9438,-30.375,7.5188,,adl
9.610797,0.0403,0.0175,-0.0419,-0.0026,-0.0019,-0.0025,-23.9438,-30.375,7.5188,,adl
9.626228,0.0055,0.0119,-0.0453,-0.0026,-0.0019,-0.0025,-23.9438,-30.375,7.5188,,adl
9.635,0.0055,0.0119,-0.0453,-0.0026,0.0016,0.0011,-23.9438,-30.375,7.5188,,adl
9.645585,0.0078,0.0308,-0.019,-0.0026,0.0016,0.0011,-23.9438,-30.375,7.5188,,adl
9.65693,0.0078,0.0308,-0.019,-0.0026,0.0016,0.0011,-24.2438,-30.2438,7.2188,,adl
9.660662,0.0078,0.0308,-0.019,-0.0026,0.0016,0.0011,-24.2438,-30.2438,7.2188,,adl
9.66436,0.0803,0.0111,-0.0717,-0.0026,0.0016,0.0011,-24.2438,-30.2438,7.2188,,adl
9.68392,-0.007,-0.0385,0.0449,-0.0026,0.0016,0.0011,-24.2438,-30.2438,7.2188,,adl
9.698138,-0.007,-0.0385,0.0449,-0.0038,0.0188,0.011,-24.2438,-30.2438,7.2188,,adl
9.705385,0.0116,-0.0172,0.0885,-0.0038,0.0188,0.011,-24.2438,-30.2438,7.2188,,adl
9.708291,0.0116,-0.0172,0.0885,-0.0038,0.0188,0.011,-24.2438,-30.2438,7.2188,,adl
9.717135,0.0116,-0.0172,0.0885,-0.0038,0.0188,0.011,-24.1313,-30.5625,7.5375,,adl
9.72201,0.0473,-0.0562,0.0431,-0.0038,0.0188,0.011,-24.1313,-30.5625,7.5375,,adl
9.741115,0.0071,0.007,-0.0174,-0.0038,0.0188,0.011,-24.1313,-30.5625,7.5375,,adl
9.754618,0.0071,0.007,-0.0174,-0.0038,0.0188,0.011,-24.1313,-30.5625,7.5375,,adl
9.761077,0.0071,0.007,-0.0174,-0.0014,-0.0081,-0.0,-24.1313,-30.5625,7.5375,,adl
9.763923,0.0083,0.0088,-0.0065,-0.0014,-0.0081,-0.0,-24.1313,-30.5625,7.5375,,adl
9.777004,0.0083,0.0088,-0.0065,-0.0014,-0.0081,-0.0,-24.0375,-30.4688,7.5188,,adl
9.779402,0.0403,-0.0243,-0.0478,-0.0014,-0.0081,-0.0,-24.0375,-30.4688,7.5188,,adl
9.798498,0.0299,-0.0079,-0.0349,-0.0014,-0.0081,-0.0,-24.0375,-30.4688,7.5188,,adl
9.804729,0.0299,-0.0079,-0.0349,-0.0014,-0.0081,-0.0,-24.0375,-30.4688,7.5188,,adl
9.817425,0.0322,0.006,-0.0325,-0.0014,-0.0081,-0.0,-24.0375,-30.4688,7.5188,,adl
9.821244,0.0322,0.006,-0.0325,0.0034,0.0078,0.0023,-24.0375,-30.4688,7.5188,,adl
9.837004,0.0067,0.0012,-0.0168,0.0034,0.0078,0.0023,-24.0375,-30.4688,7.5188,,adl
9.840167,0.0067,0.0012,-0.0168,0.0034,0.0078,0.0023,-24.3375,-30.375,7.95,,adl
9.849752,0.0067,0.0012,-0.0168,0.0034,0.0078,0.0023,-24.3375,-30.375,7.95,,adl
9.855862,0.0178,-0.0101,0.0296,0.0034,0.0078,0.0023,-24.3375,-30.375,7.95,,adl
9.875016,0.0235,-0.0239,0.0501,0.0034,0.0078,0.0023,-24.3375,-30.375,7.95,,adl
9.883543,0.0235,-0.0239,0.0501,0.001,-0.0044,-0.0025,-24.3375,-30.375,7.95,,adl
9.893634,0.0205,-0.0101,0.0339,0.001,-0.0044,-0.0025,-24.3375,-30.375,7.95,,adl
9.896139,0.0205,-0.0101,0.0339,0.001,-0.0044,-0.0025,-24.1313,-30.7875,8.0438,,adl
9.897096,0.0205,-0.0101,0.0339,0.001,-0.0044,-0.0025,-24.1313,-30.7875,8.0438,,adl
9.914153,0.0474,-0.0065,0.0047,0.001,-0.0044,-0.0025,-24.1313,-30.7875,8.0438,,adl
9.931892,0.0398,0.0187,-0.0402,0.001,-0.0044,-0.0025,-24.1313,-30.7875,8.0438,,adl
9.945917,0.0398,0.0187,-0.0402,0.001,-0.0044,-0.0025,-24.1313,-30.7875,8.0438,,adl
9.946863,0.0398,0.0187,-0.0402,0.0022,-0.0044,-0.0025,-24.1313,-30.7875,8.0438,,adl
9.951058,0.0091,-0.0037,-0.0717,0.0022,-0.0044,-0.0025,-24.1313,-30.7875,8.0438,,adl
9.957757,0.0091,-0.0037,-0.0717,0.0022,-0.0044,-0.0025,-23.7563,-30.3563,7.1063,,adl
9.970679,0.0253,-0.0015,-0.0639,0.0022,-0.0044,-0.0025,-23.7563,-30.3563,7.1063,,adl
9.990171,0.0048,0.0063,0.0212,0.0022,-0.0044,-0.0025,-23.7563,-30.3563,7.1063,,adl
9.993331,0.0048,0.0063,0.0212,0.0022,-0.0044,-0.0025,-23.7563,-30.3563,7.1063,,adl
10.008426,0.0048,0.0063,0.0212,-0.0026,0.0054,0.0036,-23.7563,-30.3563,7.1063,,adl
10.011661,0.0083,0.0144,0.0489,-0.0026,0.0054,0.0036,-23.7563,-30.3563,7.1063,,adl
10.017468,0.0083,0.0144,0.0489,-0.0026,0.0054,0.0036,-23.9438,-30.3563,7.2188,,adl
10.027868,0.0198,0.0025,0.0327,-0.0026,0.0054,0.0036,-23.9438,-30.3563,7.2188,,adl
10.041546,0.0198,0.0025,0.0327,-0.0026,0.0054,0.0036,-23.9438,-30.3563,7.2188,,adl
10.049523,0.0182,-0.0237,-0.0253,-0.0026,0.0054,0.0036,-23.9438,-30.3563,7.2188,,adl
10.06636,0.0223,-0.0511,0.0046,-0.0026,0.0054,0.0036,-23.9438,-30.3563,7.2188,,adl
10.070843,0.0223,-0.0511,0.0046,-0.0051,0.0041,-0.0025,-23.9438,-30.3563,7.2188,,adl
10.077618,0.0223,-0.0511,0.0046,-0.0051,0.0041,-0.0025,-24.0375,-30.5625,7.6313,,adl
10.084784,0.0244,0.0137,0.0146,-0.0051,0.0041,-0.0025,-24.0375,-30.5625,7.6313,,adl
10.088757,0.0244,0.0137,0.0146,-0.0051,0.0041,-0.0025,-24.0375,-30.5625,7.6313,,adl
10.104472,0.0112,0.0031,0.0014,-0.0051,0.0041,-0.0025,-24.0375,-30.5625,7.6313,,adl
10.123996,-0.0087,0.0167,-0.0243,-0.0051,0.0041,-0.0025,-24.0375,-30.5625,7.6313,,adl
10.132169,-0.0087,0.0167,-0.0243,-0.0051,0.0016,0.0011,-24.0375,-30.5625,7.6313,,adl
10.138908,-0.0087,0.0167,-0.0243,-0.0051,0.0016,0.0011,-24.0375,-30.5625,7.6313,,adl
10.141661,-0.0087,0.0167,-0.0243,-0.0051,0.0016,0.0011,-23.9438,-30.7688,7.5188,,adl
10.142183,-0.0184,0.0029,-0.012,-0.0051,0.0016,0.0011,-23.9438,-30.7688,7.5188,,adl
10.162622,0.0319,-0.0171,0.0242,-0.0051,0.0016,0.0011,-23.9438,-30.7688,7.5188,,adl
10.180046,0.0407,-0.0096,0.0324,-0.0051,0.0016,0.0011,-23.9438,-30.7688,7.5188,,adl
10.184367,0.0407,-0.0096,0.0324,-0.0051,0.0016,0.0011,-23.9438,-30.7688,7.5188,,adl
10.195141,0.0407,-0.0096,0.0324,0.0071,-0.0069,-0.0012,-23.9438,-30.7688,7.5188,,adl
10.198232,0.0407,-0.0096,0.0324,0.0071,-0.0069,-0.0012,-24.3375,-30.3375,7.3313,,adl
10.199864,0.0202,0.0157,-0.007,0.0071,-0.0069,-0.0012,-24.3375,-30.3375,7.3313,,adl
10.218593,-0.0169,0.0363,-0.0394,0.0071,-0.0069,-0.0012,-24.3375,-30.3375,7.3313,,adl
10.232907,-0.0169,0.0363,-0.0394,0.0071,-0.0069,-0.0012,-24.3375,-30.3375,7.3313,,adl
10.238509,0.0092,0.0035,-0.027,0.0071,-0.0069,-0.0012,-24.3375,-30.3375,7.3313,,adl
10.257529,0.0092,0.0035,-0.027,-0.0063,0.0126,0.0011,-24.3375,-30.3375,7.3313,,adl
10.260461,0.0436,-0.0615,-0.0108,-0.0063,0.0126,0.0011,-24.3375,-30.3375,7.3313,,adl
10.262966,0.0436,-0.0615,-0.0108,-0.0063,0.0126,0.0011,-23.85,-30.5625,7.425,,adl
10.276171,0.0089,-0.0365,0.0911,-0.0063,0.0126,0.0011,-23.85,-30.5625,7.425,,adl
10.28146,0.0089,-0.0365,0.0911,-0.0063,0.0126,0.0011,-23.85,-30.5625,7.425,,adl
10.295766,0.0293,-0.0032,0.066,-0.0063,0.0126,0.0011,-23.85,-30.5625,7.425,,adl
10.315047,0.0077,-0.0261,0.0087,-0.0063,0.0126,0.0011,-23.85,-30.5625,7.425,,adl
10.31815,0.0077,-0.0261,0.0087,-0.0063,0.0126,0.0011,-23.85,-30.4688,7.6313,,adl
10.320187,0.0077,-0.0261,0.0087,0.0047,-0.0264,-0.0099,-23.85,-30.4688,7.6313,,adl
10.328489,0.0077,-0.0261,0.0087,0.0047,-0.0264,-0.0099,-23.85,-30.4688,7.6313,,adl
10.333826,-0.0126,0.0438,0.0554,0.0047,-0.0264,-0.0099,-23.85,-30.4688,7.6313,,adl
10.353126,0.0398,0.0017,-0.0397,0.0047,-0.0264,-0.0099,-23.85,-30.4688,7.6313,,adl
10.37214,0.0173,0.0151,-0.0551,0.0047,-0.0264,-0.0099,-23.85,-30.4688,7.6313,,adl
10.375965,0.0173,0.0151,-0.0551,0.0047,-0.0264,-0.0099,-23.85,-30.4688,7.6313,,adl
10.378201,0.0173,0.0151,-0.0551,0.0047,-0.0264,-0.0099,-23.9438,-30.3563,7.2188,,adl
10.382911,0.0173,0.0151,-0.0551,0.0034,-0.0179,0.0011,-23.9438,-30.3563,7.2188,,adl
10.39159,0.0384,0.0078,-0.0974,0.0034,-0.0179,0.0011,-23.9438,-30.3563,7.2188,,adl
10.410101,0.0191,-0.0176,-0.0443,0.0034,-0.0179,0.0011,-23.9438,-30.3563,7.2188,,adl
10.424117,0.0191,-0.0176,-0.0443,0.0034,-0.0179,0.0011,-23.9438,-30.3563,7.2188,,adl
10.429513,0.0111,-0.0134,0.0382,0.0034,-0.0179,0.0011,-23.9438,-30.3563,7.2188,,adl
10.439527,0.0111,-0.0134,0.0382,0.0034,-0.0179,0.0011,-24.1313,-30.675,7.7438,,adl
10.442186,0.0111,-0.0134,0.0382,-0.0038,0.0091,0.0011,-24.1313,-30.675,7.7438,,adl
10.450853,0.0079,-0.0127,0.0557,-0.0038,0.0091,0.0011,-24.1313,-30.675,7.7438,,adl
10.468204,-0.0087,-0.0126,0.0483,-0.0038,0.0091,0.0011,-24.1313,-30.675,7.7438,,adl
10.472094,-0.0087,-0.0126,0.0483,-0.0038,0.0091,0.0011,-24.1313,-30.675,7.7438,,adl
10.487326,0.0046,-0.0153,-0.0033,-0.0038,0.0091,0.0011,-24.1313,-30.675,7.7438,,adl
10.497158,0.0046,-0.0153,-0.0033,-0.0038,0.0091,0.0011,-24.4313,-30.45,7.425,,adl
10.505493,0.0046,-0.0153,-0.0033,0.001,-0.0081,-0.0012,-24.4313,-30.45,7.425,,adl
10.508847,-0.0086,0.0082,0.0052,0.001,-0.0081,-0.0012,-24.4313,-30.45,7.425,,adl
10.519539,-0.0086,0.0082,0.0052,0.001,-0.0081,-0.0012,-24.4313,-30.45,7.425,,adl
10.526593,0.0188,0.0029,-0.0172,0.001,-0.0081,-0.0012,-24.4313,-30.45,7.425,,adl
10.545186,-0.001,0.0147,-0.0237,0.001,-0.0081,-0.0012,-24.4313,-30.45,7.425,,adl
10.557081,-0.001,0.0147,-0.0237,0.001,-0.0081,-0.0012,-24.1313,-30.5813,7.7438,,adl
10.563318,0.0326,-0.0016,-0.0045,0.001,-0.0081,-0.0012,-24.1313,-30.5813,7.7438,,adl
10.567229,0.0326,-0.0016,-0.0045,0.001,-0.0081,-0.0012,-24.1313,-30.5813,7.7438,,adl
10.569673,0.0326,-0.0016,-0.0045,-0.0026,0.0054,0.0023,-24.1313,-30.5813,7.7438,,adl
10.582093,0.0094,-0.0127,0.0259,-0.0026,0.0054,0.0023,-24.1313,-30.5813,7.7438,,adl
10.601981,0.0244,-0.0076,0.0468,-0.0026,0.0054,0.0023,-24.1313,-30.5813,7.7438,,adl
10.617353,0.0244,-0.0076,0.0468,-0.0026,0.0054,0.0023,-24.1313,-30.5813,7.7438,,adl
10.620334,0.0244,-0.0076,0.0468,-0.0026,0.0054,0.0023,-23.9625,-30.2813,7.725,,adl
10.622731,0.0219,-0.0031,0.0325,-0.0026,0.0054,0.0023,-23.9625,-30.2813,7.725,,adl
10.628835,0.0219,-0.0031,0.0325,0.0022,-0.0069,-0.0025,-23.9625,-30.2813,7.725,,adl
10.640218,0.0041,0.0126,0.0095,0.0022,-0.0069,-0.0025,-23.9625,-30.2813,7.725,,adl
10.658361,0.0007,0.0072,-0.0278,0.0022,-0.0069,-0.0025,-23.9625,-30.2813,7.725,,adl
10.661745,0.0007,0.0072,-0.0278,0.0022,-0.0069,-0.0025,-23.9625,-30.2813,7.725,,adl
10.675737,0.0007,0.0072,-0.0278,0.0022,-0.0069,-0.0025,-21.9938,-30.7313,7.4625,,adl
10.676906,-0.0021,0.0,-0.0058,0.0022,-0.0069,-0.0025,-21.9938,-30.7313,7.4625,,adl
10.691501,-0.0021,0.0,-0.0058,-0.0026,0.0016,0.0023,-21.9938,-30.7313,7.4625,,adl
10.6962,0.0268,-0.0089,-0.001,-0.0026,0.0016,0.0023,-21.9938,-30.7313,7.4625,,adl
10.709964,0.0268,-0.0089,-0.001,-0.0026,0.0016,0.0023,-21.9938,-30.7313,7.4625,,adl
10.715699,-0.0132,-0.0252,0.0103,-0.0026,0.0016,0.0023,-21.9938,-30.7313,7.4625,,adl
10.735522,0.0067,-0.0034,0.0286,-0.0026,0.0016,0.0023,-21.9938,-30.7313,7.4625,,adl
10.736685,0.0067,-0.0034,0.0286,-0.0026,0.0016,0.0023,-23.7188,-30.6563,5.55,,adl
10.752723,0.0067,-0.0034,0.0286,0.001,-0.0032,-0.0012,-23.7188,-30.6563,5.55,,adl
10.7537,-0.005,-0.0059,0.033,0.001,-0.0032,-0.0012,-23.7188,-30.6563,5.55,,adl
10.758609,-0.005,-0.0059,0.033,0.001,-0.0032,-0.0012,-23.7188,-30.6563,5.55,,adl
10.772526,0.0231,0.0031,-0.0047,0.001,-0.0032,-0.0012,-23.7188,-30.6563,5.55,,adl
10.791819,0.0153,0.0027,-0.0208,0.001,-0.0032,-0.0012,-23.7188,-30.6563,5.55,,adl
10.79746,0.0153,0.0027,-0.0208,0.001,-0.0032,-0.0012,-22.9688,-30.4688,7.1813,,adl
10.804971,0.0153,0.0027,-0.0208,0.001,-0.0032,-0.0012,-22.9688,-30.4688,7.1813,,adl
10.810634,0.0105,-0.0021,-0.0137,0.001,-0.0032,-0.0012,-22.9688,-30.4688,7.1813,,adl
10.815507,0.0105,-0.0021,-0.0137,-0.0026,0.0029,0.0011,-22.9688,-30.4688,7.1813,,adl
10.830912,0.0016,-0.0183,0.0097,-0.0026,0.0029,0.0011,-22.9688,-30.4688,7.1813,,adl
10.850799,0.0194,0.0107,0.0397,-0.0026,0.0029,0.0011,-22.9688,-30.4688,7.1813,,adl
10.854223,0.0194,0.0107,0.0397,-0.0026,0.0029,0.0011,-22.9688,-30.4688,7.1813,,adl
10.856562,0.0194,0.0107,0.0397,-0.0026,0.0029,0.0011,-24.525,-30.75,7.5375,,adl
10.869449,0.0149,0.0148,0.0463,-0.0026,0.0029,0.0011,-24.525,-30.75,7.5375,,adl
10.878627,0.0149,0.0148,0.0463,0.0059,-0.0081,0.0011,-24.525,-30.75,7.5375,,adl
10.888737,0.0045,0.0138,-0.0008,0.0059,-0.0081,0.0011,-24.525,-30.75,7.5375,,adl
10.901372,0.0045,0.0138,-0.0008,0.0059,-0.0081,0.0011,-24.525,-30.75,7.5375,,adl
10.907171,0.0016,-0.0475,-0.0336,0.0059,-0.0081,0.0011,-24.525,-30.75,7.5375,,adl
10.917859,0.0016,-0.0475,-0.0336,0.0059,-0.0081,0.0011,-23.9438,-30.4688,7.6313,,adl
10.926143,-0.0064,-0.0309,0.0633,0.0059,-0.0081,0.0011,-23.9438,-30.4688,7.6313,,adl
10.940861,-0.0064,-0.0309,0.0633,-0.0015,0.0016,-0.0037,-23.9438,-30.4688,7.6313,,adl
10.945958,0.0449,-0.0306,0.0599,-0.0015,0.0016,-0.0037,-23.9438,-30.4688,7.6313,,adl
10.952113,0.0449,-0.0306,0.0599,-0.0015,0.0016,-0.0037,-23.9438,-30.4688,7.6313,,adl
10.966181,0.0205,0.023,0.0265,-0.0015,0.0016,-0.0037,-23.9438,-30.4688,7.6313,,adl
10.9774,0.0205,0.023,0.0265,-0.0015,0.0016,-0.0037,-23.7375,-30.6563,7.4063,,adl
10.984014,-0.0252,0.0482,0.0025,-0.0015,0.0016,-0.0037,-23.7375,-30.6563,7.4063,,adl
10.997242,-0.0252,0.0482,0.0025,-0.0015,0.0016,-0.0037,-23.7375,-30.6563,7.4063,,adl
11.002585,-0.0252,0.0482,0.0025,-0.01,0.0004,0.0036,-23.7375,-30.6563,7.4063,,adl
11.003476,0.0087,-0.0011,0.0191,-0.01,0.0004,0.0036,-23.7375,-30.6563,7.4063,,adl
11.023175,0.0404,-0.038,0.0403,-0.01,0.0004,0.0036,-23.7375,-30.6563,7.4063,,adl
11.039642,0.0404,-0.038,0.0403,-0.01,0.0004,0.0036,-23.9438,-30.5813,7.8375,,adl
11.042023,0.0263,-0.0163,0.0424,-0.01,0.0004,0.0036,-23.9438,-30.5813,7.8375,,adl
11.044348,0.0263,-0.0163,0.0424,-0.01,0.0004,0.0036,-23.9438,-30.5813,7.8375,,adl
11.061423,-0.0047,0.0213,0.0158,-0.01,0.0004,0.0036,-23.9438,-30.5813,7.8375,,adl
11.064863,-0.0047,0.0213,0.0158,0.0022,0.0004,0.0023,-23.9438,-30.5813,7.8375,,adl
11.080186,-0.0161,-0.005,0.0366,0.0022,0.0004,0.0023,-23.9438,-30.5813,7.8375,,adl
11.094319,-0.0161,-0.005,0.0366,0.0022,0.0004,0.0023,-23.9438,-30.5813,7.8375,,adl
11.097686,-0.0161,-0.005,0.0366,0.0022,0.0004,0.0023,-24.45,-29.9625,7.65,,adl
11.099123,0.0319,-0.0139,0.0343,0.0022,0.0004,0.0023,-24.45,-29.9625,7.65,,adl
11.117546,0.0176,-0.0373,0.0391,0.0022,0.0004,0.0023,-24.45,-29.9625,7.65,,adl
11.12802,0.0176,-0.0373,0.0391,-0.0026,-0.0032,-0.0012,-24.45,-29.9625,7.65,,adl
11.136944,0.0319,-0.0059,0.0465,-0.0026,-0.0032,-0.0012,-24.45,-29.9625,7.65,,adl
11.141159,0.0319,-0.0059,0.0465,-0.0026,-0.0032,-0.0012,-24.45,-29.9625,7.65,,adl
11.155856,0.0285,-0.0139,0.0283,-0.0026,-0.0032,-0.0012,-24.45,-29.9625,7.65,,adl
11.157115,0.0285,-0.0139,0.0283,-0.0026,-0.0032,-0.0012,-24.0375,-30.675,7.725,,adl
11.175766,0.0084,-0.0077,0.0076,-0.0026,-0.0032,-0.0012,-24.0375,-30.675,7.725,,adl
11.18908,0.0084,-0.0077,0.0076,-0.0026,-0.0032,-0.0012,-24.0375,-30.675,7.725,,adl
11.191405,0.0084,-0.0077,0.0076,0.0022,-0.0044,-0.0012,-24.0375,-30.675,7.725,,adl
11.19447,-0.0065,0.0131,-0.0088,0.0022,-0.0044,-0.0012,-24.0375,-30.675,7.725,,adl
11.213995,0.0124,0.0106,0.0107,0.0022,-0.0044,-0.0012,-24.0375,-30.675,7.725,,adl
11.217383,0.0124,0.0106,0.0107,0.0022,-0.0044,-0.0012,-23.9438,-30.375,7.6313,,adl
11.233258,0.0366,-0.0245,0.0273,0.0022,-0.0044,-0.0012,-23.9438,-30.375,7.6313,,adl
11.2364,0.0366,-0.0245,0.0273,0.0022,-0.0044,-0.0012,-23.9438,-30.375,7.6313,,adl
11.251593,0.0366,-0.0245,0.0273,-0.0003,0.0004,0.0023,-23.9438,-30.375,7.6313,,adl
11.254627,0.0012,-0.0261,0.0221,-0.0003,0.0004,0.0023,-23.9438,-30.375,7.6313,,adl
11.271352,0.0064,-0.0276,0.0219,-0.0003,0.0004,0.0023,-23.9438,-30.375,7.6313,,adl
11.276982,0.0064,-0.0276,0.0219,-0.0003,0.0004,0.0023,-23.85,-30.5813,7.725,,adl
11.284448,0.0064,-0.0276,0.0219,-0.0003,0.0004,0.0023,-23.85,-30.5813,7.725,,adl
11.289743,0.0182,-0.0248,0.0485,-0.0003,0.0004,0.0023,-23.85,-30.5813,7.725,,adl
11.30985,0.0392,-0.0057,0.0444,-0.0003,0.0004,0.0023,-23.85,-30.5813,7.725,,adl
11.313042,0.0392,-0.0057,0.0444,0.001,-0.0069,-0.0049,-23.85,-30.5813,7.725,,adl
11.329577,0.0119,0.008,0.0094,0.001,-0.0069,-0.0049,-23.85,-30.5813,7.725,,adl
11.333098,0.0119,0.008,0.0094,0.001,-0.0069,-0.0049,-23.85,-30.5813,7.725,,adl
11.337347,0.0119,0.008,0.0094,0.001,-0.0069,-0.0049,-24.4313,-30.7875,8.0625,,adl
11.347615,0.0205,0.0122,-0.0016,0.001,-0.0069,-0.0049,-24.4313,-30.7875,8.0625,,adl
11.366557,0.0085,0.0072,0.0056,0.001,-0.0069,-0.0049,-24.4313,-30.7875,8.0625,,adl
11.374749,0.0085,0.0072,0.0056,-0.0003,-0.0019,0.0023,-24.4313,-30.7875,8.0625,,adl
11.379691,0.0085,0.0072,0.0056,-0.0003,-0.0019,0.0023,-24.4313,-30.7875,8.0625,,adl
11.385316,0.0301,0.01,0.0009,-0.0003,-0.0019,0.0023,-24.4313,-30.7875,8.0625,,adl
11.39719,0.0301,0.01,0.0009,-0.0003,-0.0019,0.0023,-23.7563,-30.3375,6.9938,,adl
11.406233,0.0255,-0.0227,0.0224,-0.0003,-0.0019,0.0023,-23.7563,-30.3375,6.9938,,adl
11.423607,0.0186,-0.0362,0.0318,-0.0003,-0.0019,0.0023,-23.7563,-30.3375,6.9938,,adl
11.427957,0.0186,-0.0362,0.0318,-0.0003,-0.0019,0.0023,-23.7563,-30.3375,6.9938,,adl
11.438727,0.0186,-0.0362,0.0318,-0.0003,-0.0019,-0.0012,-23.7563,-30.3375,6.9938,,adl
11.44335,0.0257,-0.0143,0.0296,-0.0003,-0.0019,-0.0012,-23.7563,-30.3375,6.9938,,adl
11.456979,0.0257,-0.0143,0.0296,-0.0003,-0.0019,-0.0012,-23.4563,-30.375,7.4063,,adl
11.461743,-0.0079,-0.0192,0.0178,-0.0003,-0.0019,-0.0012,-23.4563,-30.375,7.4063,,adl
11.475981,-0.0079,-0.0192,0.0178,-0.0003,-0.0019,-0.0012,-23.4563,-30.375,7.4063,,adl
11.483272,0.0249,0.0043,0.0113,-0.0003,-0.0019,-0.0012,-23.4563,-30.375,7.4063,,adl
11.500034,0.0249,0.0043,0.0113,-0.0015,-0.0056,-0.0001,-23.4563,-30.375,7.4063,,adl
11.503377,0.0241,0.0063,-0.0094,-0.0015,-0.0056,-0.0001,-23.4563,-30.375,7.4063,,adl
11.516749,0.0241,0.0063,-0.0094,-0.0015,-0.0056,-0.0001,-24.1313,-30.5438,7.3125,,adl
11.519355,0.031,-0.0173,0.0292,-0.0015,-0.0056,-0.0001,-24.1313,-30.5438,7.3125,,adl
11.524047,0.031,-0.0173,0.0292,-0.0015,-0.0056,-0.0001,-24.1313,-30.5438,7.3125,,adl
11.539113,0.014,-0.0051,0.0344,-0.0015,-0.0056,-0.0001,-24.1313,-30.5438,7.3125,,adl
11.558252,0.0154,-0.0028,0.0499,-0.0015,-0.0056,-0.0001,-24.1313,-30.5438,7.3125,,adl
11.561643,0.0154,-0.0028,0.0499,-0.0015,-0.0191,-0.0001,-24.1313,-30.5438,7.3125,,adl
11.573085,0.0154,-0.0028,0.0499,-0.0015,-0.0191,-0.0001,-24.1313,-30.5438,7.3125,,adl
11.577154,0.03,-0.0095,0.0405,-0.0015,-0.0191,-0.0001,-24.1313,-30.5438,7.3125,,adl
11.578959,0.03,-0.0095,0.0405,-0.0015,-0.0191,-0.0001,-24.2438,-30.4875,8.1562,,adl
11.596245,0.0649,-0.0333,0.0182,-0.0015,-0.0191,-0.0001,-24.2438,-30.4875,8.1562,,adl
11.61543,0.009,-0.001,0.0049,-0.0015,-0.0191,-0.0001,-24.2438,-30.4875,8.1562,,adl
11.619013,0.009,-0.001,0.0049,-0.0015,-0.0191,-0.0001,-24.2438,-30.4875,8.1562,,adl
11.623667,0.009,-0.001,0.0049,0.0047,-0.0424,-0.0037,-24.2438,-30.4875,8.1562,,adl
11.634562,0.0352,0.0147,-0.0686,0.0047,-0.0424,-0.0037,-24.2438,-30.4875,8.1562,,adl
11.637664,0.0352,0.0147,-0.0686,0.0047,-0.0424,-0.0037,-24.6188,-30.5438,7.65,,adl
11.655251,0.0222,0.0068,-0.0647,0.0047,-0.0424,-0.0037,-24.6188,-30.5438,7.65,,adl
11.667441,0.0222,0.0068,-0.0647,0.0047,-0.0424,-0.0037,-24.6188,-30.5438,7.65,,adl
11.672904,-0.0176,0.0172,-0.0512,0.0047,-0.0424,-0.0037,-24.6188,-30.5438,7.65,,adl
11.686446,-0.0176,0.0172,-0.0512,-0.0136,0.0078,0.0073,-24.6188,-30.5438,7.65,,adl
11.691935,0.0604,-0.0257,-0.0043,-0.0136,0.0078,0.0073,-24.6188,-30.5438,7.65,,adl
11.697462,0.0604,-0.0257,-0.0043,-0.0136,0.0078,0.0073,-23.85,-30.675,7.725,,adl
11.711001,-0.0041,-0.0028,0.0768,-0.0136,0.0078,0.0073,-23.85,-30.675,7.725,,adl
11.715581,-0.0041,-0.0028,0.0768,-0.0136,0.0078,0.0073,-23.85,-30.675,7.725,,adl
11.730125,0.0287,0.0139,0.051,-0.0136,0.0078,0.0073,-23.85,-30.675,7.725,,adl
11.747798,0.0287,0.0139,0.051,0.001,0.0016,-0.0012,-23.85,-30.675,7.725,,adl
11.749226,0.0071,0.0272,-0.0497,0.001,0.0016,-0.0012,-23.85,-30.675,7.725,,adl
11.756729,0.0071,0.0272,-0.0497,0.001,0.0016,-0.0012,-23.55,-30.3375,6.8813,,adl
11.762998,0.0071,0.0272,-0.0497,0.001,0.0016,-0.0012,-23.55,-30.3375,6.8813,,adl
11.768547,-0.0142,-0.0024,-0.0545,0.001,0.0016,-0.0012,-23.55,-30.3375,6.8813,,adl
11.788076,0.0289,-0.0525,-0.0039,0.001,0.0016,-0.0012,-23.55,-30.3375,6.8813,,adl
11.806386,0.0527,-0.0081,0.0273,0.001,0.0016,-0.0012,-23.55,-30.3375,6.8813,,adl
11.810435,0.0527,-0.0081,0.0273,0.001,0.0016,-0.0012,-23.55,-30.3375,6.8813,,adl
11.812917,0.0527,-0.0081,0.0273,-0.0026,0.0102,-0.0037,-23.55,-30.3375,6.8813,,adl
11.818784,0.0527,-0.0081,0.0273,-0.0026,0.0102,-0.0037,-24.0375,-30.675,7.8375,,adl
11.825731,0.0256,-0.0036,0.0349,-0.0026,0.0102,-0.0037,-24.0375,-30.675,7.8375,,adl
11.844956,0.0075,0.0274,0.0216,-0.0026,0.0102,-0.0037,-24.0375,-30.675,7.8375,,adl
11.858722,0.0075,0.0274,0.0216,-0.0026,0.0102,-0.0037,-24.0375,-30.675,7.8375,,adl
11.863759,-0.0065,0.0132,0.0045,-0.0026,0.0102,-0.0037,-24.0375,-30.675,7.8375,,adl
11.873404,-0.0065,0.0132,0.0045,-0.0038,-0.0069,0.0011,-24.0375,-30.675,7.8375,,adl
11.877341,-0.0065,0.0132,0.0045,-0.0038,-0.0069,0.0011,-23.6438,-30.675,7.5188,,adl
11.882596,0.0457,-0.0101,-0.0188,-0.0038,-0.0069,0.0011,-23.6438,-30.675,7.5188,,adl
11.903374,0.0575,0.0023,-0.0137,-0.0038,-0.0069,0.0011,-23.6438,-30.675,7.5188,,adl
11.9064,0.0575,0.0023,-0.0137,-0.0038,-0.0069,0.0011,-23.6438,-30.675,7.5188,,adl
11.92109,0.0291,0.0116,-0.0141,-0.0038,-0.0069,0.0011,-23.6438,-30.675,7.5188,,adl
11.934397,0.0291,0.0116,-0.0141,0.0022,0.0016,0.0011,-23.6438,-30.675,7.5188,,adl
11.938622,0.0291,0.0116,-0.0141,0.0022,0.0016,0.0011,-24.225,-30.6375,7.3313,,adl
11.941726,0.0034,0.016,-0.0102,0.0022,0.0016,0.0011,-24.225,-30.6375,7.3313,,adl
11.953018,0.0034,0.016,-0.0102,0.0022,0.0016,0.0011,-24.225,-30.6375,7.3313,,adl
11.95996,0.0234,0.002,-0.023,0.0022,0.0016,0.0011,-24.225,-30.6375,7.3313,,adl
11.97929,0.0363,-0.0187,-0.0119,0.0022,0.0016,0.0011,-24.225,-30.6375,7.3313,,adl
11.9971,0.0363,-0.0187,-0.0119,-0.0038,0.0054,0.0023,-24.225,-30.6375,7.3313,,adl
11.999814,0.0376,-0.0202,0.0083,-0.0038,0.0054,0.0023,-24.225,-30.6375,7.3313,,adl
12.001805,0.0376,-0.0202,0.0083,-0.0038,0.0054,0.0023,-23.8688,-30.3,7.9313,,adl
12.002736,0.0376,-0.0202,0.0083,-0.0038,0.0054,0.0023,-23.8688,-30.3,7.9313,,adl
12.017048,0.0413,-0.0076,0.0237,-0.0038,0.0054,0.0023,-23.8688,-30.3,7.9313,,adl
12.036114,0.0176,0.0088,0.009,-0.0038,0.0054,0.0023,-23.8688,-30.3,7.9313,,adl
12.050186,0.0176,0.0088,0.009,-0.0038,0.0054,0.0023,-23.8688,-30.3,7.9313,,adl
12.055813,0.0122,-0.0018,-0.0289,-0.0038,0.0054,0.0023,-23.8688,-30.3,7.9313,,adl
12.056904,0.0122,-0.0018,-0.0289,-0.0038,0.0054,0.0023,-23.9438,-30.5813,7.9313,,adl
12.058695,0.0122,-0.0018,-0.0289,0.0047,-0.0081,-0.0014,-23.9438,-30.5813,7.9313,,adl
12.075082,0.0284,0.0165,-0.05,0.0047,-0.0081,-0.0014,-23.9438,-30.5813,7.9313,,adl
12.092896,0.0214,-0.012,-0.0214,0.0047,-0.0081,-0.0014,-23.9438,-30.5813,7.9313,,adl
12.096423,0.0214,-0.012,-0.0214,0.0047,-0.0081,-0.0014,-23.9438,-30.5813,7.9313,,adl
12.112782,0.06,0.0052,-0.0217,0.0047,-0.0081,-0.0014,-23.9438,-30.5813,7.9313,,adl
12.117396,0.06,0.0052,-0.0217,0.0047,-0.0081,-0.0014,-24.15,-30.3563,7.5375,,adl
12.121577,0.06,0.0052,-0.0217,0.001,0.0041,0.0011,-24.15,-30.3563,7.5375,,adl
12.132168,0.0368,-0.0043,-0.0369,0.001,0.0041,0.0011,-24.15,-30.3563,7.5375,,adl
12.145081,0.0368,-0.0043,-0.0369,0.001,0.0041,0.0011,-24.15,-30.3563,7.5375,,adl
12.150025,0.0165,-0.0159,-0.0071,0.001,0.0041,0.0011,-24.15,-30.3563,7.5375,,adl
12.170072,0.0488,-0.0083,-0.0155,0.001,0.0041,0.0011,-24.15,-30.3563,7.5375,,adl
12.177008,0.0488,-0.0083,-0.0155,0.001,0.0041,0.0011,-23.85,-30.4688,7.5188,,adl
12.184496,0.0488,-0.0083,-0.0155,-0.0015,0.0054,-0.0014,-23.85,-30.4688,7.5188,,adl
12.189155,0.0212,-0.0009,0.0119,-0.0015,0.0054,-0.0014,-23.85,-30.4688,7.5188,,adl
12.195352,0.0212,-0.0009,0.0119,-0.0015,0.0054,-0.0014,-23.85,-30.4688,7.5188,,adl
12.208233,0.0286,-0.0012,-0.0052,-0.0015,0.0054,-0.0014,-23.85,-30.4688,7.5188,,adl
12.227574,0.0159,-0.0094,-0.0046,-0.0015,0.0054,-0.0014,-23.85,-30.4688,7.5188,,adl
12.238214,0.0159,-0.0094,-0.0046,-0.0015,0.0054,-0.0014,-24.0375,-30.5438,7.3125,,adl
12.240124,0.0159,-0.0094,-0.0046,-0.0015,0.0054,-0.0014,-24.0375,-30.5438,7.3125,,adl
12.24609,0.0159,-0.0094,-0.0046,0.0034,-0.0056,-0.0014,-24.0375,-30.5438,7.3125,,adl
12.248255,0.019,0.0085,-0.0293,0.0034,-0.0056,-0.0014,-24.0375,-30.5438,7.3125,,adl
12.265704,0.044,-0.0069,-0.0591,0.0034,-0.0056,-0.0014,-24.0375,-30.5438,7.3125,,adl
12.284884,0.0223,0.005,-0.0446,0.0034,-0.0056,-0.0014,-24.0375,-30.5438,7.3125,,adl
12.288233,0.0223,0.005,-0.0446,0.0034,-0.0056,-0.0014,-24.0375,-30.5438,7.3125,,adl
12.296823,0.0223,0.005,-0.0446,0.0034,-0.0056,-0.0014,-23.85,-30.5813,7.8375,,adl
12.304978,0.0301,-0.0228,0.0005,0.0034,-0.0056,-0.0014,-23.85,-30.5813,7.8375,,adl
12.307077,0.0301,-0.0228,0.0005,-0.0063,0.0078,0.0011,-23.85,-30.5813,7.8375,,adl
12.323034,0.0279,-0.0297,0.029,-0.0063,0.0078,0.0011,-23.85,-30.5813,7.8375,,adl
12.336012,0.0279,-0.0297,0.029,-0.0063,0.0078,0.0011,-23.85,-30.5813,7.8375,,adl
12.341638,0.0296,-0.0159,0.0082,-0.0063,0.0078,0.0011,-23.85,-30.5813,7.8375,,adl
12.356943,0.0296,-0.0159,0.0082,-0.0063,0.0078,0.0011,-22.8938,-30.3563,8.5312,,adl
12.360754,0.0278,0.0041,-0.0309,-0.0063,0.0078,0.0011,-22.8938,-30.3563,8.5312,,adl
12.369726,0.0278,0.0041,-0.0309,0.0034,-0.0069,-0.0026,-22.8938,-30.3563,8.5312,,adl
12.381026,0.0309,0.0149,-0.0411,0.0034,-0.0069,-0.0026,-22.8938,-30.3563,8.5312,,adl
12.384247,0.0309,0.0149,-0.0411,0.0034,-0.0069,-0.0026,-22.8938,-30.3563,8.5312,,adl
12.399528,0.0177,-0.0093,-0.0446,0.0034,-0.0069,-0.0026,-22.8938,-30.3563,8.5312,,adl
12.416982,0.0177,-0.0093,-0.0446,0.0034,-0.0069,-0.0026,-24.0188,-30.9563,7.5188,,adl
12.41981,0.0196,-0.0066,-0.0152,0.0034,-0.0069,-0.0026,-24.0188,-30.9563,7.5188,,adl
12.43294,0.0196,-0.0066,-0.0152,0.0034,-0.0069,-0.0026,-24.0188,-30.9563,7.5188,,adl
12.434339,0.0196,-0.0066,-0.0152,-0.0003,0.0054,0.0011,-24.0188,-30.9563,7.5188,,adl
12.438888,0.0245,-0.0159,-0.0009,-0.0003,0.0054,0.0011,-24.0188,-30.9563,7.5188,,adl
12.457123,0.0363,-0.0207,0.0089,-0.0003,0.0054,0.0011,-24.0188,-30.9563,7.5188,,adl
12.476145,0.0288,-0.0161,0.0021,-0.0003,0.0054,0.0011,-24.0188,-30.9563,7.5188,,adl
12.479456,0.0288,-0.0161,0.0021,-0.0003,0.0054,0.0011,-23.6625,-30.4875,7.725,,adl
12.481597,0.0288,-0.0161,0.0021,-0.0003,0.0054,0.0011,-23.6625,-30.4875,7.725,,adl
12.494293,0.0288,-0.0161,0.0021,-0.0015,-0.0008,-0.0014,-23.6625,-30.4875,7.725,,adl
12.49564,0.0165,-0.0186,0.0168,-0.0015,-0.0008,-0.0014,-23.6625,-30.4875,7.725,,adl
12.51458,0.0181,0.0,0.0079,-0.0015,-0.0008,-0.0014,-23.6625,-30.4875,7.725,,adl
12.530349,0.0181,0.0,0.0079,-0.0015,-0.0008,-0.0014,-23.6625,-30.4875,7.725,,adl
12.53389,0.0265,0.0021,0.002,-0.0015,-0.0008,-0.0014,-23.6625,-30.4875,7.725,,adl
12.539311,0.0265,0.0021,0.002,-0.0015,-0.0008,-0.0014,-23.85,-30.4875,7.725,,adl
12.552842,0.0203,-0.02,-0.0012,-0.0015,-0.0008,-0.0014,-23.85,-30.4875,7.725,,adl
12.556272,0.0203,-0.02,-0.0012,0.001,-0.0081,-0.0014,-23.85,-30.4875,7.725,,adl
12.571011,0.0188,-0.0085,-0.0115,0.001,-0.0081,-0.0014,-23.85,-30.4875,7.725,,adl
12.575434,0.0188,-0.0085,-0.0115,0.001,-0.0081,-0.0014,-23.85,-30.4875,7.725,,adl
12.590754,0.0174,0.0053,-0.046,0.001,-0.0081,-0.0014,-23.85,-30.4875,7.725,,adl
12.597617,0.0174,0.0053,-0.046,0.001,-0.0081,-0.0014,-24.3375,-30.4688,7.7438,,adl
12.60993,0.0147,-0.0112,-0.0048,0.001,-0.0081,-0.0014,-24.3375,-30.4688,7.7438,,adl
12.617784,0.0147,-0.0112,-0.0048,-0.0026,0.0029,0.0011,-24.3375,-30.4688,7.7438,,adl
12.623149,0.0147,-0.0112,-0.0048,-0.0026,0.0029,0.0011,-24.3375,-30.4688,7.7438,,adl
12.629606,0.0124,0.02,0.0334,-0.0026,0.0029,0.0011,-24.3375,-30.4688,7.7438,,adl
12.648237,0.0309,0.01,0.0269,-0.0026,0.0029,0.0011,-24.3375,-30.4688,7.7438,,adl
12.65861,0.0309,0.01,0.0269,-0.0026,0.0029,0.0011,-23.9438,-30.5813,7.6313,,adl
12.666816,0.024,-0.007,-0.0426,-0.0026,0.0029,0.0011,-23.9438,-30.5813,7.6313,,adl
12.673142,0.024,-0.007,-0.0426,-0.0026,0.0029,0.0011,-23.9438,-30.5813,7.6313,,adl
12.680892,0.024,-0.007,-0.0426,-0.0026,0.0004,0.0011,-23.9438,-30.5813,7.6313,,adl
12.68677,0.0302,-0.0488,-0.0458,-0.0026,0.0004,0.0011,-23.9438,-30.5813,7.6313,,adl
12.705663,0.0067,-0.0164,0.0569,-0.0026,0.0004,0.0011,-23.9438,-30.5813,7.6313,,adl
12.718361,0.0067,-0.0164,0.0569,-0.0026,0.0004,0.0011,-23.9625,-30.1688,7.5188,,adl
12.719701,0.0067,-0.0164,0.0569,-0.0026,0.0004,0.0011,-23.9625,-30.1688,7.5188,,adl
12.7249,0.0249,-0.0023,0.0244,-0.0026,0.0004,0.0011,-23.9625,-30.1688,7.5188,,adl
12.743013,0.0249,-0.0023,0.0244,0.0022,-0.0129,-0.0037,-23.9625,-30.1688,7.5188,,adl
12.744419,0.0204,0.0252,0.0027,0.0022,-0.0129,-0.0037,-23.9625,-30.1688,7.5188,,adl
12.762857,-0.0196,0.008,-0.0338,0.0022,-0.0129,-0.0037,-23.9625,-30.1688,7.5188,,adl
12.767272,-0.0196,0.008,-0.0338,0.0022,-0.0129,-0.0037,-23.9625,-30.1688,7.5188,,adl
12.778405,-0.0196,0.008,-0.0338,0.0022,-0.0129,-0.0037,-23.7563,-30.4875,7.9313,,adl
12.784364,0.008,-0.0198,-0.0394,0.0022,-0.0129,-0.0037,-23.7563,-30.4875,7.9313,,adl
12.801924,0.039,0.0026,-0.0031,0.0022,-0.0129,-0.0037,-23.7563,-30.4875,7.9313,,adl
12.804956,0.039,0.0026,-0.0031,-0.0015,0.0029,-0.0001,-23.7563,-30.4875,7.9313,,adl
12.814035,0.039,0.0026,-0.0031,-0.0015,0.0029,-0.0001,-23.7563,-30.4875,7.9313,,adl
12.820137,0.0034,0.0049,-0.0011,-0.0015,0.0029,-0.0001,-23.7563,-30.4875,7.9313,,adl
12.838201,0.0034,0.0049,-0.0011,-0.0015,0.0029,-0.0001,-24.225,-30.5438,7.2188,,adl
12.842237,0.0061,0.0262,0.0008,-0.0015,0.0029,-0.0001,-24.225,-30.5438,7.2188,,adl
12.85859,-0.0054,-0.004,-0.0091,-0.0015,0.0029,-0.0001,-24.225,-30.5438,7.2188,,adl
12.862301,-0.0054,-0.004,-0.0091,-0.0015,0.0029,-0.0001,-24.225,-30.5438,7.2188,,adl
12.866934,-0.0054,-0.004,-0.0091,-0.0038,0.0019,0.0036,-24.225,-30.5438,7.2188,,adl
12.877935,0.0309,-0.0314,0.0052,-0.0038,0.0019,0.0036,-24.225,-30.5438,7.2188,,adl
12.897523,0.0384,-0.0421,0.0218,-0.0038,0.0019,0.0036,-24.225,-30.5438,7.2188,,adl
12.901037,0.0384,-0.0421,0.0218,-0.0038,0.0019,0.0036,-24.0375,-30.5813,7.8375,,adl
12.910157,0.0384,-0.0421,0.0218,-0.0038,0.0019,0.0036,-24.0375,-30.5813,7.8375,,adl
12.916435,0.029,-0.0087,0.048,-0.0038,0.0019,0.0036,-24.0375,-30.5813,7.8375,,adl
12.928874,0.029,-0.0087,0.048,0.0071,-0.0091,-0.0062,-24.0375,-30.5813,7.8375,,adl
12.935059,-0.0031,0.0137,-0.0063,0.0071,-0.0091,-0.0062,-24.0375,-30.5813,7.8375,,adl
12.954269,0.0026,0.0103,-0.0168,0.0071,-0.0091,-0.0062,-24.0375,-30.5813,7.8375,,adl
12.956773,0.0026,0.0103,-0.0168,0.0071,-0.0091,-0.0062,-23.5688,-30.5063,7.9313,,adl
12.95771,0.0026,0.0103,-0.0168,0.0071,-0.0091,-0.0062,-23.5688,-30.5063,7.9313,,adl
12.973658,0.0065,0.0386,-0.0087,0.0071,-0.0091,-0.0062,-23.5688,-30.5063,7.9313,,adl
12.991662,0.0065,0.0386,-0.0087,-0.0015,-0.0055,0.0011,-23.5688,-30.5063,7.9313,,adl
12.9932,0.0224,-0.0042,-0.0195,-0.0015,-0.0055,0.0011,-23.5688,-30.5063,7.9313,,adl
13.006335,0.0224,-0.0042,-0.0195,-0.0015,-0.0055,0.0011,-23.5688,-30.5063,7.9313,,adl
13.01133,0.0384,-0.0019,-0.0259,-0.0015,-0.0055,0.0011,-23.5688,-30.5063,7.9313,,adl
13.017333,0.0384,-0.0019,-0.0259,-0.0015,-0.0055,0.0011,-23.55,-30.4875,7.6125,,adl
13.03027,0.0172,-0.0209,-0.0526,-0.0015,-0.0055,0.0011,-23.55,-30.4875,7.6125,,adl
13.050841,0.0235,0.0011,-0.004,-0.0015,-0.0055,0.0011,-23.55,-30.4875,7.6125,,adl
13.054097,0.0235,0.0011,-0.004,-0.0015,-0.0055,0.0011,-23.55,-30.4875,7.6125,,adl
13.056005,0.0235,0.0011,-0.004,-0.0038,0.0153,0.0011,-23.55,-30.4875,7.6125,,adl
13.068407,0.0159,0.0064,0.0537,-0.0038,0.0153,0.0011,-23.55,-30.4875,7.6125,,adl
13.076896,0.0159,0.0064,0.0537,-0.0038,0.0153,0.0011,-23.9438,-30.375,7.725,,adl
13.087567,0.0116,-0.0081,0.0483,-0.0038,0.0153,0.0011,-23.9438,-30.375,7.725,,adl
13.101554,0.0116,-0.0081,0.0483,-0.0038,0.0153,0.0011,-23.9438,-30.375,7.725,,adl
13.107726,0.0203,-0.0155,0.0181,-0.0038,0.0153,0.0011,-23.9438,-30.375,7.725,,adl
13.118275,0.0203,-0.0155,0.0181,0.001,-0.0115,-0.0026,-23.9438,-30.375,7.725,,adl
13.126713,0.0213,0.0008,-0.0187,0.001,-0.0115,-0.0026,-23.9438,-30.375,7.725,,adl
13.136334,0.0213,0.0008,-0.0187,0.001,-0.0115,-0.0026,-23.55,-30.675,7.6125,,adl
13.144775,0.0103,-0.026,-0.029,0.001,-0.0115,-0.0026,-23.55,-30.675,7.6125,,adl
13.149929,0.0103,-0.026,-0.029,0.001,-0.0115,-0.0026,-23.55,-30.675,7.6125,,adl
13.165326,0.0218,-0.0022,-0.0285,0.001,-0.0115,-0.0026,-23.55,-30.675,7.6125,,adl
13.17866,0.0218,-0.0022,-0.0285,-0.0026,0.008,0.0023,-23.55,-30.675,7.6125,,adl
13.183955,0.0297,-0.011,-0.0052,-0.0026,0.008,0.0023,-23.55,-30.675,7.6125,,adl
13.19691,0.0297,-0.011,-0.0052,-0.0026,0.008,0.0023,-24.225,-30.6563,7.5375,,adl
13.198268,0.0297,-0.011,-0.0052,-0.0026,0.008,0.0023,-24.225,-30.6563,7.5375,,adl
13.202583,0.0237,-0.0198,0.0224,-0.0026,0.008,0.0023,-24.225,-30.6563,7.5375,,adl
13.222082,-0.0089,-0.0125,0.0236,-0.0026,0.008,0.0023,-24.225,-30.6563,7.5375,,adl
13.23956,-0.0089,-0.0125,0.0236,0.0022,-0.0043,-0.0014,-24.225,-30.6563,7.5375,,adl
13.24135,0.015,-0.0081,0.0188,0.0022,-0.0043,-0.0014,-24.225,-30.6563,7.5375,,adl
13.243781,0.015,-0.0081,0.0188,0.0022,-0.0043,-0.0014,-24.225,-30.6563,7.5375,,adl
13.256488,0.015,-0.0081,0.0188,0.0022,-0.0043,-0.0014,-24.0563,-30.4688,7.725,,adl
13.262857,0.0238,0.0173,-0.0044,0.0022,-0.0043,-0.0014,-24.0563,-30.4688,7.725,,adl
13.279674,0.0064,-0.0123,-0.0231,0.0022,-0.0043,-0.0014,-24.0563,-30.4688,7.725,,adl
13.29324,0.0064,-0.0123,-0.0231,0.0022,-0.0043,-0.0014,-24.0563,-30.4688,7.725,,adl
13.298239,0.0326,0.0068,-0.0181,0.0022,-0.0043,-0.0014,-24.0563,-30.4688,7.725,,adl
13.302259,0.0326,0.0068,-0.0181,-0.0015,0.0007,0.0023,-24.0563,-30.4688,7.725,,adl
13.318022,0.0138,-0.0336,-0.0065,-0.0015,0.0007,0.0023,-24.0563,-30.4688,7.725,,adl
13.321038,0.0138,-0.0336,-0.0065,-0.0015,0.0007,0.0023,-24.3375,-30.3563,7.425,,adl
13.33728,0.0194,-0.0287,0.0165,-0.0015,0.0007,0.0023,-24.3375,-30.3563,7.425,,adl
13.339712,0.0194,-0.0287,0.0165,-0.0015,0.0007,0.0023,-24.3375,-30.3563,7.425,,adl
13.355623,0.0152,-0.0074,0.0086,-0.0015,0.0007,0.0023,-24.3375,-30.3563,7.425,,adl
13.364371,0.0152,-0.0074,0.0086,-0.0026,-0.0005,-0.0001,-24.3375,-30.3563,7.425,,adl
13.37405,0.0106,-0.01,0.0227,-0.0026,-0.0005,-0.0001,-24.3375,-30.3563,7.425,,adl
13.376825,0.0106,-0.01,0.0227,-0.0026,-0.0005,-0.0001,-23.6438,-30.6938,7.725,,adl
13.388404,0.0106,-0.01,0.0227,-0.0026,-0.0005,-0.0001,-23.6438,-30.6938,7.725,,adl
13.394847,0.022,0.0038,0.0064,-0.0026,-0.0005,-0.0001,-23.6438,-30.6938,7.725,,adl
13.413289,0.0281,-0.0067,-0.0213,-0.0026,-0.0005,-0.0001,-23.6438,-30.6938,7.725,,adl
13.429985,0.0281,-0.0067,-0.0213,0.0034,-0.003,-0.0014,-23.6438,-30.6938,7.725,,adl
13.433376,0.0177,0.0091,-0.0373,0.0034,-0.003,-0.0014,-23.6438,-30.6938,7.725,,adl
13.436309,0.0177,0.0091,-0.0373,0.0034,-0.003,-0.0014,-23.6438,-30.6938,7.725,,adl
13.438437,0.0177,0.0091,-0.0373,0.0034,-0.003,-0.0014,-23.85,-30.2813,7.6313,,adl
13.452555,0.018,-0.0029,-0.0281,0.0034,-0.003,-0.0014,-23.85,-30.2813,7.6313,,adl
13.470478,0.0093,-0.012,0.0045,0.0034,-0.003,-0.0014,-23.85,-30.2813,7.6313,,adl
13.48577,0.0093,-0.012,0.0045,0.0034,-0.003,-0.0014,-23.85,-30.2813,7.6313,,adl
13.488738,0.0093,-0.012,0.0045,-0.0015,-0.0043,0.0023,-23.85,-30.2813,7.6313,,adl
13.490035,-0.0063,0.0119,0.075,-0.0015,-0.0043,0.0023,-23.85,-30.2813,7.6313,,adl
13.496701,-0.0063,0.0119,0.075,-0.0015,-0.0043,0.0023,-23.6438,-30.5438,7.1063,,adl
13.508997,0.0284,0.011,0.0331,-0.0015,-0.0043,0.0023,-23.6438,-30.5438,7.1063,,adl
13.528033,0.0186,0.0072,-0.0168,-0.0015,-0.0043,0.0023,-23.6438,-30.5438,7.1063,,adl
13.532157,0.0186,0.0072,-0.0168,-0.0015,-0.0043,0.0023,-23.6438,-30.5438,7.1063,,adl
13.546851,0.0254,-0.0336,-0.119,-0.0015,-0.0043,0.0023,-23.6438,-30.5438,7.1063,,adl
13.551192,0.0254,-0.0336,-0.119,-0.0015,-0.0043,0.0023,-23.6438,-30.5438,7.1063,,adl
13.556356,0.0254,-0.0336,-0.119,-0.0015,-0.0043,0.0023,-23.7563,-30.4688,7.6313,,adl
13.566367,0.03,-0.0411,-0.0249,-0.0015,-0.0043,0.0023,-23.7563,-30.4688,7.6313,,adl
13.578824,0.03,-0.0411,-0.0249,-0.0015,-0.0043,0.0023,-23.7563,-30.4688,7.6313,,adl
13.584879,0.0389,-0.0227,0.0358,-0.0015,-0.0043,0.0023,-23.7563,-30.4688,7.6313,,adl
13.604474,0.0182,-0.0058,0.0373,-0.0015,-0.0043,0.0023,-23.7563,-30.4688,7.6313,,adl
13.613235,0.0182,-0.0058,0.0373,0.0034,-0.0005,-0.0014,-23.7563,-30.4688,7.6313,,adl
13.618738,0.0182,-0.0058,0.0373,0.0034,-0.0005,-0.0014,-24.15,-30.4688,7.7438,,adl
13.623119,-0.0033,0.015,0.0179,0.0034,-0.0005,-0.0014,-24.15,-30.4688,7.7438,,adl
13.627906,-0.0033,0.015,0.0179,0.0034,-0.0005,-0.0014,-24.15,-30.4688,7.7438,,adl
13.643157,-0.0039,0.0268,0.0089,0.0034,-0.0005,-0.0014,-24.15,-30.4688,7.7438,,adl
13.661821,0.0163,-0.0128,-0.0012,0.0034,-0.0005,-0.0014,-24.15,-30.4688,7.7438,,adl
13.675199,0.0163,-0.0128,-0.0012,0.0034,-0.0005,-0.0014,-24.15,-30.4688,7.7438,,adl
13.678212,0.0163,-0.0128,-0.0012,0.001,-0.0103,-0.0014,-24.15,-30.4688,7.7438,,adl
13.680388,0.0163,-0.0128,-0.0012,0.001,-0.0103,-0.0014,-23.4563,-30.4688,7.2938,,adl
13.681889,0.0459,-0.0199,-0.0209,0.001,-0.0103,-0.0014,-23.4563,-30.4688,7.2938,,adl
13.699793,0.0086,0.001,-0.041,0.001,-0.0103,-0.0014,-23.4563,-30.4688,7.2938,,adl
13.718925,-0.0084,0.0156,-0.0143,0.001,-0.0103,-0.0014,-23.4563,-30.4688,7.2938,,adl
13.723096,-0.0084,0.0156,-0.0143,0.001,-0.0103,-0.0014,-23.4563,-30.4688,7.2938,,adl
13.736544,-0.0084,0.0156,-0.0143,0.001,-0.0103,-0.0014,-23.8688,-30.2813,7.8375,,adl
13.737936,-0.0084,0.0156,-0.0143,-0.0038,0.0007,0.0036,-23.8688,-30.2813,7.8375,,adl
13.738658,0.0134,-0.0048,0.0001,-0.0038,0.0007,0.0036,-23.8688,-30.2813,7.8375,,adl
13.757882,0.0112,-0.0492,0.0145,-0.0038,0.0007,0.0036,-23.8688,-30.2813,7.8375,,adl
13.771819,0.0112,-0.0492,0.0145,-0.0038,0.0007,0.0036,-23.8688,-30.2813,7.8375,,adl
13.777287,0.0275,-0.0319,0.0367,-0.0038,0.0007,0.0036,-23.8688,-30.2813,7.8375,,adl
13.796015,0.0094,0.0036,0.031,-0.0038,0.0007,0.0036,-23.8688,-30.2813,7.8375,,adl
13.799188,0.0094,0.0036,0.031,-0.0038,0.0007,0.0036,-23.925,-30.825,6.9938,,adl
