time,ax,ay,az,wx,wy,wz,Bx,By,Bz,Unnamed: 10,label
0.024967,-0.1707,0.0502,0.1859,0.0,0.0,0.0,0.0,0.0,0.0,,adl
0.038138,-0.1707,0.0502,0.1859,0.0,0.0,0.0,0.0,0.0,0.0,,adl
0.043978,-0.3821,-0.0759,0.2314,0.0,0.0,0.0,0.0,0.0,0.0,,adl
0.063007,-0.1018,-0.0069,0.2959,0.0,0.0,0.0,0.0,0.0,0.0,,adl
0.067754,-0.1018,-0.0069,0.2959,-0.07,0.1763,0.0088,0.0,0.0,0.0,,adl
0.068742,-0.1018,-0.0069,0.2959,-0.07,0.1763,0.0088,-42.2625,-13.125,-1.65,,adl
0.082486,-0.0446,-0.058,0.3119,-0.07,0.1763,0.0088,-42.2625,-13.125,-1.65,,adl
0.085896,-0.0446,-0.058,0.3119,-0.07,0.1763,0.0088,-42.2625,-13.125,-1.65,,adl
0.101156,0.0175,-0.0814,0.2799,-0.07,0.1763,0.0088,-42.2625,-13.125,-1.65,,adl
0.120517,-0.0891,-0.052,0.2055,-0.07,0.1763,0.0088,-42.2625,-13.125,-1.65,,adl
0.128136,-0.0891,-0.052,0.2055,-0.07,0.1763,0.0088,-40.7063,-13.425,-0.7688,,adl
0.128858,-0.0891,-0.052,0.2055,0.0425,-0.0289,-0.0487,-40.7063,-13.425,-0.7688,,adl
0.134681,-0.0891,-0.052,0.2055,0.0425,-0.0289,-0.0487,-40.7063,-13.425,-0.7688,,adl
0.139877,-0.1505,-0.0004,0.101,0.0425,-0.0289,-0.0487,-40.7063,-13.425,-0.7688,,adl
0.158998,-0.061,0.032,-0.1557,0.0425,-0.0289,-0.0487,-40.7063,-13.425,-0.7688,,adl
0.179681,-0.0288,0.0617,-0.2459,0.0425,-0.0289,-0.0487,-40.7063,-13.425,-0.7688,,adl
0.182771,-0.0288,0.0617,-0.2459,0.0425,-0.0289,-0.0487,-40.7063,-13.425,-0.7688,,adl
0.189885,-0.0288,0.0617,-0.2459,0.0425,-0.0289,-0.0487,-40.2,-13.125,-2.9625,,adl
0.191349,-0.0288,0.0617,-0.2459,-0.0333,-0.0509,-0.0437,-40.2,-13.125,-2.9625,,adl
0.196514,-0.0971,0.0549,-0.202,-0.0333,-0.0509,-0.0437,-40.2,-13.125,-2.9625,,adl
0.216453,-0.0499,-0.0552,-0.0485,-0.0333,-0.0509,-0.0437,-40.2,-13.125,-2.9625,,adl
0.229299,-0.0499,-0.0552,-0.0485,-0.0333,-0.0509,-0.0437,-40.2,-13.125,-2.9625,,adl
0.234918,-0.059,-0.0341,0.2174,-0.0333,-0.0509,-0.0437,-40.2,-13.125,-2.9625,,adl
0.247896,-0.059,-0.0341,0.2174,-0.0333,-0.0509,-0.0437,-42.0563,-13.35,-1.2563,,adl
0.253188,-0.059,-0.0341,0.2174,0.0351,-0.0571,0.0491,-42.0563,-13.35,-1.2563,,adl
0.254309,0.2486,-0.317,-0.0175,0.0351,-0.0571,0.0491,-42.0563,-13.35,-1.2563,,adl
0.273618,0.2765,-0.1063,-0.1594,0.0351,-0.0571,0.0491,-42.0563,-13.35,-1.2563,,adl
0.2798,0.2765,-0.1063,-0.1594,0.0351,-0.0571,0.0491,-42.0563,-13.35,-1.2563,,adl
0.293006,0.2474,0.0018,-0.2844,0.0351,-0.0571,0.0491,-42.0563,-13.35,-1.2563,,adl
0.30804,0.2474,0.0018,-0.2844,0.0351,-0.0571,0.0491,-42.15,-13.35,-1.35,,adl
0.312015,0.2533,0.0541,-0.2261,0.0351,-0.0571,0.0491,-42.15,-13.35,-1.35,,adl
0.316009,0.2533,0.0541,-0.2261,-0.054,-0.0411,0.0148,-42.15,-13.35,-1.35,,adl
0.325157,0.2533,0.0541,-0.2261,-0.054,-0.0411,0.0148,-42.15,-13.35,-1.35,,adl
0.331278,0.4283,-0.0295,-0.1241,-0.054,-0.0411,0.0148,-42.15,-13.35,-1.35,,adl
0.350569,0.5425,-0.1096,-0.0513,-0.054,-0.0411,0.0148,-42.15,-13.35,-1.35,,adl
0.368178,0.5425,-0.1096,-0.0513,-0.054,-0.0411,0.0148,-41.9625,-13.575,-1.05,,adl
0.371683,0.4207,-0.0991,0.0211,-0.054,-0.0411,0.0148,-41.9625,-13.575,-1.05,,adl
0.373353,0.4207,-0.0991,0.0211,-0.054,-0.0411,0.0148,-41.9625,-13.575,-1.05,,adl
0.378894,0.4207,-0.0991,0.0211,-0.1213,-0.0826,-0.0732,-41.9625,-13.575,-1.05,,adl
0.388272,0.3823,-0.1559,0.1423,-0.1213,-0.0826,-0.0732,-41.9625,-13.575,-1.05,,adl
0.408017,0.3106,-0.1176,0.2127,-0.1213,-0.0826,-0.0732,-41.9625,-13.575,-1.05,,adl
0.421377,0.3106,-0.1176,0.2127,-0.1213,-0.0826,-0.0732,-41.9625,-13.575,-1.05,,adl
0.427823,0.1061,-0.0616,0.1397,-0.1213,-0.0826,-0.0732,-41.9625,-13.575,-1.05,,adl
0.428998,0.1061,-0.0616,0.1397,-0.1213,-0.0826,-0.0732,-41.7563,-13.6875,-0.9563,,adl
0.439572,0.1061,-0.0616,0.1397,-0.0578,0.0199,-0.0352,-41.7563,-13.6875,-0.9563,,adl
0.445546,0.0767,0.0166,0.1819,-0.0578,0.0199,-0.0352,-41.7563,-13.6875,-0.9563,,adl
0.464625,0.1042,-0.0064,0.2779,-0.0578,0.0199,-0.0352,-41.7563,-13.6875,-0.9563,,adl
0.469467,0.1042,-0.0064,0.2779,-0.0578,0.0199,-0.0352,-41.7563,-13.6875,-0.9563,,adl
0.484091,0.0765,-0.0166,0.1839,-0.0578,0.0199,-0.0352,-41.7563,-13.6875,-0.9563,,adl
0.486447,0.0765,-0.0166,0.1839,-0.0578,0.0199,-0.0352,-41.3625,-13.7625,-1.575,,adl
0.502097,0.0765,-0.0166,0.1839,-0.0492,-0.1046,-0.0952,-41.3625,-13.7625,-1.575,,adl
0.505303,0.1223,-0.0017,-0.0036,-0.0492,-0.1046,-0.0952,-41.3625,-13.7625,-1.575,,adl
0.517341,0.1223,-0.0017,-0.0036,-0.0492,-0.1046,-0.0952,-41.3625,-13.7625,-1.575,,adl
0.524383,0.0482,0.1192,-0.1127,-0.0492,-0.1046,-0.0952,-41.3625,-13.7625,-1.575,,adl
0.542002,-0.0139,0.1347,0.0232,-0.0492,-0.1046,-0.0952,-41.3625,-13.7625,-1.575,,adl
0.54809,-0.0139,0.1347,0.0232,-0.0492,-0.1046,-0.0952,-41.6438,-14.0063,-0.6375,,adl
0.56006,0.0723,0.0496,0.2478,-0.0492,-0.1046,-0.0952,-41.6438,-14.0063,-0.6375,,adl
0.564624,0.0723,0.0496,0.2478,-0.0492,-0.1046,-0.0952,-41.6438,-14.0063,-0.6375,,adl
0.565368,0.0723,0.0496,0.2478,-0.1103,0.0249,-0.0059,-41.6438,-14.0063,-0.6375,,adl
0.579266,0.1531,-0.0271,0.2471,-0.1103,0.0249,-0.0059,-41.6438,-14.0063,-0.6375,,adl
0.598979,0.0807,0.0397,0.1147,-0.1103,0.0249,-0.0059,-41.6438,-14.0063,-0.6375,,adl
0.60996,0.0807,0.0397,0.1147,-0.1103,0.0249,-0.0059,-41.25,-13.8938,-1.0688,,adl
0.613121,0.0807,0.0397,0.1147,-0.1103,0.0249,-0.0059,-41.25,-13.8938,-1.0688,,adl
0.617742,0.1151,0.0061,0.0157,-0.1103,0.0249,-0.0059,-41.25,-13.8938,-1.0688,,adl
0.626239,0.1151,0.0061,0.0157,-0.0908,-0.0839,-0.0719,-41.25,-13.8938,-1.0688,,adl
0.637079,-0.0592,0.0162,0.0106,-0.0908,-0.0839,-0.0719,-41.25,-13.8938,-1.0688,,adl
0.656625,-0.1027,-0.0518,0.1841,-0.0908,-0.0839,-0.0719,-41.25,-13.8938,-1.0688,,adl
0.659963,-0.1027,-0.0518,0.1841,-0.0908,-0.0839,-0.0719,-41.25,-13.8938,-1.0688,,adl
0.669911,-0.1027,-0.0518,0.1841,-0.0908,-0.0839,-0.0719,-40.5563,-13.7063,-2.9625,,adl
0.675331,-0.1238,0.0239,0.2095,-0.0908,-0.0839,-0.0719,-40.5563,-13.7063,-2.9625,,adl
0.688849,-0.1238,0.0239,0.2095,-0.0505,-0.0754,0.0148,-40.5563,-13.7063,-2.9625,,adl
0.693979,0.1251,-0.0668,0.054,-0.0505,-0.0754,0.0148,-40.5563,-13.7063,-2.9625,,adl
0.707947,0.1251,-0.0668,0.054,-0.0505,-0.0754,0.0148,-40.5563,-13.7063,-2.9625,,adl
0.712989,0.0852,0.0045,0.0487,-0.0505,-0.0754,0.0148,-40.5563,-13.7063,-2.9625,,adl
0.728352,0.0852,0.0045,0.0487,-0.0505,-0.0754,0.0148,-41.7563,-13.7813,-0.8438,,adl
0.733529,0.2333,-0.0329,0.0934,-0.0505,-0.0754,0.0148,-41.7563,-13.7813,-0.8438,,adl
0.750216,0.2333,-0.0329,0.0934,-0.0883,-0.0411,-0.0144,-41.7563,-13.7813,-0.8438,,adl
0.751615,0.2396,-0.0329,0.1276,-0.0883,-0.0411,-0.0144,-41.7563,-13.7813,-0.8438,,adl
0.759235,0.2396,-0.0329,0.1276,-0.0883,-0.0411,-0.0144,-41.7563,-13.7813,-0.8438,,adl
0.778452,0.1381,0.0049,0.1667,-0.0883,-0.0411,-0.0144,-41.7563,-13.7813,-0.8438,,adl
0.787307,0.1381,0.0049,0.1667,-0.0883,-0.0411,-0.0144,-42.3188,-14.0625,-0.825,,adl
0.791035,0.0484,-0.0161,0.2483,-0.0883,-0.0411,-0.0144,-42.3188,-14.0625,-0.825,,adl
0.803813,0.0484,-0.0161,0.2483,-0.0883,-0.0411,-0.0144,-42.3188,-14.0625,-0.825,,adl
0.809541,0.0459,-0.0404,0.3987,-0.0883,-0.0411,-0.0144,-42.3188,-14.0625,-0.825,,adl
0.816197,0.0459,-0.0404,0.3987,-0.0932,-0.0008,0.0234,-42.3188,-14.0625,-0.825,,adl
0.828329,0.1653,-0.0526,0.4541,-0.0932,-0.0008,0.0234,-42.3188,-14.0625,-0.825,,adl
0.847942,0.2634,-0.0775,0.383,-0.0932,-0.0008,0.0234,-42.3188,-14.0625,-0.825,,adl
0.851192,0.2634,-0.0775,0.383,-0.0932,-0.0008,0.0234,-42.0375,-14.175,-0.6375,,adl
0.854291,0.2634,-0.0775,0.383,-0.0932,-0.0008,0.0234,-42.0375,-14.175,-0.6375,,adl
0.867301,0.1133,0.0865,0.2291,-0.0932,-0.0008,0.0234,-42.0375,-14.175,-0.6375,,adl
0.874718,0.1133,0.0865,0.2291,-0.015,-0.0374,0.0124,-42.0375,-14.175,-0.6375,,adl
0.885894,0.173,0.0829,0.0857,-0.015,-0.0374,0.0124,-42.0375,-14.175,-0.6375,,adl
0.899672,0.173,0.0829,0.0857,-0.015,-0.0374,0.0124,-42.0375,-14.175,-0.6375,,adl
0.905025,0.2537,0.0942,0.1615,-0.015,-0.0374,0.0124,-42.0375,-14.175,-0.6375,,adl
0.908389,0.2537,0.0942,0.1615,-0.015,-0.0374,0.0124,-41.55,-14.1,-0.6375,,adl
0.923762,0.2102,0.0349,0.1926,-0.015,-0.0374,0.0124,-41.55,-14.1,-0.6375,,adl
0.937358,0.2102,0.0349,0.1926,-0.059,0.0261,0.0038,-41.55,-14.1,-0.6375,,adl
0.943109,0.0738,-0.0573,0.3247,-0.059,0.0261,0.0038,-41.55,-14.1,-0.6375,,adl
0.94688,0.0738,-0.0573,0.3247,-0.059,0.0261,0.0038,-41.55,-14.1,-0.6375,,adl
0.962241,0.0583,-0.0699,0.3786,-0.059,0.0261,0.0038,-41.55,-14.1,-0.6375,,adl
0.969117,0.0583,-0.0699,0.3786,-0.059,0.0261,0.0038,-41.5688,-13.7063,-0.5438,,adl
0.980899,0.1095,-0.0324,0.2581,-0.059,0.0261,0.0038,-41.5688,-13.7063,-0.5438,,adl
0.994994,0.1095,-0.0324,0.2581,-0.059,0.0261,0.0038,-41.5688,-13.7063,-0.5438,,adl
0.999208,0.1095,-0.0324,0.2581,-0.0065,0.0089,0.0197,-41.5688,-13.7063,-0.5438,,adl
1.000442,0.0907,0.0138,0.1575,-0.0065,0.0089,0.0197,-41.5688,-13.7063,-0.5438,,adl
1.019902,0.0697,-0.0215,0.1683,-0.0065,0.0089,0.0197,-41.5688,-13.7063,-0.5438,,adl
1.027852,0.0697,-0.0215,0.1683,-0.0065,0.0089,0.0197,-41.85,-13.65,-1.2563,,adl
1.038772,0.0143,-0.0477,0.2997,-0.0065,0.0089,0.0197,-41.85,-13.65,-1.2563,,adl
1.042266,0.0143,-0.0477,0.2997,-0.0065,0.0089,0.0197,-41.85,-13.65,-1.2563,,adl
1.057791,0.0249,-0.0972,0.4332,-0.0065,0.0089,0.0197,-41.85,-13.65,-1.2563,,adl
1.061884,0.0249,-0.0972,0.4332,0.0082,-0.0265,0.0503,-41.85,-13.65,-1.2563,,adl
1.077574,0.0903,-0.1411,0.3982,0.0082,-0.0265,0.0503,-41.85,-13.65,-1.2563,,adl
1.090309,0.0903,-0.1411,0.3982,0.0082,-0.0265,0.0503,-41.7563,-13.875,-1.05,,adl
1.092423,0.0903,-0.1411,0.3982,0.0082,-0.0265,0.0503,-41.7563,-13.875,-1.05,,adl
1.095187,0.1686,-0.0655,0.1186,0.0082,-0.0265,0.0503,-41.7563,-13.875,-1.05,,adl
1.115175,0.1311,-0.0169,-0.052,0.0082,-0.0265,0.0503,-41.7563,-13.875,-1.05,,adl
1.126283,0.1311,-0.0169,-0.052,0.029,-0.0496,0.0429,-41.7563,-13.875,-1.05,,adl
1.134918,0.0017,0.0322,0.0091,0.029,-0.0496,0.0429,-41.7563,-13.875,-1.05,,adl
1.137753,0.0017,0.0322,0.0091,0.029,-0.0496,0.0429,-41.7563,-13.875,-1.05,,adl
1.149072,0.0017,0.0322,0.0091,0.029,-0.0496,0.0429,-41.775,-13.5188,-0.3188,,adl
1.153854,0.1856,-0.0627,0.1656,0.029,-0.0496,0.0429,-41.775,-13.5188,-0.3188,,adl
1.173571,0.3137,-0.077,0.1595,0.029,-0.0496,0.0429,-41.775,-13.5188,-0.3188,,adl
1.18605,0.3137,-0.077,0.1595,0.029,-0.0496,0.0429,-41.775,-13.5188,-0.3188,,adl
1.187062,0.3137,-0.077,0.1595,0.0498,-0.1449,0.0588,-41.775,-13.5188,-0.3188,,adl
1.191145,0.319,0.0048,-0.0953,0.0498,-0.1449,0.0588,-41.775,-13.5188,-0.3188,,adl
1.20849,0.319,0.0048,-0.0953,0.0498,-0.1449,0.0588,-42.3563,-13.1813,-0.825,,adl
1.211447,0.2682,0.0261,-0.2337,0.0498,-0.1449,0.0588,-42.3563,-13.1813,-0.825,,adl
1.230441,0.2056,-0.0142,-0.1242,0.0498,-0.1449,0.0588,-42.3563,-13.1813,-0.825,,adl
1.234566,0.2056,-0.0142,-0.1242,0.0498,-0.1449,0.0588,-42.3563,-13.1813,-0.825,,adl
1.248373,0.2056,-0.0142,-0.1242,0.0265,-0.1999,0.0686,-42.3563,-13.1813,-0.825,,adl
1.250861,0.1772,-0.0489,-0.1803,0.0265,-0.1999,0.0686,-42.3563,-13.1813,-0.825,,adl
1.268064,0.385,-0.1345,-0.3249,0.0265,-0.1999,0.0686,-42.3563,-13.1813,-0.825,,adl
1.269357,0.385,-0.1345,-0.3249,0.0265,-0.1999,0.0686,-41.6813,-13.2563,0.3,,adl
1.281661,0.385,-0.1345,-0.3249,0.0265,-0.1999,0.0686,-41.6813,-13.2563,0.3,,adl
1.287032,0.2519,-0.1241,-0.5593,0.0265,-0.1999,0.0686,-41.6813,-13.2563,0.3,,adl
1.30657,0.0142,0.0126,-0.653,0.0265,-0.1999,0.0686,-41.6813,-13.2563,0.3,,adl
1.310229,0.0142,0.0126,-0.653,-0.004,-0.2562,0.0711,-41.6813,-13.2563,0.3,,adl
1.325672,0.149,-0.0535,-0.5684,-0.004,-0.2562,0.0711,-41.6813,-13.2563,0.3,,adl
1.328955,0.149,-0.0535,-0.5684,-0.004,-0.2562,0.0711,-42.0938,-13.0688,0.6188,,adl
1.329787,0.149,-0.0535,-0.5684,-0.004,-0.2562,0.0711,-42.0938,-13.0688,0.6188,,adl
1.346043,0.2717,-0.1106,-0.5736,-0.004,-0.2562,0.0711,-42.0938,-13.0688,0.6188,,adl
1.364848,0.3099,-0.1859,-0.7471,-0.004,-0.2562,0.0711,-42.0938,-13.0688,0.6188,,adl
1.372457,0.3099,-0.1859,-0.7471,-0.0932,-0.3295,0.1187,-42.0938,-13.0688,0.6188,,adl
1.37689,0.3099,-0.1859,-0.7471,-0.0932,-0.3295,0.1187,-42.0938,-13.0688,0.6188,,adl
1.382273,0.2504,-0.0529,-0.7496,-0.0932,-0.3295,0.1187,-42.0938,-13.0688,0.6188,,adl
1.387423,0.2504,-0.0529,-0.7496,-0.0932,-0.3295,0.1187,-42.0938,-13.2,1.1438,,adl
1.402094,0.0385,-0.0321,-0.7474,-0.0932,-0.3295,0.1187,-42.0938,-13.2,1.1438,,adl
1.421456,0.2211,-0.0825,-0.6206,-0.0932,-0.3295,0.1187,-42.0938,-13.2,1.1438,,adl
1.424293,0.2211,-0.0825,-0.6206,-0.0932,-0.3295,0.1187,-42.0938,-13.2,1.1438,,adl
1.436347,0.2211,-0.0825,-0.6206,-0.1225,-0.531,0.2274,-42.0938,-13.2,1.1438,,adl
1.439708,0.4171,-0.0752,-0.7599,-0.1225,-0.531,0.2274,-42.0938,-13.2,1.1438,,adl
1.447294,0.4171,-0.0752,-0.7599,-0.1225,-0.531,0.2274,-42.8063,-12.7688,2.8313,,adl
1.458939,0.3231,0.0225,-1.115,-0.1225,-0.531,0.2274,-42.8063,-12.7688,2.8313,,adl
1.473736,0.3231,0.0225,-1.115,-0.1225,-0.531,0.2274,-42.8063,-12.7688,2.8313,,adl
1.480838,0.2442,0.2267,-1.4526,-0.1225,-0.531,0.2274,-42.8063,-12.7688,2.8313,,adl
1.49729,0.2442,0.2267,-1.4526,-0.0505,-0.8096,0.2116,-42.8063,-12.7688,2.8313,,adl
1.501384,0.3749,0.0995,-1.6056,-0.0505,-0.8096,0.2116,-42.8063,-12.7688,2.8313,,adl
1.507055,0.3749,0.0995,-1.6056,-0.0505,-0.8096,0.2116,-42.8438,-12.2438,4.0875,,adl
1.516425,0.4103,-0.0677,-1.6145,-0.0505,-0.8096,0.2116,-42.8438,-12.2438,4.0875,,adl
1.520713,0.4103,-0.0677,-1.6145,-0.0505,-0.8096,0.2116,-42.8438,-12.2438,4.0875,,adl
1.53639,0.3138,-0.0557,-1.4779,-0.0505,-0.8096,0.2116,-42.8438,-12.2438,4.0875,,adl
1.555108,0.2994,-0.1273,-1.0929,-0.0505,-0.8096,0.2116,-42.8438,-12.2438,4.0875,,adl
1.558899,0.2994,-0.1273,-1.0929,-0.307,-0.8561,0.2897,-42.8438,-12.2438,4.0875,,adl
1.569181,0.2994,-0.1273,-1.0929,-0.307,-0.8561,0.2897,-43.2,-11.475,6.2813,,adl
1.570561,0.2994,-0.1273,-1.0929,-0.307,-0.8561,0.2897,-43.2,-11.475,6.2813,,adl
1.57472,0.3607,-0.2859,-0.7619,-0.307,-0.8561,0.2897,-43.2,-11.475,6.2813,,adl
1.593679,0.4511,-0.2125,-0.5854,-0.307,-0.8561,0.2897,-43.2,-11.475,6.2813,,adl
1.613134,0.5055,-0.2969,-0.3976,-0.307,-0.8561,0.2897,-43.2,-11.475,6.2813,,adl
1.6164,0.5055,-0.2969,-0.3976,-0.307,-0.8561,0.2897,-43.2,-11.475,6.2813,,adl
1.621034,0.5055,-0.2969,-0.3976,-0.142,-1.5304,0.3057,-43.2,-11.475,6.2813,,adl
1.627711,0.5055,-0.2969,-0.3976,-0.142,-1.5304,0.3057,-42.4688,-10.8563,9.075,,adl
1.631752,0.3511,-0.3327,-0.1598,-0.142,-1.5304,0.3057,-42.4688,-10.8563,9.075,,adl
1.650435,0.3918,-0.4356,0.0012,-0.142,-1.5304,0.3057,-42.4688,-10.8563,9.075,,adl
1.665018,0.3918,-0.4356,0.0012,-0.142,-1.5304,0.3057,-42.4688,-10.8563,9.075,,adl
1.671203,0.4558,-0.5514,0.4823,-0.142,-1.5304,0.3057,-42.4688,-10.8563,9.075,,adl
1.68339,0.4558,-0.5514,0.4823,0.0008,-2.0875,0.2335,-42.4688,-10.8563,9.075,,adl
1.687023,0.4558,-0.5514,0.4823,0.0008,-2.0875,0.2335,-41.6625,-10.2375,13.2,,adl
1.688758,0.6732,-0.6356,0.6862,0.0008,-2.0875,0.2335,-41.6625,-10.2375,13.2,,adl
1.708196,0.6481,-0.475,0.7498,0.0008,-2.0875,0.2335,-41.6625,-10.2375,13.2,,adl
1.713076,0.6481,-0.475,0.7498,0.0008,-2.0875,0.2335,-41.6625,-10.2375,13.2,,adl
1.726823,0.9619,-0.2896,0.7939,0.0008,-2.0875,0.2335,-41.6625,-10.2375,13.2,,adl
1.746512,0.9619,-0.2896,0.7939,0.1719,-1.5268,0.2152,-41.6625,-10.2375,13.2,,adl
1.7499,1.1432,-0.2272,0.949,0.1719,-1.5268,0.2152,-41.6625,-10.2375,13.2,,adl
1.752947,1.1432,-0.2272,0.949,0.1719,-1.5268,0.2152,-40.2938,-9.6188,18.8813,,adl
1.759425,1.1432,-0.2272,0.949,0.1719,-1.5268,0.2152,-40.2938,-9.6188,18.8813,,adl
1.765317,1.558,-0.199,1.06,0.1719,-1.5268,0.2152,-40.2938,-9.6188,18.8813,,adl
1.784315,1.6935,-0.0782,1.0939,0.1719,-1.5268,0.2152,-40.2938,-9.6188,18.8813,,adl
1.804139,1.568,0.1353,1.1646,0.1719,-1.5268,0.2152,-40.2938,-9.6188,18.8813,,adl
1.80746,1.568,0.1353,1.1646,0.1719,-1.5268,0.2152,-40.2938,-9.6188,18.8813,,adl
1.809764,1.568,0.1353,1.1646,0.2892,-0.4785,-0.0437,-40.2938,-9.6188,18.8813,,adl
1.812159,1.568,0.1353,1.1646,0.2892,-0.4785,-0.0437,-39.225,-9.975,21.2438,,adl
1.823725,1.2193,0.3931,1.0286,0.2892,-0.4785,-0.0437,-39.225,-9.975,21.2438,,adl
1.842123,0.854,0.5462,0.9042,0.2892,-0.4785,-0.0437,-39.225,-9.975,21.2438,,adl
1.855384,0.854,0.5462,0.9042,0.2892,-0.4785,-0.0437,-39.225,-9.975,21.2438,,adl
1.861409,0.6786,0.6648,0.7174,0.2892,-0.4785,-0.0437,-39.225,-9.975,21.2438,,adl
1.870193,0.6786,0.6648,0.7174,0.2892,-0.4785,-0.0437,-39.0563,-9.5063,21.6562,,adl
1.872965,0.6786,0.6648,0.7174,0.1598,-0.0265,-0.2478,-39.0563,-9.5063,21.6562,,adl
1.879877,0.1891,0.6756,0.541,0.1598,-0.0265,-0.2478,-39.0563,-9.5063,21.6562,,adl
1.900158,0.1101,0.6171,0.5617,0.1598,-0.0265,-0.2478,-39.0563,-9.5063,21.6562,,adl
1.903107,0.1101,0.6171,0.5617,0.1598,-0.0265,-0.2478,-39.0563,-9.5063,21.6562,,adl
1.918646,0.3328,0.6711,0.5027,0.1598,-0.0265,-0.2478,-39.0563,-9.5063,21.6562,,adl
1.927956,0.3328,0.6711,0.5027,0.1598,-0.0265,-0.2478,-39.15,-9.8063,21.75,,adl
1.932224,0.3328,0.6711,0.5027,0.007,-0.0644,-0.2784,-39.15,-9.8063,21.75,,adl
1.937695,0.6564,0.5262,0.1455,0.007,-0.0644,-0.2784,-39.15,-9.8063,21.75,,adl
1.951866,0.6564,0.5262,0.1455,0.007,-0.0644,-0.2784,-39.15,-9.8063,21.75,,adl
1.957413,0.6394,0.2934,-0.4022,0.007,-0.0644,-0.2784,-39.15,-9.8063,21.75,,adl
1.975659,0.0739,0.0741,-0.8917,0.007,-0.0644,-0.2784,-39.15,-9.8063,21.75,,adl
1.987915,0.0739,0.0741,-0.8917,0.007,-0.0644,-0.2784,-39.0938,-10.8938,21.4313,,adl
1.994019,0.0739,0.0741,-0.8917,-0.5109,0.2325,-0.3993,-39.0938,-10.8938,21.4313,,adl
1.994983,-0.6642,-0.0691,-0.7451,-0.5109,0.2325,-0.3993,-39.0938,-10.8938,21.4313,,adl
1.998761,-0.6642,-0.0691,-0.7451,-0.5109,0.2325,-0.3993,-39.0938,-10.8938,21.4313,,adl
2.014445,-0.6286,0.0604,-0.3167,-0.5109,0.2325,-0.3993,-39.0938,-10.8938,21.4313,,adl
2.03577,-0.1574,0.0281,0.1487,-0.5109,0.2325,-0.3993,-39.0938,-10.8938,21.4313,,adl
2.048916,-0.1574,0.0281,0.1487,-0.5109,0.2325,-0.3993,-39.0938,-10.8938,21.4313,,adl
2.051666,-0.1574,0.0281,0.1487,-0.5109,0.2325,-0.3993,-38.1375,-12.2063,18.1875,,adl
2.054417,-0.1288,-0.1481,0.2576,-0.5109,0.2325,-0.3993,-38.1375,-12.2063,18.1875,,adl
2.056934,-0.1288,-0.1481,0.2576,-0.6112,0.4426,-0.0756,-38.1375,-12.2063,18.1875,,adl
2.070983,-0.305,-0.2124,0.2425,-0.6112,0.4426,-0.0756,-38.1375,-12.2063,18.1875,,adl
2.091795,-0.3814,-0.017,0.2866,-0.6112,0.4426,-0.0756,-38.1375,-12.2063,18.1875,,adl
2.093959,-0.3814,-0.017,0.2866,-0.6112,0.4426,-0.0756,-38.1375,-12.2063,18.1875,,adl
2.107395,-0.3814,-0.017,0.2866,-0.6112,0.4426,-0.0756,-39.675,-12.825,19.2563,,adl
2.109322,-0.6073,0.0786,0.4491,-0.6112,0.4426,-0.0756,-39.675,-12.825,19.2563,,adl
2.118407,-0.6073,0.0786,0.4491,-0.5489,-0.2916,-0.0414,-39.675,-12.825,19.2563,,adl
2.128751,-0.9406,0.1692,0.7062,-0.5489,-0.2916,-0.0414,-39.675,-12.825,19.2563,,adl
2.142568,-0.9406,0.1692,0.7062,-0.5489,-0.2916,-0.0414,-39.675,-12.825,19.2563,,adl
2.148882,-0.7025,-0.0007,0.8708,-0.5489,-0.2916,-0.0414,-39.675,-12.825,19.2563,,adl
2.167243,-0.3669,-0.0132,0.8028,-0.5489,-0.2916,-0.0414,-39.675,-12.825,19.2563,,adl
2.168682,-0.3669,-0.0132,0.8028,-0.5489,-0.2916,-0.0414,-39.4688,-13.2375,19.5563,,adl
2.181176,-0.3669,-0.0132,0.8028,-0.1347,-0.5213,0.4668,-39.4688,-13.2375,19.5563,,adl
2.186218,-0.1418,0.0444,0.6543,-0.1347,-0.5213,0.4668,-39.4688,-13.2375,19.5563,,adl
2.193087,-0.1418,0.0444,0.6543,-0.1347,-0.5213,0.4668,-39.4688,-13.2375,19.5563,,adl
2.205187,0.1294,-0.0763,0.6462,-0.1347,-0.5213,0.4668,-39.4688,-13.2375,19.5563,,adl
2.224786,0.3077,0.0807,0.6744,-0.1347,-0.5213,0.4668,-39.4688,-13.2375,19.5563,,adl
2.228255,0.3077,0.0807,0.6744,-0.1347,-0.5213,0.4668,-38.9438,-12.1875,21.525,,adl
2.238063,0.3077,0.0807,0.6744,-0.1347,-0.5213,0.4668,-38.9438,-12.1875,21.525,,adl
2.24299,0.3077,0.0807,0.6744,-0.0957,-1.2518,0.4008,-38.9438,-12.1875,21.525,,adl
2.245982,0.2398,0.2676,0.3831,-0.0957,-1.2518,0.4008,-38.9438,-12.1875,21.525,,adl
2.262182,0.0322,0.3585,-0.1064,-0.0957,-1.2518,0.4008,-38.9438,-12.1875,21.525,,adl
2.282045,-0.2127,0.409,-0.3731,-0.0957,-1.2518,0.4008,-38.9438,-12.1875,21.525,,adl
2.285702,-0.2127,0.409,-0.3731,-0.0957,-1.2518,0.4008,-38.9438,-12.1875,21.525,,adl
2.287982,-0.2127,0.409,-0.3731,-0.0957,-1.2518,0.4008,-37.8188,-11.55,23.5688,,adl
2.30158,-0.7428,0.4692,-0.3706,-0.0957,-1.2518,0.4008,-37.8188,-11.55,23.5688,,adl
2.305128,-0.7428,0.4692,-0.3706,-0.3314,-0.6313,0.6183,-37.8188,-11.55,23.5688,,adl
2.319548,-1.1875,0.4005,-0.0812,-0.3314,-0.6313,0.6183,-37.8188,-11.55,23.5688,,adl
2.333657,-1.1875,0.4005,-0.0812,-0.3314,-0.6313,0.6183,-37.8188,-11.55,23.5688,,adl
2.339122,-1.1315,0.0882,0.1982,-0.3314,-0.6313,0.6183,-37.8188,-11.55,23.5688,,adl
2.349041,-1.1315,0.0882,0.1982,-0.3314,-0.6313,0.6183,-37.4062,-10.2563,24.9188,,adl
2.358194,-0.8267,-0.2214,0.2087,-0.3314,-0.6313,0.6183,-37.4062,-10.2563,24.9188,,adl
2.366971,-0.8267,-0.2214,0.2087,-0.5867,-0.6801,0.8297,-37.4062,-10.2563,24.9188,,adl
2.377972,-1.1007,-0.3109,0.0989,-0.5867,-0.6801,0.8297,-37.4062,-10.2563,24.9188,,adl
2.382906,-1.1007,-0.3109,0.0989,-0.5867,-0.6801,0.8297,-37.4062,-10.2563,24.9188,,adl
2.395952,-1.5017,-0.4901,0.0902,-0.5867,-0.6801,0.8297,-37.4062,-10.2563,24.9188,,adl
2.408561,-1.5017,-0.4901,0.0902,-0.5867,-0.6801,0.8297,-37.05,-9.5063,25.7438,,adl
2.416019,-1.486,-0.7309,0.374,-0.5867,-0.6801,0.8297,-37.05,-9.5063,25.7438,,adl
2.428989,-1.486,-0.7309,0.374,-0.5867,-0.6801,0.8297,-37.05,-9.5063,25.7438,,adl
2.429885,-1.486,-0.7309,0.374,-0.803,-0.481,1.228,-37.05,-9.5063,25.7438,,adl
2.435714,-0.4555,-1.2055,1.0046,-0.803,-0.481,1.228,-37.05,-9.5063,25.7438,,adl
2.453989,0.2823,-1.5613,0.8325,-0.803,-0.481,1.228,-37.05,-9.5063,25.7438,,adl
2.469503,0.2823,-1.5613,0.8325,-0.803,-0.481,1.228,-37.2375,-7.4438,25.9875,,adl
2.473272,0.0337,-2.2369,0.302,-0.803,-0.481,1.228,-37.2375,-7.4438,25.9875,,adl
2.477006,0.0337,-2.2369,0.302,-0.803,-0.481,1.228,-37.2375,-7.4438,25.9875,,adl
2.490788,0.0337,-2.2369,0.302,-0.8421,0.2813,1.1595,-37.2375,-7.4438,25.9875,,adl
2.492279,0.0406,-2.8898,0.582,-0.8421,0.2813,1.1595,-37.2375,-7.4438,25.9875,,adl
2.511563,0.3672,-3.2587,0.9525,-0.8421,0.2813,1.1595,-37.2375,-7.4438,25.9875,,adl
2.524707,0.3672,-3.2587,0.9525,-0.8421,0.2813,1.1595,-37.2375,-7.4438,25.9875,,adl
2.528235,0.3672,-3.2587,0.9525,-0.8421,0.2813,1.1595,-37.3875,-5.475,22.875,,adl
2.530896,0.6282,-2.9555,1.5538,-0.8421,0.2813,1.1595,-37.3875,-5.475,22.875,,adl
2.548638,0.8183,-1.9039,2.3299,-0.8421,0.2813,1.1595,-37.3875,-5.475,22.875,,adl
2.552836,0.8183,-1.9039,2.3299,-0.8592,0.5171,1.25,-37.3875,-5.475,22.875,,adl
2.568893,1.23,-0.6924,2.6394,-0.8592,0.5171,1.25,-37.3875,-5.475,22.875,,adl
2.572774,1.23,-0.6924,2.6394,-0.8592,0.5171,1.25,-37.3875,-5.475,22.875,,adl
2.589327,1.446,0.6385,2.5568,-0.8592,0.5171,1.25,-37.3875,-5.475,22.875,,adl
2.591944,1.446,0.6385,2.5568,-0.8592,0.5171,1.25,-39.225,-3.4875,22.0125,,adl
2.606222,1.1944,1.5568,1.8778,-0.8592,0.5171,1.25,-39.225,-3.4875,22.0125,,adl
2.614734,1.1944,1.5568,1.8778,0.0974,0.5184,0.8822,-39.225,-3.4875,22.0125,,adl
2.6197,1.1944,1.5568,1.8778,0.0974,0.5184,0.8822,-39.225,-3.4875,22.0125,,adl
2.625734,0.9549,1.9375,1.1141,0.0974,0.5184,0.8822,-39.225,-3.4875,22.0125,,adl
2.645986,1.0954,1.7829,0.5135,0.0974,0.5184,0.8822,-39.225,-3.4875,22.0125,,adl
2.649281,1.0954,1.7829,0.5135,0.0974,0.5184,0.8822,-41.5125,-1.575,19.1813,,adl
2.663785,1.1084,1.2949,0.0269,0.0974,0.5184,0.8822,-41.5125,-1.575,19.1813,,adl
2.66947,1.1084,1.2949,0.0269,0.0974,0.5184,0.8822,-41.5125,-1.575,19.1813,,adl
2.677973,1.1084,1.2949,0.0269,-0.158,-0.1144,0.5951,-41.5125,-1.575,19.1813,,adl
2.683639,1.1534,0.4624,-0.1786,-0.158,-0.1144,0.5951,-41.5125,-1.575,19.1813,,adl
2.702801,1.7276,-0.693,-0.104,-0.158,-0.1144,0.5951,-41.5125,-1.575,19.1813,,adl
2.708025,1.7276,-0.693,-0.104,-0.158,-0.1144,0.5951,-44.2688,-1.1625,20.625,,adl
2.716217,1.7276,-0.693,-0.104,-0.158,-0.1144,0.5951,-44.2688,-1.1625,20.625,,adl
2.720411,2.1134,-0.9292,0.1576,-0.158,-0.1144,0.5951,-44.2688,-1.1625,20.625,,adl
2.740774,2.1134,-0.9292,0.1576,-0.2533,0.3303,0.6341,-44.2688,-1.1625,20.625,,adl
2.742113,2.7085,-0.6502,0.3787,-0.2533,0.3303,0.6341,-44.2688,-1.1625,20.625,,adl
2.760329,3.2096,-0.1596,0.3199,-0.2533,0.3303,0.6341,-44.2688,-1.1625,20.625,,adl
2.765112,3.2096,-0.1596,0.3199,-0.2533,0.3303,0.6341,-44.2688,-1.1625,20.625,,adl
2.770779,3.2096,-0.1596,0.3199,-0.2533,0.3303,0.6341,-43.6688,0.0938,22.4813,,adl
2.778801,3.1723,0.3606,0.0295,-0.2533,0.3303,0.6341,-43.6688,0.0938,22.4813,,adl
2.797953,2.9331,0.7651,-0.2183,-0.2533,0.3303,0.6341,-43.6688,0.0938,22.4813,,adl
2.802643,2.9331,0.7651,-0.2183,-0.0932,1.1733,0.203,-43.6688,0.0938,22.4813,,adl
2.811996,2.9331,0.7651,-0.2183,-0.0932,1.1733,0.203,-43.6688,0.0938,22.4813,,adl
2.817583,2.456,0.8972,-0.3642,-0.0932,1.1733,0.203,-43.6688,0.0938,22.4813,,adl
2.827853,2.456,0.8972,-0.3642,-0.0932,1.1733,0.203,-43.5563,0.6188,19.9875,,adl
2.838528,2.2436,0.5598,-0.4339,-0.0932,1.1733,0.203,-43.5563,0.6188,19.9875,,adl
2.854694,1.983,0.484,-0.4573,-0.0932,1.1733,0.203,-43.5563,0.6188,19.9875,,adl
2.859233,1.983,0.484,-0.4573,-0.0932,1.1733,0.203,-43.5563,0.6188,19.9875,,adl
2.863847,1.983,0.484,-0.4573,-0.1995,1.398,-0.1574,-43.5563,0.6188,19.9875,,adl
2.874634,1.5686,0.6641,-0.4992,-0.1995,1.398,-0.1574,-43.5563,0.6188,19.9875,,adl
2.888095,1.5686,0.6641,-0.4992,-0.1995,1.398,-0.1574,-44.5688,0.2812,16.275,,adl
2.89471,1.0577,0.8446,-0.4836,-0.1995,1.398,-0.1574,-44.5688,0.2812,16.275,,adl
2.906953,1.0577,0.8446,-0.4836,-0.1995,1.398,-0.1574,-44.5688,0.2812,16.275,,adl
2.913989,0.9195,0.9128,-0.4423,-0.1995,1.398,-0.1574,-44.5688,0.2812,16.275,,adl
2.926485,0.9195,0.9128,-0.4423,-0.1726,0.9142,-0.1404,-44.5688,0.2812,16.275,,adl
2.932008,1.1164,0.7634,-0.3832,-0.1726,0.9142,-0.1404,-44.5688,0.2812,16.275,,adl
2.947974,1.1164,0.7634,-0.3832,-0.1726,0.9142,-0.1404,-45.0,-0.5438,13.575,,adl
2.95121,1.1089,0.717,-0.607,-0.1726,0.9142,-0.1404,-45.0,-0.5438,13.575,,adl
2.955449,1.1089,0.717,-0.607,-0.1726,0.9142,-0.1404,-45.0,-0.5438,13.575,,adl
2.970211,0.9599,0.803,-0.6968,-0.1726,0.9142,-0.1404,-45.0,-0.5438,13.575,,adl
2.988766,0.9599,0.803,-0.6968,-0.1275,0.6589,-0.0622,-45.0,-0.5438,13.575,,adl
2.990062,0.8232,0.7796,-0.642,-0.1275,0.6589,-0.0622,-45.0,-0.5438,13.575,,adl
3.003823,0.8232,0.7796,-0.642,-0.1275,0.6589,-0.0622,-45.0,-0.5438,13.575,,adl
3.008421,1.1193,0.6253,-0.4714,-0.1275,0.6589,-0.0622,-45.0,-0.5438,13.575,,adl
3.010619,1.1193,0.6253,-0.4714,-0.1275,0.6589,-0.0622,-44.5688,-0.5813,10.4438,,adl
3.027985,1.3919,0.3722,-0.3602,-0.1275,0.6589,-0.0622,-44.5688,-0.5813,10.4438,,adl
3.047701,1.3006,0.1707,-0.4478,-0.1275,0.6589,-0.0622,-44.5688,-0.5813,10.4438,,adl
3.052716,1.3006,0.1707,-0.4478,-0.1275,0.6589,-0.0622,-44.5688,-0.5813,10.4438,,adl
3.05462,1.3006,0.1707,-0.4478,-0.0627,-0.0118,-0.0817,-44.5688,-0.5813,10.4438,,adl
3.065737,1.0465,0.19,-0.5983,-0.0627,-0.0118,-0.0817,-44.5688,-0.5813,10.4438,,adl
3.067153,1.0465,0.19,-0.5983,-0.0627,-0.0118,-0.0817,-45.4313,-1.3125,11.5125,,adl
3.084941,1.1037,-0.1332,-0.8013,-0.0627,-0.0118,-0.0817,-45.4313,-1.3125,11.5125,,adl
3.099859,1.1037,-0.1332,-0.8013,-0.0627,-0.0118,-0.0817,-45.4313,-1.3125,11.5125,,adl
3.103763,1.3038,-0.4918,-0.7848,-0.0627,-0.0118,-0.0817,-45.4313,-1.3125,11.5125,,adl
3.114099,1.3038,-0.4918,-0.7848,0.0828,-0.0839,0.2567,-45.4313,-1.3125,11.5125,,adl
3.123139,1.9054,-0.7905,-0.7157,0.0828,-0.0839,0.2567,-45.4313,-1.3125,11.5125,,adl
3.128109,1.9054,-0.7905,-0.7157,0.0828,-0.0839,0.2567,-45.6375,-0.9938,11.5125,,adl
3.142485,2.2854,-0.8578,-0.7871,0.0828,-0.0839,0.2567,-45.6375,-0.9938,11.5125,,adl
3.149141,2.2854,-0.8578,-0.7871,0.0828,-0.0839,0.2567,-45.6375,-0.9938,11.5125,,adl
3.161793,1.9347,-1.3548,-1.3401,0.0828,-0.0839,0.2567,-45.6375,-0.9938,11.5125,,adl
3.174719,1.9347,-1.3548,-1.3401,0.0278,-0.0375,-0.1649,-45.6375,-0.9938,11.5125,,adl
3.184856,1.3532,-2.3418,-1.2705,0.0278,-0.0375,-0.1649,-45.6375,-0.9938,11.5125,,adl
3.187564,1.3532,-2.3418,-1.2705,0.0278,-0.0375,-0.1649,-45.5625,-0.7125,11.7188,,adl
3.193991,1.3532,-2.3418,-1.2705,0.0278,-0.0375,-0.1649,-45.5625,-0.7125,11.7188,,adl
3.199591,1.6975,-2.5084,-0.5241,0.0278,-0.0375,-0.1649,-45.5625,-0.7125,11.7188,,adl
3.218297,2.364,-1.7289,-0.4339,0.0278,-0.0375,-0.1649,-45.5625,-0.7125,11.7188,,adl
3.237835,2.364,-1.7289,-0.4339,-0.114,-0.558,-0.2124,-45.5625,-0.7125,11.7188,,adl
3.241188,2.5141,-1.1782,-0.2258,-0.114,-0.558,-0.2124,-45.5625,-0.7125,11.7188,,adl
3.243986,2.5141,-1.1782,-0.2258,-0.114,-0.558,-0.2124,-45.5625,-0.7125,11.7188,,adl
3.247029,2.5141,-1.1782,-0.2258,-0.114,-0.558,-0.2124,-45.2438,-1.4062,13.0688,,adl
3.257004,1.8853,-0.3126,0.0491,-0.114,-0.558,-0.2124,-45.2438,-1.4062,13.0688,,adl
3.276273,1.2096,0.7144,0.6314,-0.114,-0.558,-0.2124,-45.2438,-1.4062,13.0688,,adl
3.290628,1.2096,0.7144,0.6314,-0.114,-0.558,-0.2124,-45.2438,-1.4062,13.0688,,adl
3.299113,0.6431,1.3799,1.0302,-0.114,-0.558,-0.2124,-45.2438,-1.4062,13.0688,,adl
3.30039,0.6431,1.3799,1.0302,-0.0027,0.0652,-0.3895,-45.2438,-1.4062,13.0688,,adl
3.307339,0.6431,1.3799,1.0302,-0.0027,0.0652,-0.3895,-45.1875,-2.6438,12.225,,adl
3.315786,0.3106,1.4172,1.3202,-0.0027,0.0652,-0.3895,-45.1875,-2.6438,12.225,,adl
3.333564,0.1335,1.2555,1.485,-0.0027,0.0652,-0.3895,-45.1875,-2.6438,12.225,,adl
3.337543,0.1335,1.2555,1.485,-0.0027,0.0652,-0.3895,-45.1875,-2.6438,12.225,,adl
3.353484,-0.2187,0.9735,1.3101,-0.0027,0.0652,-0.3895,-45.1875,-2.6438,12.225,,adl
3.361659,-0.2187,0.9735,1.3101,0.2416,-1.346,-0.7036,-45.1875,-2.6438,12.225,,adl
3.369947,-0.2187,0.9735,1.3101,0.2416,-1.346,-0.7036,-45.0563,-3.9938,13.35,,adl
3.371615,-0.3429,0.1948,0.8533,0.2416,-1.346,-0.7036,-45.0563,-3.9938,13.35,,adl
3.385499,-0.3429,0.1948,0.8533,0.2416,-1.346,-0.7036,-45.0563,-3.9938,13.35,,adl
3.392503,-0.1864,-0.9955,0.6294,0.2416,-1.346,-0.7036,-45.0563,-3.9938,13.35,,adl
3.410071,-0.0387,-1.8511,0.7245,0.2416,-1.346,-0.7036,-45.0563,-3.9938,13.35,,adl
3.424463,-0.0387,-1.8511,0.7245,-0.0529,-1.4791,-0.8234,-45.0563,-3.9938,13.35,,adl
3.428195,-0.0387,-1.8511,0.7245,-0.0529,-1.4791,-0.8234,-42.2812,-5.6438,16.275,,adl
3.429874,0.2189,-2.5197,1.1017,-0.0529,-1.4791,-0.8234,-42.2812,-5.6438,16.275,,adl
3.432822,0.2189,-2.5197,1.1017,-0.0529,-1.4791,-0.8234,-42.2812,-5.6438,16.275,,adl
3.448787,0.0003,-2.452,1.7116,-0.0529,-1.4791,-0.8234,-42.2812,-5.6438,16.275,,adl
3.467978,-0.2405,-1.994,2.244,-0.0529,-1.4791,-0.8234,-42.2812,-5.6438,16.275,,adl
3.482912,-0.2405,-1.994,2.244,-0.0529,-1.4791,-0.8234,-42.2812,-5.6438,16.275,,adl
3.485954,-0.2405,-1.994,2.244,0.1499,-1.0174,-1.152,-42.2812,-5.6438,16.275,,adl
3.488293,-1.031,-1.2963,2.2352,0.1499,-1.0174,-1.152,-42.2812,-5.6438,16.275,,adl
3.489394,-1.031,-1.2963,2.2352,0.1499,-1.0174,-1.152,-38.0063,-8.0625,18.0938,,adl
3.505847,-1.5892,-0.7767,1.8237,0.1499,-1.0174,-1.152,-38.0063,-8.0625,18.0938,,adl
3.52488,-1.5993,-0.7713,1.7619,0.1499,-1.0174,-1.152,-38.0063,-8.0625,18.0938,,adl
3.528894,-1.5993,-0.7713,1.7619,0.1499,-1.0174,-1.152,-38.0063,-8.0625,18.0938,,adl
3.543978,-0.982,-1.2728,1.8521,0.1499,-1.0174,-1.152,-38.0063,-8.0625,18.0938,,adl
3.547815,-0.982,-1.2728,1.8521,0.1499,-1.0174,-1.152,-37.4625,-10.6875,22.2188,,adl
3.550008,-0.982,-1.2728,1.8521,0.4052,-0.5518,-0.7206,-37.4625,-10.6875,22.2188,,adl
3.562312,-0.6144,-1.7919,2.2584,0.4052,-0.5518,-0.7206,-37.4625,-10.6875,22.2188,,adl
3.576404,-0.6144,-1.7919,2.2584,0.4052,-0.5518,-0.7206,-37.4625,-10.6875,22.2188,,adl
3.583214,-0.6566,-1.9786,2.3045,0.4052,-0.5518,-0.7206,-37.4625,-10.6875,22.2188,,adl
3.602147,-1.2251,-1.5762,1.7343,0.4052,-0.5518,-0.7206,-37.4625,-10.6875,22.2188,,adl
3.607251,-1.2251,-1.5762,1.7343,0.4052,-0.5518,-0.7206,-35.2875,-11.8875,24.8438,,adl
3.609899,-1.2251,-1.5762,1.7343,1.2287,-0.5457,-0.8661,-35.2875,-11.8875,24.8438,,adl
3.620583,-1.7995,-1.0504,0.8242,1.2287,-0.5457,-0.8661,-35.2875,-11.8875,24.8438,,adl
3.625593,-1.7995,-1.0504,0.8242,1.2287,-0.5457,-0.8661,-35.2875,-11.8875,24.8438,,adl
3.639878,-2.2713,-0.5126,0.0691,1.2287,-0.5457,-0.8661,-35.2875,-11.8875,24.8438,,adl
3.659161,-2.615,-0.1616,-0.3469,1.2287,-0.5457,-0.8661,-35.2875,-11.8875,24.8438,,adl
3.671824,-2.615,-0.1616,-0.3469,1.2287,-0.5457,-0.8661,-34.4062,-12.6375,27.0,,adl
3.675067,-2.615,-0.1616,-0.3469,1.2287,-0.5457,-0.8661,-34.4062,-12.6375,27.0,,adl
3.676532,-2.615,-0.1616,-0.3469,0.8499,-0.3686,-0.6988,-34.4062,-12.6375,27.0,,adl
3.677947,-2.8707,0.1399,-0.5468,0.8499,-0.3686,-0.6988,-34.4062,-12.6375,27.0,,adl
3.696421,-2.9654,0.2254,-0.6144,0.8499,-0.3686,-0.6988,-34.4062,-12.6375,27.0,,adl
3.71646,-3.0635,0.2143,-0.6962,0.8499,-0.3686,-0.6988,-34.4062,-12.6375,27.0,,adl
3.720563,-3.0635,0.2143,-0.6962,0.8499,-0.3686,-0.6988,-34.4062,-12.6375,27.0,,adl
3.728116,-3.0635,0.2143,-0.6962,0.8499,-0.3686,-0.6988,-32.8313,-13.1438,28.0875,,adl
3.734399,-3.0635,0.2143,-0.6962,0.0546,-0.3784,-0.4703,-32.8313,-13.1438,28.0875,,adl
3.736822,-3.0798,-0.1503,-0.7099,0.0546,-0.3784,-0.4703,-32.8313,-13.1438,28.0875,,adl
3.754751,-3.3678,-0.7098,-0.3233,0.0546,-0.3784,-0.4703,-32.8313,-13.1438,28.0875,,adl
3.767842,-3.3678,-0.7098,-0.3233,0.0546,-0.3784,-0.4703,-32.8313,-13.1438,28.0875,,adl
3.773617,-3.48,-1.1321,-0.0222,0.0546,-0.3784,-0.4703,-32.8313,-13.1438,28.0875,,adl
3.788659,-3.48,-1.1321,-0.0222,0.0546,-0.3784,-0.4703,-31.9313,-14.1938,28.6875,,adl
3.793086,-3.0559,-1.3562,0.231,0.0546,-0.3784,-0.4703,-31.9313,-14.1938,28.6875,,adl
3.796384,-3.0559,-1.3562,0.231,-0.2361,-0.1499,0.1845,-31.9313,-14.1938,28.6875,,adl
3.812666,-2.3245,-1.4674,-0.0627,-0.2361,-0.1499,0.1845,-31.9313,-14.1938,28.6875,,adl
3.815692,-2.3245,-1.4674,-0.0627,-0.2361,-0.1499,0.1845,-31.9313,-14.1938,28.6875,,adl
3.830906,-2.2856,-2.2904,-1.083,-0.2361,-0.1499,0.1845,-31.9313,-14.1938,28.6875,,adl
3.847409,-2.2856,-2.2904,-1.083,-0.2361,-0.1499,0.1845,-31.5563,-13.725,28.7813,,adl
3.849486,-2.5885,-2.7936,-1.1607,-0.2361,-0.1499,0.1845,-31.5563,-13.725,28.7813,,adl
3.860355,-2.5885,-2.7936,-1.1607,-0.7432,0.224,0.5486,-31.5563,-13.725,28.7813,,adl
3.864289,-2.5885,-2.7936,-1.1607,-0.7432,0.224,0.5486,-31.5563,-13.725,28.7813,,adl
3.86813,-2.456,-3.0496,-0.6137,-0.7432,0.224,0.5486,-31.5563,-13.725,28.7813,,adl
3.888814,-2.1046,-2.9408,0.1547,-0.7432,0.224,0.5486,-31.5563,-13.725,28.7813,,adl
3.908554,-1.7435,-1.8407,1.4378,-0.7432,0.224,0.5486,-31.5563,-13.725,28.7813,,adl
3.912329,-1.7435,-1.8407,1.4378,-0.7432,0.224,0.5486,-33.3,-13.5563,26.9625,,adl
3.9147,-1.7435,-1.8407,1.4378,-0.7432,0.224,0.5486,-33.3,-13.5563,26.9625,,adl
3.920455,-1.7435,-1.8407,1.4378,-0.5782,0.9545,1.1828,-33.3,-13.5563,26.9625,,adl
3.92655,-1.2859,-0.1853,1.9484,-0.5782,0.9545,1.1828,-33.3,-13.5563,26.9625,,adl
3.94542,-0.9237,0.8544,1.5836,-0.5782,0.9545,1.1828,-33.3,-13.5563,26.9625,,adl
3.959362,-0.9237,0.8544,1.5836,-0.5782,0.9545,1.1828,-33.3,-13.5563,26.9625,,adl
3.964689,-0.8014,1.0315,0.575,-0.5782,0.9545,1.1828,-33.3,-13.5563,26.9625,,adl
3.967285,-0.8014,1.0315,0.575,-0.5782,0.9545,1.1828,-33.525,-11.3813,21.7875,,adl
3.982914,-0.8014,1.0315,0.575,0.1951,0.6589,1.052,-33.525,-11.3813,21.7875,,adl
3.98461,-0.8625,0.5013,-0.4481,0.1951,0.6589,1.052,-33.525,-11.3813,21.7875,,adl
4.002811,-0.796,-0.4734,-1.0766,0.1951,0.6589,1.052,-33.525,-11.3813,21.7875,,adl
4.0069,-0.796,-0.4734,-1.0766,0.1951,0.6589,1.052,-33.525,-11.3813,21.7875,,adl
4.02239,-0.6315,-1.3912,-0.8564,0.1951,0.6589,1.052,-33.525,-11.3813,21.7875,,adl
4.027845,-0.6315,-1.3912,-0.8564,0.1951,0.6589,1.052,-36.7313,-8.5312,18.9,,adl
4.040818,-0.4694,-1.4528,-0.0939,0.1951,0.6589,1.052,-36.7313,-8.5312,18.9,,adl
4.044911,-0.4694,-1.4528,-0.0939,-0.5159,0.2045,1.0043,-36.7313,-8.5312,18.9,,adl
4.055229,-0.4694,-1.4528,-0.0939,-0.5159,0.2045,1.0043,-36.7313,-8.5312,18.9,,adl
4.06034,0.0022,-1.0695,0.6126,-0.5159,0.2045,1.0043,-36.7313,-8.5312,18.9,,adl
4.079422,0.3064,-0.6529,0.8167,-0.5159,0.2045,1.0043,-36.7313,-8.5312,18.9,,adl
4.087922,0.3064,-0.6529,0.8167,-0.5159,0.2045,1.0043,-40.7625,-7.4625,17.775,,adl
4.098827,0.6678,-0.1118,0.69,-0.5159,0.2045,1.0043,-40.7625,-7.4625,17.775,,adl
4.104511,0.6678,-0.1118,0.69,-0.5159,0.2045,1.0043,-40.7625,-7.4625,17.775,,adl
4.10699,0.6678,-0.1118,0.69,0.0436,0.0883,0.9274,-40.7625,-7.4625,17.775,,adl
4.117817,0.9016,0.1656,0.396,0.0436,0.0883,0.9274,-40.7625,-7.4625,17.775,,adl
4.13692,0.8254,0.383,-0.0062,0.0436,0.0883,0.9274,-40.7625,-7.4625,17.775,,adl
4.148637,0.8254,0.383,-0.0062,0.0436,0.0883,0.9274,-42.3188,-5.9438,21.675,,adl
4.152192,0.8254,0.383,-0.0062,0.0436,0.0883,0.9274,-42.3188,-5.9438,21.675,,adl
4.155952,0.8804,0.373,-0.3923,0.0436,0.0883,0.9274,-42.3188,-5.9438,21.675,,adl
4.169465,0.8804,0.373,-0.3923,0.1121,-0.1169,0.7356,-42.3188,-5.9438,21.675,,adl
4.175043,1.0965,0.3181,-0.7134,0.1121,-0.1169,0.7356,-42.3188,-5.9438,21.675,,adl
4.194676,1.5354,0.2464,-1.0174,0.1121,-0.1169,0.7356,-42.3188,-5.9438,21.675,,adl
4.198332,1.5354,0.2464,-1.0174,0.1121,-0.1169,0.7356,-42.3188,-5.9438,21.675,,adl
4.208657,1.5354,0.2464,-1.0174,0.1121,-0.1169,0.7356,-40.4813,-4.4813,24.5438,,adl
4.213256,1.6499,0.5046,-1.2014,0.1121,-0.1169,0.7356,-40.4813,-4.4813,24.5438,,adl
4.231878,1.6499,0.5046,-1.2014,0.0473,0.208,0.7307,-40.4813,-4.4813,24.5438,,adl
4.233523,1.6523,0.7083,-1.1787,0.0473,0.208,0.7307,-40.4813,-4.4813,24.5438,,adl
4.24555,1.6523,0.7083,-1.1787,0.0473,0.208,0.7307,-40.4813,-4.4813,24.5438,,adl
4.251577,1.8641,0.8322,-1.1076,0.0473,0.208,0.7307,-40.4813,-4.4813,24.5438,,adl
4.267982,1.8641,0.8322,-1.1076,0.0473,0.208,0.7307,-39.9563,-2.7,24.3188,,adl
4.272695,2.1157,0.9087,-0.9252,0.0473,0.208,0.7307,-39.9563,-2.7,24.3188,,adl
4.289316,2.4411,0.9502,-0.7274,0.0473,0.208,0.7307,-39.9563,-2.7,24.3188,,adl
4.294509,2.4411,0.9502,-0.7274,0.0473,0.208,0.7307,-39.9563,-2.7,24.3188,,adl
4.296821,2.4411,0.9502,-0.7274,-0.0297,0.2533,0.6622,-39.9563,-2.7,24.3188,,adl
4.309087,2.7394,0.9598,-0.7988,-0.0297,0.2533,0.6622,-39.9563,-2.7,24.3188,,adl
4.328295,2.7977,0.9394,-1.0691,-0.0297,0.2533,0.6622,-39.9563,-2.7,24.3188,,adl
4.332461,2.7977,0.9394,-1.0691,-0.0297,0.2533,0.6622,-39.6375,-1.1063,23.8125,,adl
4.341565,2.7977,0.9394,-1.0691,-0.0297,0.2533,0.6622,-39.6375,-1.1063,23.8125,,adl
4.348635,2.7146,0.724,-1.4019,-0.0297,0.2533,0.6622,-39.6375,-1.1063,23.8125,,adl
4.358059,2.7146,0.724,-1.4019,-0.0553,0.0089,0.3446,-39.6375,-1.1063,23.8125,,adl
4.366982,2.8086,0.4281,-1.4342,-0.0553,0.0089,0.3446,-39.6375,-1.1063,23.8125,,adl
4.386914,3.0014,0.1474,-1.2694,-0.0553,0.0089,0.3446,-39.6375,-1.1063,23.8125,,adl
4.391162,3.0014,0.1474,-1.2694,-0.0553,0.0089,0.3446,-39.6375,-0.9,23.9062,,adl
4.393698,3.0014,0.1474,-1.2694,-0.0553,0.0089,0.3446,-39.6375,-0.9,23.9062,,adl
4.404782,3.2365,-0.081,-1.3027,-0.0553,0.0089,0.3446,-39.6375,-0.9,23.9062,,adl
4.418148,3.2365,-0.081,-1.3027,-0.0382,0.0675,0.1405,-39.6375,-0.9,23.9062,,adl
4.423157,3.2466,-0.2199,-1.1802,-0.0382,0.0675,0.1405,-39.6375,-0.9,23.9062,,adl
4.436989,3.2466,-0.2199,-1.1802,-0.0382,0.0675,0.1405,-39.6375,-0.9,23.9062,,adl
4.44267,3.1013,-0.222,-1.1743,-0.0382,0.0675,0.1405,-39.6375,-0.9,23.9062,,adl
4.449518,3.1013,-0.222,-1.1743,-0.0382,0.0675,0.1405,-39.375,-0.1125,23.8125,,adl
4.461341,2.9778,-0.4648,-1.4612,-0.0382,0.0675,0.1405,-39.375,-0.1125,23.8125,,adl
4.480482,2.9778,-0.4648,-1.4612,-0.1495,0.7004,-0.0206,-39.375,-0.1125,23.8125,,adl
4.48405,2.377,-1.729,-1.5345,-0.1495,0.7004,-0.0206,-39.375,-0.1125,23.8125,,adl
4.486595,2.377,-1.729,-1.5345,-0.1495,0.7004,-0.0206,-39.375,-0.1125,23.8125,,adl
4.500238,2.1952,-2.7398,-0.79,-0.1495,0.7004,-0.0206,-39.375,-0.1125,23.8125,,adl
4.50763,2.1952,-2.7398,-0.79,-0.1495,0.7004,-0.0206,-40.725,-0.2438,21.5625,,adl
4.519179,2.7656,-2.7333,0.0125,-0.1495,0.7004,-0.0206,-40.725,-0.2438,21.5625,,adl
4.532216,2.7656,-2.7333,0.0125,-0.1495,0.7004,-0.0206,-40.725,-0.2438,21.5625,,adl
4.538262,3.3978,-2.1091,0.4246,-0.1495,0.7004,-0.0206,-40.725,-0.2438,21.5625,,adl
4.541975,3.3978,-2.1091,0.4246,-0.1555,0.0957,-0.1026,-40.725,-0.2438,21.5625,,adl
4.55699,3.464,-1.0094,0.6996,-0.1555,0.0957,-0.1026,-40.725,-0.2438,21.5625,,adl
4.568324,3.464,-1.0094,0.6996,-0.1555,0.0957,-0.1026,-40.5,-0.6938,20.7188,,adl
4.576752,2.9287,0.1099,0.6227,-0.1555,0.0957,-0.1026,-40.5,-0.6938,20.7188,,adl
4.581045,2.9287,0.1099,0.6227,-0.1555,0.0957,-0.1026,-40.5,-0.6938,20.7188,,adl
4.596401,2.2631,0.7499,0.6615,-0.1555,0.0957,-0.1026,-40.5,-0.6938,20.7188,,adl
4.603938,2.2631,0.7499,0.6615,0.0656,0.2898,-0.7366,-40.5,-0.6938,20.7188,,adl
4.61443,1.59,1.2822,0.7567,0.0656,0.2898,-0.7366,-40.5,-0.6938,20.7188,,adl
4.627913,1.59,1.2822,0.7567,0.0656,0.2898,-0.7366,-41.1,-2.55,20.625,,adl
4.629184,1.59,1.2822,0.7567,0.0656,0.2898,-0.7366,-41.1,-2.55,20.625,,adl
4.633295,1.0655,1.4328,0.7343,0.0656,0.2898,-0.7366,-41.1,-2.55,20.625,,adl
4.652526,0.5275,1.0385,0.3568,0.0656,0.2898,-0.7366,-41.1,-2.55,20.625,,adl
4.666573,0.5275,1.0385,0.3568,0.1841,-0.3222,-1.0335,-41.1,-2.55,20.625,,adl
4.672544,0.0789,0.041,-0.167,0.1841,-0.3222,-1.0335,-41.1,-2.55,20.625,,adl
4.676254,0.0789,0.041,-0.167,0.1841,-0.3222,-1.0335,-41.1,-2.55,20.625,,adl
4.687995,0.0789,0.041,-0.167,0.1841,-0.3222,-1.0335,-41.6813,-4.6875,20.0063,,adl
4.692706,-0.3554,-1.0659,-0.4225,0.1841,-0.3222,-1.0335,-41.6813,-4.6875,20.0063,,adl
4.711027,-0.5924,-2.0578,-0.1456,0.1841,-0.3222,-1.0335,-41.6813,-4.6875,20.0063,,adl
4.728116,-0.5924,-2.0578,-0.1456,0.1841,-0.3222,-1.0335,-41.6813,-4.6875,20.0063,,adl
4.730811,-0.5924,-2.0578,-0.1456,-0.4218,-1.1249,-0.8368,-41.6813,-4.6875,20.0063,,adl
4.732548,-0.3746,-2.238,0.5963,-0.4218,-1.1249,-0.8368,-41.6813,-4.6875,20.0063,,adl
4.747859,-0.3746,-2.238,0.5963,-0.4218,-1.1249,-0.8368,-40.05,-6.3375,20.3625,,adl
4.749588,0.2594,-2.0711,1.1508,-0.4218,-1.1249,-0.8368,-40.05,-6.3375,20.3625,,adl
4.768127,0.7089,-1.6466,1.4559,-0.4218,-1.1249,-0.8368,-40.05,-6.3375,20.3625,,adl
4.772057,0.7089,-1.6466,1.4559,-0.4218,-1.1249,-0.8368,-40.05,-6.3375,20.3625,,adl
4.788111,0.5033,-1.1407,1.7155,-0.4218,-1.1249,-0.8368,-40.05,-6.3375,20.3625,,adl
4.790293,0.5033,-1.1407,1.7155,-0.1323,-0.3051,-0.9247,-40.05,-6.3375,20.3625,,adl
4.806648,-0.1189,-0.8623,1.8093,-0.1323,-0.3051,-0.9247,-40.05,-6.3375,20.3625,,adl
4.809651,-0.1189,-0.8623,1.8093,-0.1323,-0.3051,-0.9247,-37.1063,-7.6313,22.2375,,adl
4.819424,-0.1189,-0.8623,1.8093,-0.1323,-0.3051,-0.9247,-37.1063,-7.6313,22.2375,,adl
4.826758,-0.854,-0.9481,1.7957,-0.1323,-0.3051,-0.9247,-37.1063,-7.6313,22.2375,,adl
4.844012,-1.4427,-1.1464,1.8247,-0.1323,-0.3051,-0.9247,-37.1063,-7.6313,22.2375,,adl
4.852582,-1.4427,-1.1464,1.8247,0.0681,-0.1781,-1.191,-37.1063,-7.6313,22.2375,,adl
4.862812,-1.7077,-1.4399,1.7884,0.0681,-0.1781,-1.191,-37.1063,-7.6313,22.2375,,adl
4.866976,-1.7077,-1.4399,1.7884,0.0681,-0.1781,-1.191,-37.1063,-7.6313,22.2375,,adl
4.868494,-1.7077,-1.4399,1.7884,0.0681,-0.1781,-1.191,-35.3438,-10.4625,24.1313,,adl
4.882858,-2.168,-1.4319,1.619,0.0681,-0.1781,-1.191,-35.3438,-10.4625,24.1313,,adl
4.90201,-2.5639,-1.3101,1.4703,0.0681,-0.1781,-1.191,-35.3438,-10.4625,24.1313,,adl
4.917357,-2.5639,-1.3101,1.4703,0.0681,-0.1781,-1.191,-35.3438,-10.4625,24.1313,,adl
4.920728,-2.5639,-1.3101,1.4703,0.2806,-0.597,-1.1593,-35.3438,-10.4625,24.1313,,adl
4.923673,-2.931,-1.0904,1.3033,0.2806,-0.597,-1.1593,-35.3438,-10.4625,24.1313,,adl
4.927868,-2.931,-1.0904,1.3033,0.2806,-0.597,-1.1593,-34.1438,-11.7188,26.3813,,adl
4.939665,-3.1958,-0.7077,1.1017,0.2806,-0.597,-1.1593,-34.1438,-11.7188,26.3813,,adl
4.959341,-3.2685,-0.5876,0.7998,0.2806,-0.597,-1.1593,-34.1438,-11.7188,26.3813,,adl
4.9629,-3.2685,-0.5876,0.7998,0.2806,-0.597,-1.1593,-34.1438,-11.7188,26.3813,,adl
4.977964,-3.2685,-0.5876,0.7998,0.3246,-0.371,-0.7501,-34.1438,-11.7188,26.3813,,adl
4.981485,-3.321,-0.513,0.459,0.3246,-0.371,-0.7501,-34.1438,-11.7188,26.3813,,adl
4.989774,-3.321,-0.513,0.459,0.3246,-0.371,-0.7501,-31.9875,-12.6188,28.9125,,adl
4.997808,-3.3276,-0.5077,0.3129,0.3246,-0.371,-0.7501,-31.9875,-12.6188,28.9125,,adl
5.010955,-3.3276,-0.5077,0.3129,0.3246,-0.371,-0.7501,-31.9875,-12.6188,28.9125,,adl
5.016682,-3.3645,-0.4272,0.2806,0.3246,-0.371,-0.7501,-31.9875,-12.6188,28.9125,,adl
5.035923,-3.2649,-0.475,0.1909,0.3246,-0.371,-0.7501,-31.9875,-12.6188,28.9125,,adl
5.04023,-3.2649,-0.475,0.1909,0.0864,-0.1341,-0.3407,-31.9875,-12.6188,28.9125,,adl
5.051088,-3.2649,-0.475,0.1909,0.0864,-0.1341,-0.3407,-30.6188,-12.9563,28.8563,,adl
5.054194,-3.2274,-0.8035,0.0373,0.0864,-0.1341,-0.3407,-30.6188,-12.9563,28.8563,,adl
5.061203,-3.2274,-0.8035,0.0373,0.0864,-0.1341,-0.3407,-30.6188,-12.9563,28.8563,,adl
5.073307,-3.2446,-1.1116,-0.0337,0.0864,-0.1341,-0.3407,-30.6188,-12.9563,28.8563,,adl
5.09311,-3.2027,-1.3207,-0.0048,0.0864,-0.1341,-0.3407,-30.6188,-12.9563,28.8563,,adl
5.101902,-3.2027,-1.3207,-0.0048,-0.2007,0.1372,0.104,-30.6188,-12.9563,28.8563,,adl
5.106833,-3.2027,-1.3207,-0.0048,-0.2007,0.1372,0.104,-30.6188,-12.9563,28.8563,,adl
5.110186,-3.2027,-1.3207,-0.0048,-0.2007,0.1372,0.104,-31.0313,-12.2438,28.6688,,adl
5.112347,-2.8637,-1.6621,-0.0635,-0.2007,0.1372,0.104,-31.0313,-12.2438,28.6688,,adl
5.131003,-2.3191,-2.3573,-0.6066,-0.2007,0.1372,0.104,-31.0313,-12.2438,28.6688,,adl
5.150632,-2.2495,-3.6065,-1.2481,-0.2007,0.1372,0.104,-31.0313,-12.2438,28.6688,,adl
5.153765,-2.2495,-3.6065,-1.2481,-0.2007,0.1372,0.104,-31.0313,-12.2438,28.6688,,adl
5.163747,-2.2495,-3.6065,-1.2481,-0.8214,0.4414,0.3886,-31.0313,-12.2438,28.6688,,adl
5.168407,-2.2495,-3.6065,-1.2481,-0.8214,0.4414,0.3886,-30.75,-11.475,27.1125,,adl
5.171062,-2.1444,-4.132,-1.1809,-0.8214,0.4414,0.3886,-30.75,-11.475,27.1125,,adl
5.188907,-2.0527,-3.5717,-0.6613,-0.8214,0.4414,0.3886,-30.75,-11.475,27.1125,,adl
5.202097,-2.0527,-3.5717,-0.6613,-0.8214,0.4414,0.3886,-30.75,-11.475,27.1125,,adl
5.207122,-2.1511,-2.9353,-0.1193,-0.8214,0.4414,0.3886,-30.75,-11.475,27.1125,,adl
5.226778,-2.1511,-2.9353,-0.1193,-0.6834,0.946,1.0544,-30.75,-11.475,27.1125,,adl
5.229789,-2.1116,-1.2774,0.8239,-0.6834,0.946,1.0544,-30.75,-11.475,27.1125,,adl
5.231922,-2.1116,-1.2774,0.8239,-0.6834,0.946,1.0544,-31.9125,-11.25,25.4813,,adl
5.246065,-1.5045,0.5351,1.3643,-0.6834,0.946,1.0544,-31.9125,-11.25,25.4813,,adl
5.249907,-1.5045,0.5351,1.3643,-0.6834,0.946,1.0544,-31.9125,-11.25,25.4813,,adl
5.265799,-1.0528,1.6941,1.1816,-0.6834,0.946,1.0544,-31.9125,-11.25,25.4813,,adl
5.283809,-0.869,2.2339,0.8897,-0.6834,0.946,1.0544,-31.9125,-11.25,25.4813,,adl
5.28831,-0.869,2.2339,0.8897,-0.6834,0.946,1.0544,-32.9625,-8.8688,22.6313,,adl
5.291269,-0.869,2.2339,0.8897,0.2745,0.4658,1.2011,-32.9625,-8.8688,22.6313,,adl
5.29761,-0.869,2.2339,0.8897,0.2745,0.4658,1.2011,-32.9625,-8.8688,22.6313,,adl
5.303643,-0.8349,2.3339,0.3115,0.2745,0.4658,1.2011,-32.9625,-8.8688,22.6313,,adl
5.322631,-0.878,2.1696,-0.194,0.2745,0.4658,1.2011,-32.9625,-8.8688,22.6313,,adl
5.341673,-0.882,1.3584,-0.8786,0.2745,0.4658,1.2011,-32.9625,-8.8688,22.6313,,adl
5.345332,-0.882,1.3584,-0.8786,0.2745,0.4658,1.2011,-32.9625,-8.8688,22.6313,,adl
5.347444,-0.882,1.3584,-0.8786,0.2745,0.4658,1.2011,-34.0688,-6.6375,17.1562,,adl
5.349836,-0.882,1.3584,-0.8786,0.1548,-0.4883,1.2719,-34.0688,-6.6375,17.1562,,adl
5.360047,-0.6453,0.0779,-1.1153,0.1548,-0.4883,1.2719,-34.0688,-6.6375,17.1562,,adl
5.380132,-0.2182,-1.2673,-0.9352,0.1548,-0.4883,1.2719,-34.0688,-6.6375,17.1562,,adl
5.39522,-0.2182,-1.2673,-0.9352,0.1548,-0.4883,1.2719,-34.0688,-6.6375,17.1562,,adl
5.399223,0.8051,-2.0688,-0.1654,0.1548,-0.4883,1.2719,-34.0688,-6.6375,17.1562,,adl
5.408426,0.8051,-2.0688,-0.1654,0.1548,-0.4883,1.2719,-37.5375,-4.6125,23.4188,,adl
5.412218,0.8051,-2.0688,-0.1654,-0.2558,-0.4114,1.8839,-37.5375,-4.6125,23.4188,,adl
5.417611,2.3884,-2.0646,0.7026,-0.2558,-0.4114,1.8839,-37.5375,-4.6125,23.4188,,adl
5.437432,3.5786,-1.3076,0.9893,-0.2558,-0.4114,1.8839,-37.5375,-4.6125,23.4188,,adl
5.441347,3.5786,-1.3076,0.9893,-0.2558,-0.4114,1.8839,-37.5375,-4.6125,23.4188,,adl
5.457052,4.0588,-0.618,1.007,-0.2558,-0.4114,1.8839,-37.5375,-4.6125,23.4188,,adl
5.467432,4.0588,-0.618,1.007,-0.2558,-0.4114,1.8839,-36.15,-0.9,25.4813,,adl
5.475608,4.0588,-0.618,1.007,0.3514,-0.0741,1.0861,-36.15,-0.9,25.4813,,adl
5.479157,3.8687,-0.3196,0.9553,0.3514,-0.0741,1.0861,-36.15,-0.9,25.4813,,adl
5.489288,3.8687,-0.3196,0.9553,0.3514,-0.0741,1.0861,-36.15,-0.9,25.4813,,adl
5.494522,3.2885,-0.1167,0.7278,0.3514,-0.0741,1.0861,-36.15,-0.9,25.4813,,adl
5.514173,2.8896,0.1245,0.585,0.3514,-0.0741,1.0861,-36.15,-0.9,25.4813,,adl
5.528782,2.8896,0.1245,0.585,0.3514,-0.0741,1.0861,-34.9875,1.3313,25.4625,,adl
5.53315,2.9001,0.2702,0.4833,0.3514,-0.0741,1.0861,-34.9875,1.3313,25.4625,,adl
5.537131,2.9001,0.2702,0.4833,0.3514,-0.0741,1.0861,-34.9875,1.3313,25.4625,,adl
5.538948,2.9001,0.2702,0.4833,0.1792,-0.1671,0.5096,-34.9875,1.3313,25.4625,,adl
5.552097,2.9533,0.1758,0.2685,0.1792,-0.1671,0.5096,-34.9875,1.3313,25.4625,,adl
5.572101,2.952,0.1362,0.1397,0.1792,-0.1671,0.5096,-34.9875,1.3313,25.4625,,adl
5.585328,2.952,0.1362,0.1397,0.1792,-0.1671,0.5096,-34.9875,1.3313,25.4625,,adl
5.588657,2.952,0.1362,0.1397,0.1792,-0.1671,0.5096,-33.7125,1.6313,24.8063,,adl
5.591102,2.8889,0.3269,0.068,0.1792,-0.1671,0.5096,-33.7125,1.6313,24.8063,,adl
5.598838,2.8889,0.3269,0.068,0.3369,-0.2819,0.2456,-33.7125,1.6313,24.8063,,adl
5.608992,2.8636,0.5995,-0.2213,0.3369,-0.2819,0.2456,-33.7125,1.6313,24.8063,,adl
5.628813,2.8386,0.7048,-0.5742,0.3369,-0.2819,0.2456,-33.7125,1.6313,24.8063,,adl
5.633192,2.8386,0.7048,-0.5742,0.3369,-0.2819,0.2456,-33.7125,1.6313,24.8063,,adl
5.647922,2.6545,0.7479,-0.7472,0.3369,-0.2819,0.2456,-33.7125,1.6313,24.8063,,adl
5.651364,2.6545,0.7479,-0.7472,0.3369,-0.2819,0.2456,-33.6,3.075,25.5375,,adl
5.661521,2.6545,0.7479,-0.7472,0.3697,-0.2134,0.0184,-33.6,3.075,25.5375,,adl
5.665672,2.4189,0.732,-0.7651,0.3697,-0.2134,0.0184,-33.6,3.075,25.5375,,adl
5.68025,2.4189,0.732,-0.7651,0.3697,-0.2134,0.0184,-33.6,3.075,25.5375,,adl
5.685298,2.2765,0.5689,-0.8032,0.3697,-0.2134,0.0184,-33.6,3.075,25.5375,,adl
5.705462,2.4208,0.2534,-0.8037,0.3697,-0.2134,0.0184,-33.6,3.075,25.5375,,adl
5.709253,2.4208,0.2534,-0.8037,0.3697,-0.2134,0.0184,-33.0375,3.7313,25.725,,adl
5.723753,2.4208,0.2534,-0.8037,0.3014,-0.817,-0.1686,-33.0375,3.7313,25.725,,adl
5.725495,2.4956,0.079,-0.8859,0.3014,-0.817,-0.1686,-33.0375,3.7313,25.725,,adl
5.728251,2.4956,0.079,-0.8859,0.3014,-0.817,-0.1686,-33.0375,3.7313,25.725,,adl
5.743879,2.6111,0.0951,-1.0345,0.3014,-0.817,-0.1686,-33.0375,3.7313,25.725,,adl
5.762625,2.517,0.2292,-1.2726,0.3014,-0.817,-0.1686,-33.0375,3.7313,25.725,,adl
5.767814,2.517,0.2292,-1.2726,0.3014,-0.817,-0.1686,-31.275,3.375,25.9875,,adl
5.77602,2.517,0.2292,-1.2726,0.3014,-0.817,-0.1686,-31.275,3.375,25.9875,,adl
5.782473,2.3198,0.2802,-1.4649,0.3014,-0.817,-0.1686,-31.275,3.375,25.9875,,adl
5.785444,2.3198,0.2802,-1.4649,0.3539,-0.773,-0.4557,-31.275,3.375,25.9875,,adl
5.801198,1.875,0.3764,-1.4684,0.3539,-0.773,-0.4557,-31.275,3.375,25.9875,,adl
5.820233,1.3157,0.4624,-1.289,0.3539,-0.773,-0.4557,-31.275,3.375,25.9875,,adl
5.823924,1.3157,0.4624,-1.289,0.3539,-0.773,-0.4557,-31.275,3.375,25.9875,,adl
5.8265,1.3157,0.4624,-1.289,0.3539,-0.773,-0.4557,-28.8,2.7,24.3563,,adl
5.839736,0.8646,0.2635,-1.1782,0.3539,-0.773,-0.4557,-28.8,2.7,24.3563,,adl
5.851209,0.8646,0.2635,-1.1782,0.1462,-0.2342,-0.386,-28.8,2.7,24.3563,,adl
5.858569,0.271,-0.7555,-1.2575,0.1462,-0.2342,-0.386,-28.8,2.7,24.3563,,adl
5.871296,0.271,-0.7555,-1.2575,0.1462,-0.2342,-0.386,-28.8,2.7,24.3563,,adl
5.877186,-0.023,-1.8057,-0.431,0.1462,-0.2342,-0.386,-28.8,2.7,24.3563,,adl
5.888311,-0.023,-1.8057,-0.431,0.1462,-0.2342,-0.386,-30.3375,2.4375,24.5063,,adl
5.895728,0.5715,-2.0407,0.3602,0.1462,-0.2342,-0.386,-30.3375,2.4375,24.5063,,adl
5.909137,0.5715,-2.0407,0.3602,-0.1727,-0.7448,0.0832,-30.3375,2.4375,24.5063,,adl
5.915274,1.2451,-1.8482,0.751,-0.1727,-0.7448,0.0832,-30.3375,2.4375,24.5063,,adl
5.919103,1.2451,-1.8482,0.751,-0.1727,-0.7448,0.0832,-30.3375,2.4375,24.5063,,adl
5.934633,1.4384,-1.178,1.1726,-0.1727,-0.7448,0.0832,-30.3375,2.4375,24.5063,,adl
5.949529,1.4384,-1.178,1.1726,-0.1727,-0.7448,0.0832,-30.0563,2.9438,24.075,,adl
5.953792,1.2766,-0.5318,1.5416,-0.1727,-0.7448,0.0832,-30.0563,2.9438,24.075,,adl
5.96699,1.2766,-0.5318,1.5416,-0.1727,-0.7448,0.0832,-30.0563,2.9438,24.075,,adl
5.97215,1.2766,-0.5318,1.5416,0.2634,-0.6691,-0.149,-30.0563,2.9438,24.075,,adl
5.973664,0.8688,-0.1221,1.7461,0.2634,-0.6691,-0.149,-30.0563,2.9438,24.075,,adl
5.992414,0.5075,0.0868,1.8476,0.2634,-0.6691,-0.149,-30.0563,2.9438,24.075,,adl
6.008734,0.5075,0.0868,1.8476,0.2634,-0.6691,-0.149,-30.5438,2.3063,25.2375,,adl
6.012194,0.1421,0.1476,1.9317,0.2634,-0.6691,-0.149,-30.5438,2.3063,25.2375,,adl
6.016413,0.1421,0.1476,1.9317,0.2634,-0.6691,-0.149,-30.5438,2.3063,25.2375,,adl
6.029801,-0.449,0.1787,1.9628,0.2634,-0.6691,-0.149,-30.5438,2.3063,25.2375,,adl
6.034199,-0.449,0.1787,1.9628,0.4102,-1.0614,-0.5692,-30.5438,2.3063,25.2375,,adl
6.049706,-0.9786,0.1595,1.6827,0.4102,-1.0614,-0.5692,-30.5438,2.3063,25.2375,,adl
6.062942,-0.9786,0.1595,1.6827,0.4102,-1.0614,-0.5692,-30.5438,2.3063,25.2375,,adl
6.068439,-1.2933,-0.4263,0.967,0.4102,-1.0614,-0.5692,-30.5438,2.3063,25.2375,,adl
6.071107,-1.2933,-0.4263,0.967,0.4102,-1.0614,-0.5692,-31.1625,0.675,26.3813,,adl
6.087148,-1.6188,-1.1115,0.3556,0.4102,-1.0614,-0.5692,-31.1625,0.675,26.3813,,adl
6.096199,-1.6188,-1.1115,0.3556,0.4345,-2.09,-0.4837,-31.1625,0.675,26.3813,,adl
6.107045,-1.8938,-1.5312,0.372,0.4345,-2.09,-0.4837,-31.1625,0.675,26.3813,,adl
6.110988,-1.8938,-1.5312,0.372,0.4345,-2.09,-0.4837,-31.1625,0.675,26.3813,,adl
6.125748,-1.8526,-1.5743,0.7651,0.4345,-2.09,-0.4837,-31.1625,0.675,26.3813,,adl
6.127458,-1.8526,-1.5743,0.7651,0.4345,-2.09,-0.4837,-30.1688,-0.15,28.1063,,adl
6.145165,-1.2528,-1.6604,1.1805,0.4345,-2.09,-0.4837,-30.1688,-0.15,28.1063,,adl
6.158447,-1.2528,-1.6604,1.1805,0.4345,-2.09,-0.4837,-30.1688,-0.15,28.1063,,adl
6.161809,-1.2528,-1.6604,1.1805,0.1976,-2.5359,0.011,-30.1688,-0.15,28.1063,,adl
6.164626,-0.6215,-1.4481,1.4663,0.1976,-2.5359,0.011,-30.1688,-0.15,28.1063,,adl
6.183697,-0.1144,-1.0273,1.632,0.1976,-2.5359,0.011,-30.1688,-0.15,28.1063,,adl
6.188108,-0.1144,-1.0273,1.632,0.1976,-2.5359,0.011,-24.9563,0.225,30.6563,,adl
6.203114,0.1124,-0.656,1.6853,0.1976,-2.5359,0.011,-24.9563,0.225,30.6563,,adl
6.206167,0.1124,-0.656,1.6853,0.1976,-2.5359,0.011,-24.9563,0.225,30.6563,,adl
6.220861,0.1124,-0.656,1.6853,0.3454,-2.0289,-0.2784,-24.9563,0.225,30.6563,,adl
6.222479,0.1232,-0.4799,1.6365,0.3454,-2.0289,-0.2784,-24.9563,0.225,30.6563,,adl
6.241135,-0.1704,-0.5864,1.272,0.3454,-2.0289,-0.2784,-24.9563,0.225,30.6563,,adl
6.250962,-0.1704,-0.5864,1.272,0.3454,-2.0289,-0.2784,-20.175,-0.7688,33.4313,,adl
6.253118,-0.1704,-0.5864,1.272,0.3454,-2.0289,-0.2784,-20.175,-0.7688,33.4313,,adl
6.261622,-0.5963,-0.4847,1.0068,0.3454,-2.0289,-0.2784,-20.175,-0.7688,33.4313,,adl
6.278844,-0.8639,-0.2396,0.8581,0.3454,-2.0289,-0.2784,-20.175,-0.7688,33.4313,,adl
6.282677,-0.8639,-0.2396,0.8581,0.2513,-1.6771,-0.6083,-20.175,-0.7688,33.4313,,adl
6.297909,-0.8832,-0.0263,0.7241,0.2513,-1.6771,-0.6083,-20.175,-0.7688,33.4313,,adl
6.301964,-0.8832,-0.0263,0.7241,0.2513,-1.6771,-0.6083,-20.175,-0.7688,33.4313,,adl
6.307799,-0.8832,-0.0263,0.7241,0.2513,-1.6771,-0.6083,-13.2188,-1.7063,33.9375,,adl
6.317164,-0.8823,-0.0451,0.5224,0.2513,-1.6771,-0.6083,-13.2188,-1.7063,33.9375,,adl
6.336235,-0.9156,-0.4235,0.4223,0.2513,-1.6771,-0.6083,-13.2188,-1.7063,33.9375,,adl
6.345314,-0.9156,-0.4235,0.4223,-0.1983,-1.2983,-0.6645,-13.2188,-1.7063,33.9375,,adl
6.351899,-0.9156,-0.4235,0.4223,-0.1983,-1.2983,-0.6645,-13.2188,-1.7063,33.9375,,adl
6.355114,-0.9369,-0.7885,0.5242,-0.1983,-1.2983,-0.6645,-13.2188,-1.7063,33.9375,,adl
6.368146,-0.9369,-0.7885,0.5242,-0.1983,-1.2983,-0.6645,-11.4188,-3.9563,37.6125,,adl
6.374674,-0.9913,-0.9525,0.8471,-0.1983,-1.2983,-0.6645,-11.4188,-3.9563,37.6125,,adl
6.39374,-0.9274,-1.0614,1.1794,-0.1983,-1.2983,-0.6645,-11.4188,-3.9563,37.6125,,adl
6.397173,-0.9274,-1.0614,1.1794,-0.1983,-1.2983,-0.6645,-11.4188,-3.9563,37.6125,,adl
6.406584,-0.9274,-1.0614,1.1794,-0.4646,-0.7021,-0.612,-11.4188,-3.9563,37.6125,,adl
6.412666,-0.886,-1.3564,1.3727,-0.4646,-0.7021,-0.612,-11.4188,-3.9563,37.6125,,adl
6.427126,-0.886,-1.3564,1.3727,-0.4646,-0.7021,-0.612,-8.4375,-5.7188,39.1688,,adl
6.431901,-0.9321,-1.4647,1.6532,-0.4646,-0.7021,-0.612,-8.4375,-5.7188,39.1688,,adl
6.445964,-0.9321,-1.4647,1.6532,-0.4646,-0.7021,-0.612,-8.4375,-5.7188,39.1688,,adl
6.450895,-1.0808,-1.4693,1.748,-0.4646,-0.7021,-0.612,-8.4375,-5.7188,39.1688,,adl
6.469855,-1.0808,-1.4693,1.748,-0.3095,-0.2036,-0.7245,-8.4375,-5.7188,39.1688,,adl
6.473287,-1.3117,-2.2875,1.1789,-0.3095,-0.2036,-0.7245,-8.4375,-5.7188,39.1688,,adl
6.487361,-1.3117,-2.2875,1.1789,-0.3095,-0.2036,-0.7245,-7.3875,-7.8,40.275,,adl
6.489064,-1.98,-3.3066,1.0018,-0.3095,-0.2036,-0.7245,-7.3875,-7.8,40.275,,adl
6.494207,-1.98,-3.3066,1.0018,-0.3095,-0.2036,-0.7245,-7.3875,-7.8,40.275,,adl
6.508798,-2.8684,-3.4144,1.7427,-0.3095,-0.2036,-0.7245,-7.3875,-7.8,40.275,,adl
6.527787,-3.2226,-2.4358,2.6966,-0.3095,-0.2036,-0.7245,-7.3875,-7.8,40.275,,adl
6.531325,-3.2226,-2.4358,2.6966,-0.059,0.4316,-0.1526,-7.3875,-7.8,40.275,,adl
6.541056,-3.2226,-2.4358,2.6966,-0.059,0.4316,-0.1526,-7.3875,-7.8,40.275,,adl
6.546502,-2.9607,-0.8071,3.3167,-0.059,0.4316,-0.1526,-7.3875,-7.8,40.275,,adl
6.549424,-2.9607,-0.8071,3.3167,-0.059,0.4316,-0.1526,-7.5563,-8.3813,40.1625,,adl
6.564956,-2.5444,0.4768,3.0625,-0.059,0.4316,-0.1526,-7.5563,-8.3813,40.1625,,adl
6.585373,-2.0953,0.7339,2.3303,-0.059,0.4316,-0.1526,-7.5563,-8.3813,40.1625,,adl
6.589487,-2.0953,0.7339,2.3303,-0.059,0.4316,-0.1526,-7.5563,-8.3813,40.1625,,adl
6.594969,-2.0953,0.7339,2.3303,1.8054,-0.3307,0.5926,-7.5563,-8.3813,40.1625,,adl
6.606288,-2.125,0.5333,0.8885,1.8054,-0.3307,0.5926,-7.5563,-8.3813,40.1625,,adl
6.608859,-2.125,0.5333,0.8885,1.8054,-0.3307,0.5926,-7.8,-4.95,41.025,,adl
6.622782,-1.6507,0.1394,-0.9243,1.8054,-0.3307,0.5926,-7.8,-4.95,41.025,,adl
6.637762,-1.6507,0.1394,-0.9243,1.8054,-0.3307,0.5926,-7.8,-4.95,41.025,,adl
6.641431,-1.4611,-0.3184,-2.5937,1.8054,-0.3307,0.5926,-7.8,-4.95,41.025,,adl
6.655292,-1.4611,-0.3184,-2.5937,1.9812,-0.9196,0.4521,-7.8,-4.95,41.025,,adl
6.660859,-1.4545,-0.3053,-2.9806,1.9812,-0.9196,0.4521,-7.8,-4.95,41.025,,adl
6.667778,-1.4545,-0.3053,-2.9806,1.9812,-0.9196,0.4521,-5.3063,0.675,39.8625,,adl
6.679998,-1.6658,0.0708,-3.0017,1.9812,-0.9196,0.4521,-5.3063,0.675,39.8625,,adl
6.685051,-1.6658,0.0708,-3.0017,1.9812,-0.9196,0.4521,-5.3063,0.675,39.8625,,adl
6.699926,-1.646,0.2942,-2.9007,1.9812,-0.9196,0.4521,-5.3063,0.675,39.8625,,adl
6.718534,-1.646,0.2942,-2.9007,0.8511,-1.3069,0.6879,-5.3063,0.675,39.8625,,adl
6.722636,-1.3128,0.6014,-2.8617,0.8511,-1.3069,0.6879,-5.3063,0.675,39.8625,,adl
6.728443,-1.3128,0.6014,-2.8617,0.8511,-1.3069,0.6879,-2.2875,3.7875,37.5,,adl
6.731855,-1.3128,0.6014,-2.8617,0.8511,-1.3069,0.6879,-2.2875,3.7875,37.5,,adl
6.738034,-0.8545,0.5308,-2.4354,0.8511,-1.3069,0.6879,-2.2875,3.7875,37.5,,adl
6.757358,-0.5229,0.4341,-1.9703,0.8511,-1.3069,0.6879,-2.2875,3.7875,37.5,,adl
6.776787,-0.2463,0.0363,-1.383,0.8511,-1.3069,0.6879,-2.2875,3.7875,37.5,,adl
6.780645,-0.2463,0.0363,-1.383,0.8511,-1.3069,0.6879,-2.2875,3.7875,37.5,,adl
6.782545,-0.2463,0.0363,-1.383,-0.2508,-0.9734,0.8223,-2.2875,3.7875,37.5,,adl
6.787245,-0.2463,0.0363,-1.383,-0.2508,-0.9734,0.8223,-0.3563,4.2563,36.825,,adl
6.794819,-0.1288,-0.4042,-0.6202,-0.2508,-0.9734,0.8223,-0.3563,4.2563,36.825,,adl
6.814172,-0.1145,-0.6372,0.2228,-0.2508,-0.9734,0.8223,-0.3563,4.2563,36.825,,adl
6.828062,-0.1145,-0.6372,0.2228,-0.2508,-0.9734,0.8223,-0.3563,4.2563,36.825,,adl
6.833561,0.0758,-0.6265,0.5966,-0.2508,-0.9734,0.8223,-0.3563,4.2563,36.825,,adl
6.842762,0.0758,-0.6265,0.5966,-0.0102,-1.3398,0.722,-0.3563,4.2563,36.825,,adl
6.850425,0.0758,-0.6265,0.5966,-0.0102,-1.3398,0.722,0.5063,3.5813,41.3625,,adl
6.852353,0.271,-0.5893,0.5451,-0.0102,-1.3398,0.722,0.5063,3.5813,41.3625,,adl
6.871778,0.4758,-0.456,0.2455,-0.0102,-1.3398,0.722,0.5063,3.5813,41.3625,,adl
6.876259,0.4758,-0.456,0.2455,-0.0102,-1.3398,0.722,0.5063,3.5813,41.3625,,adl
6.890886,0.6157,-0.2388,-0.0609,-0.0102,-1.3398,0.722,0.5063,3.5813,41.3625,,adl
6.906993,0.6157,-0.2388,-0.0609,0.492,-1.98,0.5852,0.5063,3.5813,41.3625,,adl
6.910602,0.6157,-0.2388,-0.0609,0.492,-1.98,0.5852,5.5688,3.3938,41.9438,,adl
6.91315,0.6585,-0.0238,-0.187,0.492,-1.98,0.5852,5.5688,3.3938,41.9438,,adl
6.923073,0.6585,-0.0238,-0.187,0.492,-1.98,0.5852,5.5688,3.3938,41.9438,,adl
6.928994,0.6903,0.1512,-0.189,0.492,-1.98,0.5852,5.5688,3.3938,41.9438,,adl
6.948335,0.4995,0.286,-0.0352,0.492,-1.98,0.5852,5.5688,3.3938,41.9438,,adl
6.966734,0.4995,0.286,-0.0352,0.5885,-2.6408,0.3323,5.5688,3.3938,41.9438,,adl
6.970367,0.2299,0.5738,0.1064,0.5885,-2.6408,0.3323,5.5688,3.3938,41.9438,,adl
6.972962,0.2299,0.5738,0.1064,0.5885,-2.6408,0.3323,12.1688,4.0875,41.6625,,adl
6.975191,0.2299,0.5738,0.1064,0.5885,-2.6408,0.3323,12.1688,4.0875,41.6625,,adl
6.987145,0.234,0.6978,-0.087,0.5885,-2.6408,0.3323,12.1688,4.0875,41.6625,,adl
7.00587,0.4376,0.4291,-0.4711,0.5885,-2.6408,0.3323,12.1688,4.0875,41.6625,,adl
7.019258,0.4376,0.4291,-0.4711,0.5885,-2.6408,0.3323,12.1688,4.0875,41.6625,,adl
7.024984,1.0152,-0.0441,-0.6215,0.5885,-2.6408,0.3323,12.1688,4.0875,41.6625,,adl
7.028428,1.0152,-0.0441,-0.6215,0.5885,-2.6408,0.3323,18.5625,5.4,39.6,,adl
7.030002,1.0152,-0.0441,-0.6215,0.6643,-2.6263,0.3714,18.5625,5.4,39.6,,adl
7.043962,1.3575,-0.4074,-0.5609,0.6643,-2.6263,0.3714,18.5625,5.4,39.6,,adl
7.0632,1.5686,-0.6409,-0.2684,0.6643,-2.6263,0.3714,18.5625,5.4,39.6,,adl
7.067287,1.5686,-0.6409,-0.2684,0.6643,-2.6263,0.3714,18.5625,5.4,39.6,,adl
7.082735,1.5374,-0.7841,-0.0947,0.6643,-2.6263,0.3714,18.5625,5.4,39.6,,adl
7.087668,1.5374,-0.7841,-0.0947,0.6643,-2.6263,0.3714,24.0188,6.3,36.45,,adl
7.090787,1.5374,-0.7841,-0.0947,0.5127,-1.9286,-0.1038,24.0188,6.3,36.45,,adl
7.100833,0.6598,-0.5226,0.2754,0.5127,-1.9286,-0.1038,24.0188,6.3,36.45,,adl
7.114002,0.6598,-0.5226,0.2754,0.5127,-1.9286,-0.1038,24.0188,6.3,36.45,,adl
7.120794,-0.2998,0.2082,0.2593,0.5127,-1.9286,-0.1038,24.0188,6.3,36.45,,adl
7.140213,-0.1269,0.0892,-0.6153,0.5127,-1.9286,-0.1038,24.0188,6.3,36.45,,adl
7.147952,-0.1269,0.0892,-0.6153,0.5127,-1.9286,-0.1038,28.0688,7.7438,33.2063,,adl
7.15433,-0.1269,0.0892,-0.6153,0.6692,-1.6464,0.1026,28.0688,7.7438,33.2063,,adl
7.157477,0.0253,-0.5553,-1.2346,0.6692,-1.6464,0.1026,28.0688,7.7438,33.2063,,adl
7.162126,0.0253,-0.5553,-1.2346,0.6692,-1.6464,0.1026,28.0688,7.7438,33.2063,,adl
7.178042,-0.3176,-0.758,-1.0773,0.6692,-1.6464,0.1026,28.0688,7.7438,33.2063,,adl
7.196905,-1.3797,-0.9577,-0.8234,0.6692,-1.6464,0.1026,28.0688,7.7438,33.2063,,adl
7.207355,-1.3797,-0.9577,-0.8234,0.6692,-1.6464,0.1026,30.2813,9.3188,30.675,,adl
7.20967,-1.3797,-0.9577,-0.8234,0.6692,-1.6464,0.1026,30.2813,9.3188,30.675,,adl
7.21569,-1.3797,-0.9577,-0.8234,-0.0956,-0.9024,0.0122,30.2813,9.3188,30.675,,adl
7.218504,-1.9649,-1.2075,0.1243,-0.0956,-0.9024,0.0122,30.2813,9.3188,30.675,,adl
7.235199,-1.8994,-0.5552,1.224,-0.0956,-0.9024,0.0122,30.2813,9.3188,30.675,,adl
7.253884,-1.5533,0.0171,1.3335,-0.0956,-0.9024,0.0122,30.2813,9.3188,30.675,,adl
7.257366,-1.5533,0.0171,1.3335,-0.0956,-0.9024,0.0122,30.2813,9.3188,30.675,,adl
7.268337,-1.5533,0.0171,1.3335,-0.0956,-0.9024,0.0122,33.0563,9.6188,25.5,,adl
7.27281,-0.8355,0.411,0.2325,-0.0956,-0.9024,0.0122,33.0563,9.6188,25.5,,adl
7.277646,-0.8355,0.411,0.2325,0.6485,-1.6842,0.1649,33.0563,9.6188,25.5,,adl
7.291375,-2.3799,2.1273,0.0746,0.6485,-1.6842,0.1649,33.0563,9.6188,25.5,,adl
7.305831,-2.3799,2.1273,0.0746,0.6485,-1.6842,0.1649,33.0563,9.6188,25.5,,adl
7.311839,-2.0517,-0.4162,0.7307,0.6485,-1.6842,0.1649,33.0563,9.6188,25.5,,adl
7.328471,-2.0517,-0.4162,0.7307,0.6485,-1.6842,0.1649,34.875,10.1813,25.0313,,adl
7.33235,-1.3561,-0.8861,1.0516,0.6485,-1.6842,0.1649,34.875,10.1813,25.0313,,adl
7.339759,-1.3561,-0.8861,1.0516,-0.6075,-1.3056,0.3262,34.875,10.1813,25.0313,,adl
7.349845,-0.4715,-0.8097,1.5498,-0.6075,-1.3056,0.3262,34.875,10.1813,25.0313,,adl
7.353536,-0.4715,-0.8097,1.5498,-0.6075,-1.3056,0.3262,34.875,10.1813,25.0313,,adl
7.369998,0.1641,-2.3161,0.0669,-0.6075,-1.3056,0.3262,34.875,10.1813,25.0313,,adl
7.38849,0.6739,-2.2501,-0.7127,-0.6075,-1.3056,0.3262,34.875,10.1813,25.0313,,adl
7.392083,0.6739,-2.2501,-0.7127,-0.6075,-1.3056,0.3262,36.4125,9.3938,22.3875,,adl
7.401351,0.6739,-2.2501,-0.7127,-0.6075,-1.3056,0.3262,36.4125,9.3938,22.3875,,adl
7.402682,0.6739,-2.2501,-0.7127,0.0265,-1.242,0.0818,36.4125,9.3938,22.3875,,adl
7.406618,0.4505,-1.4389,-0.6214,0.0265,-1.242,0.0818,36.4125,9.3938,22.3875,,adl
7.426897,0.1668,-1.6972,0.0333,0.0265,-1.242,0.0818,36.4125,9.3938,22.3875,,adl
7.446025,-0.1759,-1.8704,0.0893,0.0265,-1.242,0.0818,36.4125,9.3938,22.3875,,adl
7.45028,-0.1759,-1.8704,0.0893,0.0265,-1.242,0.0818,39.1688,9.3188,18.975,,adl
7.452905,-0.1759,-1.8704,0.0893,0.0265,-1.242,0.0818,39.1688,9.3188,18.975,,adl
7.463456,-0.1759,-1.8704,0.0893,-0.1946,-1.1883,0.2724,39.1688,9.3188,18.975,,adl
7.465071,0.1709,-1.7733,0.5107,-0.1946,-1.1883,0.2724,39.1688,9.3188,18.975,,adl
7.483735,0.5981,-1.5149,0.3194,-0.1946,-1.1883,0.2724,39.1688,9.3188,18.975,,adl
7.49728,0.5981,-1.5149,0.3194,-0.1946,-1.1883,0.2724,39.1688,9.3188,18.975,,adl
7.502769,0.7999,-1.2639,-0.1507,-0.1946,-1.1883,0.2724,39.1688,9.3188,18.975,,adl
7.507987,0.7999,-1.2639,-0.1507,-0.1946,-1.1883,0.2724,39.9938,9.4125,15.2063,,adl
7.521598,0.78,-1.0008,-0.5222,-0.1946,-1.1883,0.2724,39.9938,9.4125,15.2063,,adl
7.525172,0.78,-1.0008,-0.5222,0.2721,-2.5492,-0.2333,39.9938,9.4125,15.2063,,adl
7.541188,0.698,-0.9497,-0.7584,0.2721,-2.5492,-0.2333,39.9938,9.4125,15.2063,,adl
7.545158,0.698,-0.9497,-0.7584,0.2721,-2.5492,-0.2333,39.9938,9.4125,15.2063,,adl
7.560513,0.6215,-1.0893,-0.7895,0.2721,-2.5492,-0.2333,39.9938,9.4125,15.2063,,adl
7.567947,0.6215,-1.0893,-0.7895,0.2721,-2.5492,-0.2333,40.5188,12.225,8.775,,adl
7.58003,0.3689,-0.9989,-0.4912,0.2721,-2.5492,-0.2333,40.5188,12.225,8.775,,adl
7.588573,0.3689,-0.9989,-0.4912,-0.4267,-2.8461,-0.5742,40.5188,12.225,8.775,,adl
7.593208,0.3689,-0.9989,-0.4912,-0.4267,-2.8461,-0.5742,40.5188,12.225,8.775,,adl
7.598561,0.2586,-0.6481,0.238,-0.4267,-2.8461,-0.5742,40.5188,12.225,8.775,,adl
7.617259,0.4128,-0.1991,0.7604,-0.4267,-2.8461,-0.5742,40.5188,12.225,8.775,,adl
7.628078,0.4128,-0.1991,0.7604,-0.4267,-2.8461,-0.5742,39.4125,15.5625,-0.3188,,adl
7.636885,0.7209,-0.1896,1.1891,-0.4267,-2.8461,-0.5742,39.4125,15.5625,-0.3188,,adl
7.642871,0.7209,-0.1896,1.1891,-0.4267,-2.8461,-0.5742,39.4125,15.5625,-0.3188,,adl
7.649798,0.7209,-0.1896,1.1891,-0.2593,-2.1876,-0.4839,39.4125,15.5625,-0.3188,,adl
7.655389,0.8361,-0.2512,1.5256,-0.2593,-2.1876,-0.4839,39.4125,15.5625,-0.3188,,adl
7.67473,0.7482,-0.4395,1.5362,-0.2593,-2.1876,-0.4839,39.4125,15.5625,-0.3188,,adl
7.688401,0.7482,-0.4395,1.5362,-0.2593,-2.1876,-0.4839,38.3438,19.0688,-5.4563,,adl
7.692077,0.7482,-0.4395,1.5362,-0.2593,-2.1876,-0.4839,38.3438,19.0688,-5.4563,,adl
7.695948,0.5911,-0.4836,1.5367,-0.2593,-2.1876,-0.4839,38.3438,19.0688,-5.4563,,adl
7.71275,0.5911,-0.4836,1.5367,-0.2643,-1.5609,-0.8284,38.3438,19.0688,-5.4563,,adl
7.714469,0.1436,-0.2638,1.5303,-0.2643,-1.5609,-0.8284,38.3438,19.0688,-5.4563,,adl
7.732292,-0.2426,-0.074,1.573,-0.2643,-1.5609,-0.8284,38.3438,19.0688,-5.4563,,adl
7.736865,-0.2426,-0.074,1.573,-0.2643,-1.5609,-0.8284,38.3438,19.0688,-5.4563,,adl
7.747692,-0.2426,-0.074,1.573,-0.2643,-1.5609,-0.8284,37.0312,21.4688,-10.275,,adl
7.750929,-0.4785,-0.0837,1.7671,-0.2643,-1.5609,-0.8284,37.0312,21.4688,-10.275,,adl
7.769873,-0.2775,-0.1569,1.9905,-0.2643,-1.5609,-0.8284,37.0312,21.4688,-10.275,,adl
7.774621,-0.2775,-0.1569,1.9905,-0.3046,-0.7692,-0.3275,37.0312,21.4688,-10.275,,adl
7.785044,-0.2775,-0.1569,1.9905,-0.3046,-0.7692,-0.3275,37.0312,21.4688,-10.275,,adl
7.789176,-0.3197,-0.3553,2.2373,-0.3046,-0.7692,-0.3275,37.0312,21.4688,-10.275,,adl
7.807909,-0.3197,-0.3553,2.2373,-0.3046,-0.7692,-0.3275,36.3375,22.2563,-11.8125,,adl
7.809627,-0.4923,-0.3196,2.2916,-0.3046,-0.7692,-0.3275,36.3375,22.2563,-11.8125,,adl
7.828234,-0.6152,-0.3288,2.1361,-0.3046,-0.7692,-0.3275,36.3375,22.2563,-11.8125,,adl
7.832387,-0.6152,-0.3288,2.1361,-0.3046,-0.7692,-0.3275,36.3375,22.2563,-11.8125,,adl
7.837375,-0.6152,-0.3288,2.1361,-0.1775,-0.0984,0.3409,36.3375,22.2563,-11.8125,,adl
7.846489,-0.4318,-0.5577,1.9489,-0.1775,-0.0984,0.3409,36.3375,22.2563,-11.8125,,adl
7.866393,-0.0134,-0.9869,2.2114,-0.1775,-0.0984,0.3409,36.3375,22.2563,-11.8125,,adl
7.870104,-0.0134,-0.9869,2.2114,-0.1775,-0.0984,0.3409,37.2563,21.2438,-11.85,,adl
7.87978,-0.0134,-0.9869,2.2114,-0.1775,-0.0984,0.3409,37.2563,21.2438,-11.85,,adl
7.885007,0.3676,-0.9321,2.7483,-0.1775,-0.0984,0.3409,37.2563,21.2438,-11.85,,adl
7.89959,0.3676,-0.9321,2.7483,-0.1678,0.3963,0.3872,37.2563,21.2438,-11.85,,adl
7.906578,0.8406,-0.367,2.9001,-0.1678,0.3963,0.3872,37.2563,21.2438,-11.85,,adl
7.923699,0.5397,0.3527,2.307,-0.1678,0.3963,0.3872,37.2563,21.2438,-11.85,,adl
7.927104,0.5397,0.3527,2.307,-0.1678,0.3963,0.3872,37.2563,21.2438,-11.85,,adl
7.928358,0.5397,0.3527,2.307,-0.1678,0.3963,0.3872,38.175,19.8375,-10.3313,,adl
7.942988,-0.1327,0.4417,1.3436,-0.1678,0.3963,0.3872,38.175,19.8375,-10.3313,,adl
7.961253,-0.1327,0.4417,1.3436,0.6485,0.6186,-0.2823,38.175,19.8375,-10.3313,,adl
7.962938,-0.7759,-0.0061,0.414,0.6485,0.6186,-0.2823,38.175,19.8375,-10.3313,,adl
7.97572,-0.7759,-0.0061,0.414,0.6485,0.6186,-0.2823,38.175,19.8375,-10.3313,,adl
7.981175,-0.8398,-0.6986,-0.0837,0.6485,0.6186,-0.2823,38.175,19.8375,-10.3313,,adl
7.98767,-0.8398,-0.6986,-0.0837,0.6485,0.6186,-0.2823,37.7812,19.8375,-9.9938,,adl
8.000414,-0.3488,-1.4972,-0.4354,0.6485,0.6186,-0.2823,37.7812,19.8375,-9.9938,,adl
8.019261,0.0678,-1.7821,-0.7659,0.6485,0.6186,-0.2823,37.7812,19.8375,-9.9938,,adl
8.023183,0.0678,-1.7821,-0.7659,0.6485,0.6186,-0.2823,37.7812,19.8375,-9.9938,,adl
8.024348,0.0678,-1.7821,-0.7659,0.4297,-0.7424,-0.6256,37.7812,19.8375,-9.9938,,adl
8.0381,0.0551,-1.6231,-1.0732,0.4297,-0.7424,-0.6256,37.7812,19.8375,-9.9938,,adl
8.048928,0.0551,-1.6231,-1.0732,0.4297,-0.7424,-0.6256,35.9062,21.0188,-12.225,,adl
8.05786,-0.1474,-1.3372,-1.4404,0.4297,-0.7424,-0.6256,35.9062,21.0188,-12.225,,adl
8.074994,-0.1474,-1.3372,-1.4404,0.4297,-0.7424,-0.6256,35.9062,21.0188,-12.225,,adl
8.07818,-0.3733,-0.9691,-1.6256,0.4297,-0.7424,-0.6256,35.9062,21.0188,-12.225,,adl
8.085067,-0.3733,-0.9691,-1.6256,0.4639,-1.7905,-1.1386,35.9062,21.0188,-12.225,,adl
8.095989,-0.7326,-0.4207,-1.7776,0.4639,-1.7905,-1.1386,35.9062,21.0188,-12.225,,adl
8.107639,-0.7326,-0.4207,-1.7776,0.4639,-1.7905,-1.1386,31.7813,22.8188,-17.175,,adl
8.114647,-1.2146,-0.0194,-2.0342,0.4639,-1.7905,-1.1386,31.7813,22.8188,-17.175,,adl
8.118555,-1.2146,-0.0194,-2.0342,0.4639,-1.7905,-1.1386,31.7813,22.8188,-17.175,,adl
8.133858,-1.8547,0.3221,-2.0483,0.4639,-1.7905,-1.1386,31.7813,22.8188,-17.175,,adl
8.147157,-1.8547,0.3221,-2.0483,0.2991,-0.8547,-1.0446,31.7813,22.8188,-17.175,,adl
8.153355,-2.3259,0.609,-1.8397,0.2991,-0.8547,-1.0446,31.7813,22.8188,-17.175,,adl
8.16692,-2.3259,0.609,-1.8397,0.2991,-0.8547,-1.0446,31.7813,22.8188,-17.175,,adl
8.170173,-2.3259,0.609,-1.8397,0.2991,-0.8547,-1.0446,29.025,24.3563,-20.0063,,adl
8.172845,-2.7147,0.5577,-1.6594,0.2991,-0.8547,-1.0446,29.025,24.3563,-20.0063,,adl
8.191953,-2.7499,0.2699,-1.4081,0.2991,-0.8547,-1.0446,29.025,24.3563,-20.0063,,adl
8.209782,-2.7499,0.2699,-1.4081,0.0192,-0.1669,-0.6036,29.025,24.3563,-20.0063,,adl
8.213015,-2.82,0.0188,-1.1722,0.0192,-0.1669,-0.6036,29.025,24.3563,-20.0063,,adl
8.215817,-2.82,0.0188,-1.1722,0.0192,-0.1669,-0.6036,29.025,24.3563,-20.0063,,adl
8.22744,-2.82,0.0188,-1.1722,0.0192,-0.1669,-0.6036,26.8125,26.1,-19.9125,,adl
8.229176,-3.0068,-0.1132,-0.3357,0.0192,-0.1669,-0.6036,26.8125,26.1,-19.9125,,adl
8.24935,-3.3444,0.0581,0.122,0.0192,-0.1669,-0.6036,26.8125,26.1,-19.9125,,adl
8.262841,-3.3444,0.0581,0.122,0.0192,-0.1669,-0.6036,26.8125,26.1,-19.9125,,adl
8.268015,-3.4069,0.2021,0.174,0.0192,-0.1669,-0.6036,26.8125,26.1,-19.9125,,adl
8.274748,-3.4069,0.2021,0.174,0.4382,-0.1534,-0.1295,26.8125,26.1,-19.9125,,adl
8.286647,-3.2066,0.3608,-0.0296,0.4382,-0.1534,-0.1295,26.8125,26.1,-19.9125,,adl
8.293752,-3.2066,0.3608,-0.0296,0.4382,-0.1534,-0.1295,26.325,25.5375,-18.6562,,adl
8.306252,-2.8922,0.4913,-0.3439,0.4382,-0.1534,-0.1295,26.325,25.5375,-18.6562,,adl
8.310187,-2.8922,0.4913,-0.3439,0.4382,-0.1534,-0.1295,26.325,25.5375,-18.6562,,adl
8.325177,-2.5551,0.5989,-0.5287,0.4382,-0.1534,-0.1295,26.325,25.5375,-18.6562,,adl
8.333835,-2.5551,0.5989,-0.5287,0.4554,-0.5651,0.2871,26.325,25.5375,-18.6562,,adl
8.344439,-2.2247,0.6215,-0.6629,0.4554,-0.5651,0.2871,26.325,25.5375,-18.6562,,adl
8.348024,-2.2247,0.6215,-0.6629,0.4554,-0.5651,0.2871,26.1938,24.3,-19.5,,adl
8.357523,-2.2247,0.6215,-0.6629,0.4554,-0.5651,0.2871,26.1938,24.3,-19.5,,adl
8.363695,-1.9847,0.6936,-0.7076,0.4554,-0.5651,0.2871,26.1938,24.3,-19.5,,adl
8.383836,-1.8639,0.6695,-0.5633,0.4554,-0.5651,0.2871,26.1938,24.3,-19.5,,adl
8.395869,-1.8639,0.6695,-0.5633,0.3784,-0.5175,0.6695,26.1938,24.3,-19.5,,adl
8.401902,-1.5574,0.5816,-0.5439,0.3784,-0.5175,0.6695,26.1938,24.3,-19.5,,adl
8.406558,-1.5574,0.5816,-0.5439,0.3784,-0.5175,0.6695,26.1938,24.3,-19.5,,adl
8.409406,-1.5574,0.5816,-0.5439,0.3784,-0.5175,0.6695,26.1563,23.175,-20.4375,,adl
8.420744,-1.0813,0.5201,-0.5674,0.3784,-0.5175,0.6695,26.1563,23.175,-20.4375,,adl
8.440423,-0.6136,0.3278,-0.7157,0.3784,-0.5175,0.6695,26.1563,23.175,-20.4375,,adl
8.453846,-0.6136,0.3278,-0.7157,0.3784,-0.5175,0.6695,26.1563,23.175,-20.4375,,adl
8.45759,-0.6136,0.3278,-0.7157,0.3662,-0.2977,1.0494,26.1563,23.175,-20.4375,,adl
8.458792,-0.0564,0.0585,-0.7166,0.3662,-0.2977,1.0494,26.1563,23.175,-20.4375,,adl
8.468252,-0.0564,0.0585,-0.7166,0.3662,-0.2977,1.0494,29.175,20.6625,-19.8188,,adl
8.478461,0.3765,-0.3596,-0.6993,0.3662,-0.2977,1.0494,29.175,20.6625,-19.8188,,adl
8.49728,0.7739,-0.7281,-0.7398,0.3662,-0.2977,1.0494,29.175,20.6625,-19.8188,,adl
8.501242,0.7739,-0.7281,-0.7398,0.3662,-0.2977,1.0494,29.175,20.6625,-19.8188,,adl
8.515983,1.193,-0.8244,-0.85,0.3662,-0.2977,1.0494,29.175,20.6625,-19.8188,,adl
8.521169,1.193,-0.8244,-0.85,0.3296,-0.5346,1.0274,29.175,20.6625,-19.8188,,adl
8.528709,1.193,-0.8244,-0.85,0.3296,-0.5346,1.0274,28.5188,18.6562,-22.5188,,adl
8.535623,1.9007,-0.6663,-1.0894,0.3296,-0.5346,1.0274,28.5188,18.6562,-22.5188,,adl
8.549138,1.9007,-0.6663,-1.0894,0.3296,-0.5346,1.0274,28.5188,18.6562,-22.5188,,adl
8.555129,2.2238,-0.3964,-1.5122,0.3296,-0.5346,1.0274,28.5188,18.6562,-22.5188,,adl
8.574103,2.471,-0.4066,-2.1885,0.3296,-0.5346,1.0274,28.5188,18.6562,-22.5188,,adl
8.583322,2.471,-0.4066,-2.1885,0.2464,-0.531,0.5962,28.5188,18.6562,-22.5188,,adl
8.588844,2.471,-0.4066,-2.1885,0.2464,-0.531,0.5962,28.9875,17.1562,-24.0,,adl
8.59322,2.5013,-1.1853,-2.8457,0.2464,-0.531,0.5962,28.9875,17.1562,-24.0,,adl
8.599066,2.5013,-1.1853,-2.8457,0.2464,-0.531,0.5962,28.9875,17.1562,-24.0,,adl
8.611846,2.5037,-2.6357,-2.8629,0.2464,-0.531,0.5962,28.9875,17.1562,-24.0,,adl
8.631215,2.8955,-2.903,-1.6029,0.2464,-0.531,0.5962,28.9875,17.1562,-24.0,,adl
8.645775,2.8955,-2.903,-1.6029,0.2464,-0.531,0.5962,28.9875,17.1562,-24.0,,adl
8.647954,2.8955,-2.903,-1.6029,-0.4364,-0.0484,0.3224,28.9875,17.1562,-24.0,,adl
8.648954,2.8955,-2.903,-1.6029,-0.4364,-0.0484,0.3224,28.8188,16.6875,-24.6188,,adl
8.650168,3.5509,-1.813,-1.1654,-0.4364,-0.0484,0.3224,28.8188,16.6875,-24.6188,,adl
8.669618,4.0482,-0.7477,-1.2241,-0.4364,-0.0484,0.3224,28.8188,16.6875,-24.6188,,adl
8.688917,4.2062,0.0563,-0.9576,-0.4364,-0.0484,0.3224,28.8188,16.6875,-24.6188,,adl
8.692972,4.2062,0.0563,-0.9576,-0.4364,-0.0484,0.3224,28.8188,16.6875,-24.6188,,adl
8.706766,4.2062,0.0563,-0.9576,-0.087,0.6834,-0.3666,28.8188,16.6875,-24.6188,,adl
8.708588,3.7964,0.4093,-0.7696,-0.087,0.6834,-0.3666,28.8188,16.6875,-24.6188,,adl
8.70959,3.7964,0.4093,-0.7696,-0.087,0.6834,-0.3666,29.0625,17.5312,-23.6813,,adl
8.726973,3.0787,0.1677,-0.6072,-0.087,0.6834,-0.3666,29.0625,17.5312,-23.6813,,adl
8.741858,3.0787,0.1677,-0.6072,-0.087,0.6834,-0.3666,29.0625,17.5312,-23.6813,,adl
8.745402,2.2942,0.1261,-0.3318,-0.087,0.6834,-0.3666,29.0625,17.5312,-23.6813,,adl
8.7654,1.5035,-0.0989,-0.6373,-0.087,0.6834,-0.3666,29.0625,17.5312,-23.6813,,adl
8.769748,1.5035,-0.0989,-0.6373,-0.087,0.6834,-0.3666,29.3063,18.2812,-21.5063,,adl
8.772772,1.5035,-0.0989,-0.6373,-0.0358,0.9657,-0.9408,29.3063,18.2812,-21.5063,,adl
8.78526,0.7967,-0.5606,-0.9995,-0.0358,0.9657,-0.9408,29.3063,18.2812,-21.5063,,adl
8.788681,0.7967,-0.5606,-0.9995,-0.0358,0.9657,-0.9408,29.3063,18.2812,-21.5063,,adl
8.803722,0.1536,-1.3459,-1.1214,-0.0358,0.9657,-0.9408,29.3063,18.2812,-21.5063,,adl
8.822671,-0.273,-1.7628,-0.4833,-0.0358,0.9657,-0.9408,29.3063,18.2812,-21.5063,,adl
8.829017,-0.273,-1.7628,-0.4833,-0.0358,0.9657,-0.9408,28.9125,20.1938,-19.9125,,adl
8.830602,-0.273,-1.7628,-0.4833,-0.4291,-0.0374,-0.8625,28.9125,20.1938,-19.9125,,adl
8.835945,-0.273,-1.7628,-0.4833,-0.4291,-0.0374,-0.8625,28.9125,20.1938,-19.9125,,adl
8.841822,-0.2881,-1.5598,0.1915,-0.4291,-0.0374,-0.8625,28.9125,20.1938,-19.9125,,adl
8.860815,0.0987,-1.5189,0.5292,-0.4291,-0.0374,-0.8625,28.9125,20.1938,-19.9125,,adl
8.881354,0.6969,-1.3098,0.6449,-0.4291,-0.0374,-0.8625,28.9125,20.1938,-19.9125,,adl
8.885501,0.6969,-1.3098,0.6449,-0.4291,-0.0374,-0.8625,28.9125,20.1938,-19.9125,,adl
8.887953,0.6969,-1.3098,0.6449,-0.4291,-0.0374,-0.8625,26.8125,21.675,-20.6813,,adl
8.893197,0.6969,-1.3098,0.6449,0.1048,-0.8572,-0.7942,26.8125,21.675,-20.6813,,adl
8.899632,0.818,-0.7521,0.5434,0.1048,-0.8572,-0.7942,26.8125,21.675,-20.6813,,adl
8.918659,0.5821,-0.2151,0.362,0.1048,-0.8572,-0.7942,26.8125,21.675,-20.6813,,adl
8.931955,0.5821,-0.2151,0.362,0.1048,-0.8572,-0.7942,26.8125,21.675,-20.6813,,adl
8.937834,-0.1706,0.2936,0.1561,0.1048,-0.8572,-0.7942,26.8125,21.675,-20.6813,,adl
8.948126,-0.1706,0.2936,0.1561,0.1048,-0.8572,-0.7942,24.6938,24.0,-23.8313,,adl
8.956752,-0.1706,0.2936,0.1561,0.1585,-0.6421,-1.0105,24.6938,24.0,-23.8313,,adl
8.958007,-0.9575,0.6052,0.176,0.1585,-0.6421,-1.0105,24.6938,24.0,-23.8313,,adl
8.975705,-1.304,0.019,-0.1267,0.1585,-0.6421,-1.0105,24.6938,24.0,-23.8313,,adl
8.979433,-1.304,0.019,-0.1267,0.1585,-0.6421,-1.0105,24.6938,24.0,-23.8313,,adl
8.994674,-1.5271,-0.555,0.0004,0.1585,-0.6421,-1.0105,24.6938,24.0,-23.8313,,adl
9.007326,-1.5271,-0.555,0.0004,0.1585,-0.6421,-1.0105,23.4563,26.1375,-25.65,,adl
9.01312,-1.5866,-0.6741,0.3748,0.1585,-0.6421,-1.0105,23.4563,26.1375,-25.65,,adl
9.01946,-1.5866,-0.6741,0.3748,-0.3816,-1.1528,-0.8443,23.4563,26.1375,-25.65,,adl
9.028401,-1.5866,-0.6741,0.3748,-0.3816,-1.1528,-0.8443,23.4563,26.1375,-25.65,,adl
9.032408,-1.4626,-0.5844,0.9632,-0.3816,-1.1528,-0.8443,23.4563,26.1375,-25.65,,adl
9.052123,-1.4465,-0.3607,1.138,-0.3816,-1.1528,-0.8443,23.4563,26.1375,-25.65,,adl
9.068562,-1.4465,-0.3607,1.138,-0.3816,-1.1528,-0.8443,22.5188,27.7688,-26.1188,,adl
9.072549,-1.4865,-0.4157,0.9709,-0.3816,-1.1528,-0.8443,22.5188,27.7688,-26.1188,,adl
9.075198,-1.4865,-0.4157,0.9709,-0.3816,-1.1528,-0.8443,22.5188,27.7688,-26.1188,,adl
9.080721,-1.4865,-0.4157,0.9709,-0.0712,-0.9427,-0.6269,22.5188,27.7688,-26.1188,,adl
9.090036,-1.4842,-0.4678,0.7951,-0.0712,-0.9427,-0.6269,22.5188,27.7688,-26.1188,,adl
9.109517,-1.5085,-0.4596,0.6712,-0.0712,-0.9427,-0.6269,22.5188,27.7688,-26.1188,,adl
9.123602,-1.5085,-0.4596,0.6712,-0.0712,-0.9427,-0.6269,22.5188,27.7688,-26.1188,,adl
9.131152,-1.4567,-0.6053,0.925,-0.0712,-0.9427,-0.6269,22.5188,27.7688,-26.1188,,adl
9.132608,-1.4567,-0.6053,0.925,-0.0712,-0.9427,-0.6269,20.8313,28.5563,-26.7938,,adl
9.141663,-1.4567,-0.6053,0.925,-0.2996,-0.3123,-0.3666,20.8313,28.5563,-26.7938,,adl
9.147336,-1.4099,-0.7363,1.0866,-0.2996,-0.3123,-0.3666,20.8313,28.5563,-26.7938,,adl
9.167041,-1.4589,-1.1085,1.1799,-0.2996,-0.3123,-0.3666,20.8313,28.5563,-26.7938,,adl
9.171897,-1.4589,-1.1085,1.1799,-0.2996,-0.3123,-0.3666,20.8313,28.5563,-26.7938,,adl
9.186059,-1.4541,-1.2231,1.2319,-0.2996,-0.3123,-0.3666,20.8313,28.5563,-26.7938,,adl
9.18805,-1.4541,-1.2231,1.2319,-0.2996,-0.3123,-0.3666,20.6063,29.325,-26.2688,,adl
9.204037,-1.4541,-1.2231,1.2319,-0.1555,-0.0118,-0.2993,20.6063,29.325,-26.2688,,adl
9.205556,-1.5866,-1.1849,1.1875,-0.1555,-0.0118,-0.2993,20.6063,29.325,-26.2688,,adl
9.220024,-1.5866,-1.1849,1.1875,-0.1555,-0.0118,-0.2993,20.6063,29.325,-26.2688,,adl
9.224115,-1.6774,-1.0543,1.0127,-0.1555,-0.0118,-0.2993,20.6063,29.325,-26.2688,,adl
9.243231,-1.9122,-1.0035,0.8025,-0.1555,-0.0118,-0.2993,20.6063,29.325,-26.2688,,adl
9.248348,-1.9122,-1.0035,0.8025,-0.1555,-0.0118,-0.2993,20.8688,30.2625,-27.3,,adl
9.262813,-2.1614,-0.8237,0.7463,-0.1555,-0.0118,-0.2993,20.8688,30.2625,-27.3,,adl
9.266029,-2.1614,-0.8237,0.7463,-0.1555,-0.0118,-0.2993,20.8688,30.2625,-27.3,,adl
9.266778,-2.1614,-0.8237,0.7463,-0.0773,0.2497,-0.1442,20.8688,30.2625,-27.3,,adl
9.281567,-2.209,-1.2339,-0.1718,-0.0773,0.2497,-0.1442,20.8688,30.2625,-27.3,,adl
9.300955,-2.6101,-2.3121,-0.7328,-0.0773,0.2497,-0.1442,20.8688,30.2625,-27.3,,adl
9.308744,-2.6101,-2.3121,-0.7328,-0.0773,0.2497,-0.1442,20.55,30.3563,-25.3125,,adl
9.313984,-2.6101,-2.3121,-0.7328,-0.0773,0.2497,-0.1442,20.55,30.3563,-25.3125,,adl
9.319742,-2.8521,-2.698,-0.4214,-0.0773,0.2497,-0.1442,20.55,30.3563,-25.3125,,adl
9.328615,-2.8521,-2.698,-0.4214,-0.61,0.5856,0.4947,20.55,30.3563,-25.3125,,adl
9.340048,-2.527,-2.7568,0.5448,-0.61,0.5856,0.4947,20.55,30.3563,-25.3125,,adl
9.358807,-1.6437,-2.1246,1.4947,-0.61,0.5856,0.4947,20.55,30.3563,-25.3125,,adl
9.363096,-1.6437,-2.1246,1.4947,-0.61,0.5856,0.4947,20.55,30.3563,-25.3125,,adl
9.367906,-1.6437,-2.1246,1.4947,-0.61,0.5856,0.4947,22.575,30.75,-24.5438,,adl
9.377335,-0.6707,-0.988,2.0944,-0.61,0.5856,0.4947,22.575,30.75,-24.5438,,adl
9.390857,-0.6707,-0.988,2.0944,0.062,0.4671,1.064,22.575,30.75,-24.5438,,adl
9.39786,0.0934,0.5241,1.9648,0.062,0.4671,1.064,22.575,30.75,-24.5438,,adl
9.409795,0.0934,0.5241,1.9648,0.062,0.4671,1.064,22.575,30.75,-24.5438,,adl
9.415668,0.4735,1.4545,0.9189,0.062,0.4671,1.064,22.575,30.75,-24.5438,,adl
9.428121,0.4735,1.4545,0.9189,0.062,0.4671,1.064,24.7688,29.55,-25.5563,,adl
9.4347,0.6862,1.8035,0.0801,0.062,0.4671,1.064,24.7688,29.55,-25.5563,,adl
9.453238,0.6862,1.8035,0.0801,0.4249,0.1898,0.2687,24.7688,29.55,-25.5563,,adl
9.457361,0.6181,1.7363,-0.807,0.4249,0.1898,0.2687,24.7688,29.55,-25.5563,,adl
9.460915,0.6181,1.7363,-0.807,0.4249,0.1898,0.2687,24.7688,29.55,-25.5563,,adl
9.472824,0.019,1.0894,-1.6252,0.4249,0.1898,0.2687,24.7688,29.55,-25.5563,,adl
9.488744,0.019,1.0894,-1.6252,0.4249,0.1898,0.2687,23.7188,29.9813,-28.95,,adl
9.4913,-0.5244,-0.0691,-1.9088,0.4249,0.1898,0.2687,23.7188,29.9813,-28.95,,adl
9.505887,-0.5244,-0.0691,-1.9088,0.4249,0.1898,0.2687,23.7188,29.9813,-28.95,,adl
9.511118,-0.9388,-1.3753,-1.2125,0.4249,0.1898,0.2687,23.7188,29.9813,-28.95,,adl
9.515216,-0.9388,-1.3753,-1.2125,-0.7322,0.4988,0.2332,23.7188,29.9813,-28.95,,adl
9.53046,-1.0201,-1.9607,0.3006,-0.7322,0.4988,0.2332,23.7188,29.9813,-28.95,,adl
9.548003,-1.0201,-1.9607,0.3006,-0.7322,0.4988,0.2332,21.3375,30.2813,-25.9688,,adl
9.549593,-0.4166,-1.8165,1.5524,-0.7322,0.4988,0.2332,21.3375,30.2813,-25.9688,,adl
9.552911,-0.4166,-1.8165,1.5524,-0.7322,0.4988,0.2332,21.3375,30.2813,-25.9688,,adl
9.568546,0.375,-0.7263,2.3002,-0.7322,0.4988,0.2332,21.3375,30.2813,-25.9688,,adl
9.576872,0.375,-0.7263,2.3002,-0.0993,0.6834,0.8368,21.3375,30.2813,-25.9688,,adl
9.587042,0.7287,0.043,2.1014,-0.0993,0.6834,0.8368,21.3375,30.2813,-25.9688,,adl
9.601112,0.7287,0.043,2.1014,-0.0993,0.6834,0.8368,21.3375,30.2813,-25.9688,,adl
9.608108,0.5173,0.2868,1.3243,-0.0993,0.6834,0.8368,21.3375,30.2813,-25.9688,,adl
9.609616,0.5173,0.2868,1.3243,-0.0993,0.6834,0.8368,24.6375,27.1125,-20.8875,,adl
9.625869,0.1166,0.5888,0.7919,-0.0993,0.6834,0.8368,24.6375,27.1125,-20.8875,,adl
9.641238,0.1166,0.5888,0.7919,0.6557,0.202,0.4642,24.6375,27.1125,-20.8875,,adl
9.645054,-0.0752,0.7454,0.1975,0.6557,0.202,0.4642,24.6375,27.1125,-20.8875,,adl
9.648645,-0.0752,0.7454,0.1975,0.6557,0.202,0.4642,24.6375,27.1125,-20.8875,,adl
9.663991,0.1897,0.7338,-0.3579,0.6557,0.202,0.4642,24.6375,27.1125,-20.8875,,adl
9.669033,0.1897,0.7338,-0.3579,0.6557,0.202,0.4642,26.9625,24.6,-19.725,,adl
9.683064,0.5668,0.6887,-0.8067,0.6557,0.202,0.4642,26.9625,24.6,-19.725,,adl
9.696678,0.5668,0.6887,-0.8067,0.6557,0.202,0.4642,26.9625,24.6,-19.725,,adl
9.701231,0.5668,0.6887,-0.8067,0.3088,-0.5248,0.4312,26.9625,24.6,-19.725,,adl
9.704025,0.7777,0.6627,-1.1119,0.3088,-0.5248,0.4312,26.9625,24.6,-19.725,,adl
9.721055,0.9682,0.608,-1.0858,0.3088,-0.5248,0.4312,26.9625,24.6,-19.725,,adl
9.729216,0.9682,0.608,-1.0858,0.3088,-0.5248,0.4312,29.6813,23.5875,-22.725,,adl
9.74075,1.0127,0.6119,-1.0045,0.3088,-0.5248,0.4312,29.6813,23.5875,-22.725,,adl
9.744575,1.0127,0.6119,-1.0045,0.3088,-0.5248,0.4312,29.6813,23.5875,-22.725,,adl
9.759742,1.1405,0.6558,-0.9642,0.3088,-0.5248,0.4312,29.6813,23.5875,-22.725,,adl
9.763229,1.1405,0.6558,-0.9642,0.2966,-0.3392,0.4935,29.6813,23.5875,-22.725,,adl
9.778579,1.3555,0.7926,-1.0974,0.2966,-0.3392,0.4935,29.6813,23.5875,-22.725,,adl
9.790033,1.3555,0.7926,-1.0974,0.2966,-0.3392,0.4935,28.9688,21.825,-22.7063,,adl
9.794185,1.3555,0.7926,-1.0974,0.2966,-0.3392,0.4935,28.9688,21.825,-22.7063,,adl
9.79872,1.485,0.7577,-1.3687,0.2966,-0.3392,0.4935,28.9688,21.825,-22.7063,,adl
9.817257,1.5769,0.738,-1.5328,0.2966,-0.3392,0.4935,28.9688,21.825,-22.7063,,adl
9.825685,1.5769,0.738,-1.5328,0.3992,-0.0166,0.4885,28.9688,21.825,-22.7063,,adl
9.836284,1.5758,0.668,-1.6065,0.3992,-0.0166,0.4885,28.9688,21.825,-22.7063,,adl
9.840008,1.5758,0.668,-1.6065,0.3992,-0.0166,0.4885,28.9688,21.825,-22.7063,,adl
9.847728,1.5758,0.668,-1.6065,0.3992,-0.0166,0.4885,30.1688,20.9062,-22.8563,,adl
9.855183,1.6501,0.502,-1.7635,0.3992,-0.0166,0.4885,30.1688,20.9062,-22.8563,,adl
9.874335,1.8457,0.3118,-1.8219,0.3992,-0.0166,0.4885,30.1688,20.9062,-22.8563,,adl
9.887839,1.8457,0.3118,-1.8219,0.3992,-0.0166,0.4885,30.1688,20.9062,-22.8563,,adl
9.88901,1.8457,0.3118,-1.8219,0.2074,-0.2537,0.386,30.1688,20.9062,-22.8563,,adl
9.89383,2.1126,0.2689,-1.8891,0.2074,-0.2537,0.386,30.1688,20.9062,-22.8563,,adl
9.90939,2.1126,0.2689,-1.8891,0.2074,-0.2537,0.386,29.6438,19.8938,-23.8875,,adl
9.912245,2.2284,0.1651,-1.9319,0.2074,-0.2537,0.386,29.6438,19.8938,-23.8875,,adl
9.931797,2.3886,0.0891,-1.9491,0.2074,-0.2537,0.386,29.6438,19.8938,-23.8875,,adl
9.937012,2.3886,0.0891,-1.9491,0.2074,-0.2537,0.386,29.6438,19.8938,-23.8875,,adl
9.949346,2.3886,0.0891,-1.9491,0.0632,-0.1266,0.1686,29.6438,19.8938,-23.8875,,adl
9.950878,2.3406,-0.4115,-2.5254,0.0632,-0.1266,0.1686,29.6438,19.8938,-23.8875,,adl
9.968041,2.3406,-0.4115,-2.5254,0.0632,-0.1266,0.1686,29.4563,19.8188,-24.0938,,adl
9.972015,1.9278,-1.6889,-2.5798,0.0632,-0.1266,0.1686,29.4563,19.8188,-24.0938,,adl
9.983737,1.9278,-1.6889,-2.5798,0.0632,-0.1266,0.1686,29.4563,19.8188,-24.0938,,adl
9.989109,1.8702,-2.6318,-1.5485,0.0632,-0.1266,0.1686,29.4563,19.8188,-24.0938,,adl
10.008806,2.5053,-2.0781,-0.9092,0.0632,-0.1266,0.1686,29.4563,19.8188,-24.0938,,adl
10.012814,2.5053,-2.0781,-0.9092,-0.1995,-0.1314,0.408,29.4563,19.8188,-24.0938,,adl
10.027725,3.1942,-1.5175,-0.8788,-0.1995,-0.1314,0.408,29.4563,19.8188,-24.0938,,adl
10.031164,3.1942,-1.5175,-0.8788,-0.1995,-0.1314,0.408,30.2625,19.3125,-24.5438,,adl
10.03346,3.1942,-1.5175,-0.8788,-0.1995,-0.1314,0.408,30.2625,19.3125,-24.5438,,adl
10.046806,3.5494,-1.2905,-0.6772,-0.1995,-0.1314,0.408,30.2625,19.3125,-24.5438,,adl
10.065634,3.5678,-0.7903,-0.3888,-0.1995,-0.1314,0.408,30.2625,19.3125,-24.5438,,adl
10.075638,3.5678,-0.7903,-0.3888,0.2672,-0.1486,-0.1492,30.2625,19.3125,-24.5438,,adl
10.078341,3.5678,-0.7903,-0.3888,0.2672,-0.1486,-0.1492,30.2625,19.3125,-24.5438,,adl
10.084207,3.3313,-0.317,-0.2048,0.2672,-0.1486,-0.1492,30.2625,19.3125,-24.5438,,adl
10.08717,3.3313,-0.317,-0.2048,0.2672,-0.1486,-0.1492,30.2813,18.8438,-24.8438,,adl
10.104363,2.8916,0.3039,-0.3048,0.2672,-0.1486,-0.1492,30.2813,18.8438,-24.8438,,adl
10.123369,2.336,0.7575,-0.5274,0.2672,-0.1486,-0.1492,30.2813,18.8438,-24.8438,,adl
10.128262,2.336,0.7575,-0.5274,0.2672,-0.1486,-0.1492,30.2813,18.8438,-24.8438,,adl
10.135694,2.336,0.7575,-0.5274,0.3112,-0.3832,-0.7099,30.2813,18.8438,-24.8438,,adl
10.141675,1.7833,0.9328,-0.6194,0.3112,-0.3832,-0.7099,30.2813,18.8438,-24.8438,,adl
10.146972,1.7833,0.9328,-0.6194,0.3112,-0.3832,-0.7099,28.6125,19.6313,-25.6313,,adl
10.161896,1.2946,0.8922,-0.708,0.3112,-0.3832,-0.7099,28.6125,19.6313,-25.6313,,adl
10.175847,1.2946,0.8922,-0.708,0.3112,-0.3832,-0.7099,28.6125,19.6313,-25.6313,,adl
10.181023,0.9803,0.4224,-1.0683,0.3112,-0.3832,-0.7099,28.6125,19.6313,-25.6313,,adl
10.198728,0.9803,0.4224,-1.0683,-0.1848,-0.9732,-1.0007,28.6125,19.6313,-25.6313,,adl
10.200697,0.6405,-0.3916,-1.37,-0.1848,-0.9732,-1.0007,28.6125,19.6313,-25.6313,,adl
10.20732,0.6405,-0.3916,-1.37,-0.1848,-0.9732,-1.0007,27.0188,20.8875,-27.75,,adl
10.2198,0.5669,-1.3766,-1.0662,-0.1848,-0.9732,-1.0007,27.0188,20.8875,-27.75,,adl
10.222101,0.5669,-1.3766,-1.0662,-0.1848,-0.9732,-1.0007,27.0188,20.8875,-27.75,,adl
10.2378,0.7045,-2.3532,-0.1184,-0.1848,-0.9732,-1.0007,27.0188,20.8875,-27.75,,adl
10.257326,0.9079,-2.5666,0.9455,-0.1848,-0.9732,-1.0007,27.0188,20.8875,-27.75,,adl
10.261345,0.9079,-2.5666,0.9455,-0.7175,-0.9439,-0.9262,27.0188,20.8875,-27.75,,adl
10.266952,0.9079,-2.5666,0.9455,-0.7175,-0.9439,-0.9262,21.7313,24.1875,-28.725,,adl
10.26984,0.9079,-2.5666,0.9455,-0.7175,-0.9439,-0.9262,21.7313,24.1875,-28.725,,adl
10.275739,1.0236,-2.1163,1.6863,-0.7175,-0.9439,-0.9262,21.7313,24.1875,-28.725,,adl
10.295318,0.92,-1.5418,1.9717,-0.7175,-0.9439,-0.9262,21.7313,24.1875,-28.725,,adl
10.314229,0.4336,-1.2669,2.1041,-0.7175,-0.9439,-0.9262,21.7313,24.1875,-28.725,,adl
10.318221,0.4336,-1.2669,2.1041,-0.7175,-0.9439,-0.9262,21.7313,24.1875,-28.725,,adl
10.323191,0.4336,-1.2669,2.1041,-0.0455,-0.3025,-1.2328,21.7313,24.1875,-28.725,,adl
10.330467,0.4336,-1.2669,2.1041,-0.0455,-0.3025,-1.2328,19.5375,27.825,-30.6,,adl
10.332687,-0.2058,-1.4703,1.812,-0.0455,-0.3025,-1.2328,19.5375,27.825,-30.6,,adl
10.352803,-0.8194,-1.2126,1.6601,-0.0455,-0.3025,-1.2328,19.5375,27.825,-30.6,,adl
10.366239,-0.8194,-1.2126,1.6601,-0.0455,-0.3025,-1.2328,19.5375,27.825,-30.6,,adl
10.371316,-1.3636,-0.9442,1.8006,-0.0455,-0.3025,-1.2328,19.5375,27.825,-30.6,,adl
10.385255,-1.3636,-0.9442,1.8006,-0.3631,-0.3319,-1.4172,19.5375,27.825,-30.6,,adl
10.387081,-1.3636,-0.9442,1.8006,-0.3631,-0.3319,-1.4172,17.9062,29.6438,-30.3375,,adl
10.390621,-1.7916,-0.8729,2.0031,-0.3631,-0.3319,-1.4172,17.9062,29.6438,-30.3375,,adl
10.410156,-2.15,-0.9618,2.1824,-0.3631,-0.3319,-1.4172,17.9062,29.6438,-30.3375,,adl
10.414207,-2.15,-0.9618,2.1824,-0.3631,-0.3319,-1.4172,17.9062,29.6438,-30.3375,,adl
10.428689,-2.5064,-0.9418,2.3422,-0.3631,-0.3319,-1.4172,17.9062,29.6438,-30.3375,,adl
10.447799,-2.5064,-0.9418,2.3422,-0.2105,-0.6385,-1.1888,17.9062,29.6438,-30.3375,,adl
10.44928,-2.8179,-0.7253,2.3526,-0.2105,-0.6385,-1.1888,17.9062,29.6438,-30.3375,,adl
10.450227,-2.8179,-0.7253,2.3526,-0.2105,-0.6385,-1.1888,16.1625,31.65,-29.7563,,adl
10.461823,-2.8179,-0.7253,2.3526,-0.2105,-0.6385,-1.1888,16.1625,31.65,-29.7563,,adl
10.466771,-2.7922,-0.3734,2.2169,-0.2105,-0.6385,-1.1888,16.1625,31.65,-29.7563,,adl
10.486337,-2.67,-0.2187,1.9555,-0.2105,-0.6385,-1.1888,16.1625,31.65,-29.7563,,adl
10.505792,-2.8071,-0.2247,1.8195,-0.2105,-0.6385,-1.1888,16.1625,31.65,-29.7563,,adl
10.509625,-2.8071,-0.2247,1.8195,-0.2105,-0.6385,-1.1888,12.9,32.8313,-29.7563,,adl
10.512101,-2.8071,-0.2247,1.8195,-0.2105,-0.6385,-1.1888,12.9,32.8313,-29.7563,,adl
10.513967,-2.8071,-0.2247,1.8195,-0.153,-0.2146,-0.7905,12.9,32.8313,-29.7563,,adl
10.52479,-3.0305,-0.4522,1.6996,-0.153,-0.2146,-0.7905,12.9,32.8313,-29.7563,,adl
10.54366,-3.1701,-0.8843,1.5258,-0.153,-0.2146,-0.7905,12.9,32.8313,-29.7563,,adl
10.557538,-3.1701,-0.8843,1.5258,-0.153,-0.2146,-0.7905,12.9,32.8313,-29.7563,,adl
10.564144,-3.1771,-1.064,1.5674,-0.153,-0.2146,-0.7905,12.9,32.8313,-29.7563,,adl
10.568793,-3.1771,-1.064,1.5674,-0.153,-0.2146,-0.7905,12.2813,33.4125,-29.0063,,adl
10.571997,-3.1771,-1.064,1.5674,-0.3131,0.1947,-0.3361,12.2813,33.4125,-29.0063,,adl
10.582507,-3.1686,-1.1132,1.675,-0.3131,0.1947,-0.3361,12.2813,33.4125,-29.0063,,adl
10.601518,-3.1406,-0.9342,1.7779,-0.3131,0.1947,-0.3361,12.2813,33.4125,-29.0063,,adl
10.605068,-3.1406,-0.9342,1.7779,-0.3131,0.1947,-0.3361,12.2813,33.4125,-29.0063,,adl
10.620718,-3.0132,-1.1589,1.431,-0.3131,0.1947,-0.3361,12.2813,33.4125,-29.0063,,adl
10.628211,-3.0132,-1.1589,1.431,-0.3131,0.1947,-0.3361,12.7125,34.5375,-28.1813,,adl
10.633181,-3.0132,-1.1589,1.431,-0.2153,0.5221,0.0842,12.7125,34.5375,-28.1813,,adl
10.643088,-3.5043,-2.4193,0.5106,-0.2153,0.5221,0.0842,12.7125,34.5375,-28.1813,,adl
10.654213,-3.5043,-2.4193,0.5106,-0.2153,0.5221,0.0842,12.7125,34.5375,-28.1813,,adl
10.658456,-3.9614,-2.7987,1.0719,-0.2153,0.5221,0.0842,12.7125,34.5375,-28.1813,,adl
10.677567,-3.9062,-3.1867,1.5039,-0.2153,0.5221,0.0842,12.7125,34.5375,-28.1813,,adl
10.68779,-3.9062,-3.1867,1.5039,-0.2153,0.5221,0.0842,15.225,34.8938,-28.7625,,adl
10.699947,-3.9062,-3.1867,1.5039,-0.4609,0.8312,1.1777,15.225,34.8938,-28.7625,,adl
10.701238,-3.2831,-3.0872,2.1109,-0.4609,0.8312,1.1777,15.225,34.8938,-28.7625,,adl
10.70189,-3.2831,-3.0872,2.1109,-0.4609,0.8312,1.1777,15.225,34.8938,-28.7625,,adl
10.715717,-2.3199,-1.9689,2.627,-0.4609,0.8312,1.1777,15.225,34.8938,-28.7625,,adl
10.735062,-0.9505,-0.6775,2.1827,-0.4609,0.8312,1.1777,15.225,34.8938,-28.7625,,adl
10.747276,-0.9505,-0.6775,2.1827,-0.4609,0.8312,1.1777,18.4875,33.5625,-26.5875,,adl
10.749038,-0.9505,-0.6775,2.1827,-0.4609,0.8312,1.1777,18.4875,33.5625,-26.5875,,adl
10.753233,-0.0052,0.0004,0.9817,-0.4609,0.8312,1.1777,18.4875,33.5625,-26.5875,,adl
10.757551,-0.0052,0.0004,0.9817,0.4822,0.1459,1.4343,18.4875,33.5625,-26.5875,,adl
10.77377,0.4175,0.5081,-0.1771,0.4822,0.1459,1.4343,18.4875,33.5625,-26.5875,,adl
10.79324,0.646,0.3104,-1.3488,0.4822,0.1459,1.4343,18.4875,33.5625,-26.5875,,adl
10.796986,0.646,0.3104,-1.3488,0.4822,0.1459,1.4343,18.4875,33.5625,-26.5875,,adl
10.809905,0.646,0.3104,-1.3488,0.4822,0.1459,1.4343,20.5125,32.2125,-28.3125,,adl
10.813089,0.602,0.1045,-2.1533,0.4822,0.1459,1.4343,20.5125,32.2125,-28.3125,,adl
10.820528,0.602,0.1045,-2.1533,-0.037,0.0078,0.6413,20.5125,32.2125,-28.3125,,adl
10.829806,0.2277,0.1067,-2.0913,-0.037,0.0078,0.6413,20.5125,32.2125,-28.3125,,adl
10.844093,0.2277,0.1067,-2.0913,-0.037,0.0078,0.6413,20.5125,32.2125,-28.3125,,adl
10.849706,-0.1185,-0.2966,-1.5417,-0.037,0.0078,0.6413,20.5125,32.2125,-28.3125,,adl
10.867958,-0.1185,-0.2966,-1.5417,-0.037,0.0078,0.6413,20.0438,32.55,-31.9313,,adl
10.871805,-0.3491,-0.9312,-0.6281,-0.037,0.0078,0.6413,20.0438,32.55,-31.9313,,adl
10.882632,-0.3491,-0.9312,-0.6281,-0.3827,1.1586,1.1582,20.0438,32.55,-31.9313,,adl
10.887782,-0.2514,-1.2026,0.2727,-0.3827,1.1586,1.1582,20.0438,32.55,-31.9313,,adl
10.892235,-0.2514,-1.2026,0.2727,-0.3827,1.1586,1.1582,20.0438,32.55,-31.9313,,adl
10.90652,0.3098,-0.9339,1.1307,-0.3827,1.1586,1.1582,20.0438,32.55,-31.9313,,adl
10.92636,0.9608,-0.4913,1.4851,-0.3827,1.1586,1.1582,20.0438,32.55,-31.9313,,adl
10.930222,0.9608,-0.4913,1.4851,-0.3827,1.1586,1.1582,19.7063,30.0938,-27.0563,,adl
10.941274,0.9608,-0.4913,1.4851,-0.3827,1.1586,1.1582,19.7063,30.0938,-27.0563,,adl
10.944812,0.9608,-0.4913,1.4851,0.4322,1.0059,1.301,19.7063,30.0938,-27.0563,,adl
10.947763,1.407,-0.1368,1.3516,0.4322,1.0059,1.301,19.7063,30.0938,-27.0563,,adl
10.964343,1.5908,0.1118,0.6221,0.4322,1.0059,1.301,19.7063,30.0938,-27.0563,,adl
10.984436,1.3584,0.327,-0.1943,0.4322,1.0059,1.301,19.7063,30.0938,-27.0563,,adl
10.988016,1.3584,0.327,-0.1943,0.4322,1.0059,1.301,19.7063,30.0938,-27.0563,,adl
10.989669,1.3584,0.327,-0.1943,0.4322,1.0059,1.301,25.7813,25.6875,-22.5,,adl
11.003996,1.0829,0.4103,-0.7287,0.4322,1.0059,1.301,25.7813,25.6875,-22.5,,adl
11.007783,1.0829,0.4103,-0.7287,0.4041,-0.1534,0.5998,25.7813,25.6875,-22.5,,adl
11.021934,1.0698,0.3805,-1.0351,0.4041,-0.1534,0.5998,25.7813,25.6875,-22.5,,adl
11.035652,1.0698,0.3805,-1.0351,0.4041,-0.1534,0.5998,25.7813,25.6875,-22.5,,adl
11.042184,1.5315,0.1932,-1.1294,0.4041,-0.1534,0.5998,25.7813,25.6875,-22.5,,adl
11.047803,1.5315,0.1932,-1.1294,0.4041,-0.1534,0.5998,28.6875,23.85,-23.2125,,adl
11.059837,2.0627,0.2821,-1.0111,0.4041,-0.1534,0.5998,28.6875,23.85,-23.2125,,adl
11.069006,2.0627,0.2821,-1.0111,0.2551,-0.0839,0.7744,28.6875,23.85,-23.2125,,adl
11.079303,2.5417,0.4631,-1.2147,0.2551,-0.0839,0.7744,28.6875,23.85,-23.2125,,adl
11.083865,2.5417,0.4631,-1.2147,0.2551,-0.0839,0.7744,28.6875,23.85,-23.2125,,adl
11.098403,2.7441,0.7203,-1.691,0.2551,-0.0839,0.7744,28.6875,23.85,-23.2125,,adl
11.108731,2.7441,0.7203,-1.691,0.2551,-0.0839,0.7744,29.3438,22.4438,-23.3438,,adl
11.118677,2.7596,0.95,-1.9561,0.2551,-0.0839,0.7744,29.3438,22.4438,-23.3438,,adl
11.13059,2.7596,0.95,-1.9561,0.2551,-0.0839,0.7744,29.3438,22.4438,-23.3438,,adl
11.132099,2.7596,0.95,-1.9561,0.3002,0.593,0.5728,29.3438,22.4438,-23.3438,,adl
11.136228,2.5683,1.1123,-1.9395,0.3002,0.593,0.5728,29.3438,22.4438,-23.3438,,adl
11.156309,2.5378,1.1437,-1.6938,0.3002,0.593,0.5728,29.3438,22.4438,-23.3438,,adl
11.167902,2.5378,1.1437,-1.6938,0.3002,0.593,0.5728,32.925,20.7188,-24.3938,,adl
11.175997,2.5918,0.9368,-1.5946,0.3002,0.593,0.5728,32.925,20.7188,-24.3938,,adl
11.180173,2.5918,0.9368,-1.5946,0.3002,0.593,0.5728,32.925,20.7188,-24.3938,,adl
11.192979,2.5918,0.9368,-1.5946,0.1743,0.582,0.4128,32.925,20.7188,-24.3938,,adl
11.194581,2.7736,0.8211,-1.5366,0.1743,0.582,0.4128,32.925,20.7188,-24.3938,,adl
11.214202,2.8309,0.9156,-1.5808,0.1743,0.582,0.4128,32.925,20.7188,-24.3938,,adl
11.227373,2.8309,0.9156,-1.5808,0.1743,0.582,0.4128,32.925,20.7188,-24.3938,,adl
11.230445,2.8309,0.9156,-1.5808,0.1743,0.582,0.4128,32.4563,19.8,-21.9938,,adl
11.232406,2.7518,0.9378,-1.8528,0.1743,0.582,0.4128,32.4563,19.8,-21.9938,,adl
11.251176,2.6267,0.7413,-2.2343,0.1743,0.582,0.4128,32.4563,19.8,-21.9938,,adl
11.254921,2.6267,0.7413,-2.2343,0.0742,0.4036,0.0561,32.4563,19.8,-21.9938,,adl
11.270215,2.555,0.4599,-2.2499,0.0742,0.4036,0.0561,32.4563,19.8,-21.9938,,adl
11.274409,2.555,0.4599,-2.2499,0.0742,0.4036,0.0561,32.4563,19.8,-21.9938,,adl
11.288168,2.555,0.4599,-2.2499,0.0742,0.4036,0.0561,32.9438,19.6313,-21.1875,,adl
11.291856,2.6341,0.139,-2.1597,0.0742,0.4036,0.0561,32.9438,19.6313,-21.1875,,adl
11.309412,2.7043,-0.202,-1.9525,0.0742,0.4036,0.0561,32.9438,19.6313,-21.1875,,adl
11.317664,2.7043,-0.202,-1.9525,-0.2606,0.5441,-0.1284,32.9438,19.6313,-21.1875,,adl
11.321755,2.7043,-0.202,-1.9525,-0.2606,0.5441,-0.1284,32.9438,19.6313,-21.1875,,adl
11.328424,2.2392,-1.334,-2.4179,-0.2606,0.5441,-0.1284,32.9438,19.6313,-21.1875,,adl
11.346789,1.6831,-2.7641,-1.8834,-0.2606,0.5441,-0.1284,32.9438,19.6313,-21.1875,,adl
11.348938,1.6831,-2.7641,-1.8834,-0.2606,0.5441,-0.1284,34.35,20.325,-20.0813,,adl
11.371765,1.9661,-2.9106,-0.5303,-0.2606,0.5441,-0.1284,34.35,20.325,-20.0813,,adl
11.373674,1.9661,-2.9106,-0.5303,-0.2606,0.5441,-0.1284,34.35,20.325,-20.0813,,adl
11.378754,1.9661,-2.9106,-0.5303,-0.4976,0.538,0.1233,34.35,20.325,-20.0813,,adl
11.385267,3.0362,-1.8094,-0.3411,-0.4976,0.538,0.1233,34.35,20.325,-20.0813,,adl
11.404863,3.4687,-1.1723,-0.5762,-0.4976,0.538,0.1233,34.35,20.325,-20.0813,,adl
11.408942,3.4687,-1.1723,-0.5762,-0.4976,0.538,0.1233,35.175,21.2438,-17.4938,,adl
11.419272,3.4687,-1.1723,-0.5762,-0.4976,0.538,0.1233,35.175,21.2438,-17.4938,,adl
11.423002,3.0095,-1.0277,-0.5806,-0.4976,0.538,0.1233,35.175,21.2438,-17.4938,,adl
11.442027,3.0095,-1.0277,-0.5806,-0.004,0.7457,-0.4936,35.175,21.2438,-17.4938,,adl
11.443771,2.0837,-0.9296,-0.2691,-0.004,0.7457,-0.4936,35.175,21.2438,-17.4938,,adl
11.462322,1.4466,-0.6258,-0.085,-0.004,0.7457,-0.4936,35.175,21.2438,-17.4938,,adl
11.46615,1.4466,-0.6258,-0.085,-0.004,0.7457,-0.4936,35.175,21.2438,-17.4938,,adl
11.46863,1.4466,-0.6258,-0.085,-0.004,0.7457,-0.4936,35.5312,21.675,-16.575,,adl
11.480371,1.2252,-0.1813,-0.3362,-0.004,0.7457,-0.4936,35.5312,21.675,-16.575,,adl
11.500456,1.1044,0.477,-0.6329,-0.004,0.7457,-0.4936,35.5312,21.675,-16.575,,adl
11.504024,1.1044,0.477,-0.6329,-0.0443,0.1764,-0.5499,35.5312,21.675,-16.575,,adl
11.513663,1.1044,0.477,-0.6329,-0.0443,0.1764,-0.5499,35.5312,21.675,-16.575,,adl
11.520347,0.9175,0.7478,-0.949,-0.0443,0.1764,-0.5499,35.5312,21.675,-16.575,,adl
11.529192,0.9175,0.7478,-0.949,-0.0443,0.1764,-0.5499,34.875,23.1188,-15.7125,,adl
11.538316,0.3704,0.6561,-1.1747,-0.0443,0.1764,-0.5499,34.875,23.1188,-15.7125,,adl
11.55818,-0.5424,-0.0651,-1.4645,-0.0443,0.1764,-0.5499,34.875,23.1188,-15.7125,,adl
11.562057,-0.5424,-0.0651,-1.4645,-0.0443,0.1764,-0.5499,34.875,23.1188,-15.7125,,adl
11.566826,-0.5424,-0.0651,-1.4645,-0.2483,0.373,-0.9372,34.875,23.1188,-15.7125,,adl
11.577468,-1.1707,-1.5882,-1.7595,-0.2483,0.373,-0.9372,34.875,23.1188,-15.7125,,adl
11.58815,-1.1707,-1.5882,-1.7595,-0.2483,0.373,-0.9372,32.625,25.5188,-14.7,,adl
11.595415,-1.3187,-3.2344,-1.6502,-0.2483,0.373,-0.9372,32.625,25.5188,-14.7,,adl
11.609687,-1.3187,-3.2344,-1.6502,-0.2483,0.373,-0.9372,32.625,25.5188,-14.7,,adl
11.614272,-1.1698,-3.6482,-0.5911,-0.2483,0.373,-0.9372,32.625,25.5188,-14.7,,adl
11.628628,-1.1698,-3.6482,-0.5911,-0.8788,0.2375,-0.8004,32.625,25.5188,-14.7,,adl
11.633991,-0.8409,-3.5801,0.7401,-0.8788,0.2375,-0.8004,32.625,25.5188,-14.7,,adl
11.648729,-0.8409,-3.5801,0.7401,-0.8788,0.2375,-0.8004,31.1063,29.1375,-14.8313,,adl
11.652778,-0.7135,-3.4489,1.8379,-0.8788,0.2375,-0.8004,31.1063,29.1375,-14.8313,,adl
11.656898,-0.7135,-3.4489,1.8379,-0.8788,0.2375,-0.8004,31.1063,29.1375,-14.8313,,adl
11.672106,-1.3738,-2.9043,2.6565,-0.8788,0.2375,-0.8004,31.1063,29.1375,-14.8313,,adl
11.691757,-1.3738,-2.9043,2.6565,-0.1152,0.2643,-1.2829,31.1063,29.1375,-14.8313,,adl
11.695269,-2.3421,-2.2469,2.3558,-0.1152,0.2643,-1.2829,31.1063,29.1375,-14.8313,,adl
11.704274,-2.3421,-2.2469,2.3558,-0.1152,0.2643,-1.2829,31.1063,29.1375,-14.8313,,adl
11.707363,-2.3421,-2.2469,2.3558,-0.1152,0.2643,-1.2829,30.975,32.2688,-15.7313,,adl
11.709912,-3.1992,-1.6181,1.9459,-0.1152,0.2643,-1.2829,30.975,32.2688,-15.7313,,adl
11.729842,-3.725,-1.3523,1.6394,-0.1152,0.2643,-1.2829,30.975,32.2688,-15.7313,,adl
11.749022,-4.1682,-1.1633,1.4694,-0.1152,0.2643,-1.2829,30.975,32.2688,-15.7313,,adl
11.752681,-4.1682,-1.1633,1.4694,-0.1152,0.2643,-1.2829,30.975,32.2688,-15.7313,,adl
11.754578,-4.1682,-1.1633,1.4694,0.1609,0.285,-1.3134,30.975,32.2688,-15.7313,,adl
11.767448,-4.7928,-0.7811,1.3476,0.1609,0.285,-1.3134,30.975,32.2688,-15.7313,,adl
11.768854,-4.7928,-0.7811,1.3476,0.1609,0.285,-1.3134,30.6938,34.1813,-14.5688,,adl
11.787143,-5.1303,-0.2063,1.1035,0.1609,0.285,-1.3134,30.6938,34.1813,-14.5688,,adl
11.800817,-5.1303,-0.2063,1.1035,0.1609,0.285,-1.3134,30.6938,34.1813,-14.5688,,adl
11.805881,-4.9224,-0.167,0.4154,0.1609,0.285,-1.3134,30.6938,34.1813,-14.5688,,adl
11.81471,-4.9224,-0.167,0.4154,0.2366,0.6797,-0.5438,30.6938,34.1813,-14.5688,,adl
11.824394,-4.7376,-0.2201,0.0082,0.2366,0.6797,-0.5438,30.6938,34.1813,-14.5688,,adl
11.82727,-4.7376,-0.2201,0.0082,0.2366,0.6797,-0.5438,29.7563,35.2313,-13.3875,,adl
11.844477,-4.5644,-0.0244,-0.1717,0.2366,0.6797,-0.5438,29.7563,35.2313,-13.3875,,adl
11.847929,-4.5644,-0.0244,-0.1717,0.2366,0.6797,-0.5438,29.7563,35.2313,-13.3875,,adl
11.863548,-4.3822,0.0841,0.0251,0.2366,0.6797,-0.5438,29.7563,35.2313,-13.3875,,adl
11.877276,-4.3822,0.0841,0.0251,-0.577,1.4042,0.2309,29.7563,35.2313,-13.3875,,adl
11.88274,-4.1104,-0.0034,0.2658,-0.577,1.4042,0.2309,29.7563,35.2313,-13.3875,,adl
11.888283,-4.1104,-0.0034,0.2658,-0.577,1.4042,0.2309,30.9375,34.425,-10.2188,,adl
11.896251,-4.1104,-0.0034,0.2658,-0.577,1.4042,0.2309,30.9375,34.425,-10.2188,,adl
11.901659,-3.8742,-0.4327,0.5476,-0.577,1.4042,0.2309,30.9375,34.425,-10.2188,,adl
11.921206,-3.7226,-0.7132,0.9801,-0.577,1.4042,0.2309,30.9375,34.425,-10.2188,,adl
11.939298,-3.7226,-0.7132,0.9801,-1.1989,1.4762,0.7061,30.9375,34.425,-10.2188,,adl
11.942881,-3.5683,-0.8706,1.5803,-1.1989,1.4762,0.7061,30.9375,34.425,-10.2188,,adl
11.945641,-3.5683,-0.8706,1.5803,-1.1989,1.4762,0.7061,30.9375,34.425,-10.2188,,adl
11.948027,-3.5683,-0.8706,1.5803,-1.1989,1.4762,0.7061,32.55,34.1438,-6.1125,,adl
11.958666,-3.3069,-1.015,1.882,-1.1989,1.4762,0.7061,32.55,34.1438,-6.1125,,adl
11.980202,-3.0572,-1.289,1.8861,-1.1989,1.4762,0.7061,32.55,34.1438,-6.1125,,adl
11.991949,-3.0572,-1.289,1.8861,-1.1989,1.4762,0.7061,32.55,34.1438,-6.1125,,adl
11.997084,-2.7925,-1.2698,1.9423,-1.1989,1.4762,0.7061,32.55,34.1438,-6.1125,,adl
12.001829,-2.7925,-1.2698,1.9423,-0.9691,1.5031,1.3035,32.55,34.1438,-6.1125,,adl
12.00799,-2.7925,-1.2698,1.9423,-0.9691,1.5031,1.3035,34.8188,32.4375,-1.9313,,adl
12.016571,-2.2575,-1.0168,1.9264,-0.9691,1.5031,1.3035,34.8188,32.4375,-1.9313,,adl
12.036107,-1.6718,-0.8333,1.7032,-0.9691,1.5031,1.3035,34.8188,32.4375,-1.9313,,adl
12.042161,-1.6718,-0.8333,1.7032,-0.9691,1.5031,1.3035,34.8188,32.4375,-1.9313,,adl
12.054784,-1.0836,-0.8641,1.3703,-0.9691,1.5031,1.3035,34.8188,32.4375,-1.9313,,adl
12.063103,-1.0836,-0.8641,1.3703,-0.9215,1.3516,1.6211,34.8188,32.4375,-1.9313,,adl
12.069596,-1.0836,-0.8641,1.3703,-0.9215,1.3516,1.6211,37.0688,28.9313,1.2,,adl
12.073781,-0.5678,-1.0702,1.0573,-0.9215,1.3516,1.6211,37.0688,28.9313,1.2,,adl
12.087776,-0.5678,-1.0702,1.0573,-0.9215,1.3516,1.6211,37.0688,28.9313,1.2,,adl
12.092891,-0.1745,-2.31,-0.1215,-0.9215,1.3516,1.6211,37.0688,28.9313,1.2,,adl
12.112471,-0.3168,-4.444,-0.5359,-0.9215,1.3516,1.6211,37.0688,28.9313,1.2,,adl
12.125856,-0.3168,-4.444,-0.5359,-2.0064,1.9441,1.7885,37.0688,28.9313,1.2,,adl
12.129242,-0.3168,-4.444,-0.5359,-2.0064,1.9441,1.7885,37.275,24.9188,6.9938,,adl
12.130747,-0.5506,-5.3291,1.3607,-2.0064,1.9441,1.7885,37.275,24.9188,6.9938,,adl
12.134239,-0.5506,-5.3291,1.3607,-2.0064,1.9441,1.7885,37.275,24.9188,6.9938,,adl
12.150179,0.0932,-4.2488,3.6716,-2.0064,1.9441,1.7885,37.275,24.9188,6.9938,,adl
12.170046,1.4044,-2.7519,5.1454,-2.0064,1.9441,1.7885,37.275,24.9188,6.9938,,adl
12.18331,1.4044,-2.7519,5.1454,-2.0064,1.9441,1.7885,37.275,24.9188,6.9938,,adl
12.188116,1.4044,-2.7519,5.1454,-1.3161,2.2007,2.3431,37.275,24.9188,6.9938,,adl
12.190843,2.431,-2.4082,5.3585,-1.3161,2.2007,2.3431,37.275,24.9188,6.9938,,adl
12.193084,2.431,-2.4082,5.3585,-1.3161,2.2007,2.3431,38.1938,17.3438,16.05,,adl
12.207898,3.0308,-2.6563,5.1925,-1.3161,2.2007,2.3431,38.1938,17.3438,16.05,,adl
12.227022,3.1747,-2.5597,4.9503,-1.3161,2.2007,2.3431,38.1938,17.3438,16.05,,adl
12.230005,3.1747,-2.5597,4.9503,-1.3161,2.2007,2.3431,38.1938,17.3438,16.05,,adl
12.246015,3.2545,-1.988,4.2725,-1.3161,2.2007,2.3431,38.1938,17.3438,16.05,,adl
12.249466,3.2545,-1.988,4.2725,-1.3161,2.2007,2.3431,37.3875,11.6625,22.1625,,adl
12.252164,3.2545,-1.988,4.2725,-0.4584,1.4726,1.1765,37.3875,11.6625,22.1625,,adl
12.2649,3.3958,-1.6373,3.2809,-0.4584,1.4726,1.1765,37.3875,11.6625,22.1625,,adl
12.278458,3.3958,-1.6373,3.2809,-0.4584,1.4726,1.1765,37.3875,11.6625,22.1625,,adl
12.283661,3.5762,-1.3467,2.1795,-0.4584,1.4726,1.1765,37.3875,11.6625,22.1625,,adl
12.303143,3.4518,-0.8457,1.3683,-0.4584,1.4726,1.1765,37.3875,11.6625,22.1625,,adl
12.309126,3.4518,-0.8457,1.3683,-0.4584,1.4726,1.1765,36.9375,9.825,24.975,,adl
12.312236,3.4518,-0.8457,1.3683,-0.3411,0.9522,0.3677,36.9375,9.825,24.975,,adl
12.322368,3.1239,-0.5848,0.8856,-0.3411,0.9522,0.3677,36.9375,9.825,24.975,,adl
12.326379,3.1239,-0.5848,0.8856,-0.3411,0.9522,0.3677,36.9375,9.825,24.975,,adl
12.340345,2.6158,-0.5529,0.8969,-0.3411,0.9522,0.3677,36.9375,9.825,24.975,,adl
12.359957,2.1279,-0.6016,1.3501,-0.3411,0.9522,0.3677,36.9375,9.825,24.975,,adl
12.367656,2.1279,-0.6016,1.3501,-0.3411,0.9522,0.3677,34.35,8.025,28.4625,,adl
12.374828,2.1279,-0.6016,1.3501,-0.3411,0.9522,0.3677,34.35,8.025,28.4625,,adl
12.376445,2.1279,-0.6016,1.3501,-0.9691,2.6333,0.2907,34.35,8.025,28.4625,,adl
12.37996,1.6728,-0.6319,1.7739,-0.9691,2.6333,0.2907,34.35,8.025,28.4625,,adl
12.399029,1.3522,-0.5516,2.2504,-0.9691,2.6333,0.2907,34.35,8.025,28.4625,,adl
12.418202,1.0413,-0.1124,2.5846,-0.9691,2.6333,0.2907,34.35,8.025,28.4625,,adl
12.422273,1.0413,-0.1124,2.5846,-0.9691,2.6333,0.2907,34.35,8.025,28.4625,,adl
12.427888,1.0413,-0.1124,2.5846,-0.9691,2.6333,0.2907,29.2125,6.0563,34.425,,adl
12.436273,1.0413,-0.1124,2.5846,-0.5819,3.2563,0.0573,29.2125,6.0563,34.425,,adl
12.43793,0.8637,0.4675,2.4397,-0.5819,3.2563,0.0573,29.2125,6.0563,34.425,,adl
12.45618,0.4726,0.9631,1.5018,-0.5819,3.2563,0.0573,29.2125,6.0563,34.425,,adl
12.470634,0.4726,0.9631,1.5018,-0.5819,3.2563,0.0573,29.2125,6.0563,34.425,,adl
12.476687,-0.3913,1.2474,0.8267,-0.5819,3.2563,0.0573,29.2125,6.0563,34.425,,adl
12.48829,-0.3913,1.2474,0.8267,-0.5819,3.2563,0.0573,23.1562,4.9125,40.2938,,adl
12.494797,-1.7014,1.3827,0.7158,-0.5819,3.2563,0.0573,23.1562,4.9125,40.2938,,adl
12.499164,-1.7014,1.3827,0.7158,-0.5294,4.2301,0.0512,23.1562,4.9125,40.2938,,adl
12.514258,-2.6611,1.2177,1.0405,-0.5294,4.2301,0.0512,23.1562,4.9125,40.2938,,adl
12.518417,-2.6611,1.2177,1.0405,-0.5294,4.2301,0.0512,23.1562,4.9125,40.2938,,adl
12.53279,-2.966,0.9562,1.6394,-0.5294,4.2301,0.0512,23.1562,4.9125,40.2938,,adl
12.549034,-2.966,0.9562,1.6394,-0.5294,4.2301,0.0512,12.5063,2.8688,42.15,,adl
12.552,-2.6272,0.9432,2.5314,-0.5294,4.2301,0.0512,12.5063,2.8688,42.15,,adl
12.560813,-2.6272,0.9432,2.5314,-0.715,3.6986,1.1703,12.5063,2.8688,42.15,,adl
12.56505,-2.6272,0.9432,2.5314,-0.715,3.6986,1.1703,12.5063,2.8688,42.15,,adl
12.571167,-1.6325,0.7185,2.9437,-0.715,3.6986,1.1703,12.5063,2.8688,42.15,,adl
12.590213,-0.8099,0.2398,2.9293,-0.715,3.6986,1.1703,12.5063,2.8688,42.15,,adl
12.607737,-0.8099,0.2398,2.9293,-0.715,3.6986,1.1703,3.1875,1.0875,45.4313,,adl
12.609437,0.0747,-0.0337,3.0796,-0.715,3.6986,1.1703,3.1875,1.0875,45.4313,,adl
12.61379,0.0747,-0.0337,3.0796,-0.715,3.6986,1.1703,3.1875,1.0875,45.4313,,adl
12.622259,0.0747,-0.0337,3.0796,-0.3596,1.3688,1.0884,3.1875,1.0875,45.4313,,adl
12.628623,0.7996,-0.299,2.9191,-0.3596,1.3688,1.0884,3.1875,1.0875,45.4313,,adl
12.648278,1.2774,-0.4742,2.415,-0.3596,1.3688,1.0884,3.1875,1.0875,45.4313,,adl
12.660595,1.2774,-0.4742,2.415,-0.3596,1.3688,1.0884,3.1875,1.0875,45.4313,,adl
12.666549,1.8097,-0.7539,1.7892,-0.3596,1.3688,1.0884,3.1875,1.0875,45.4313,,adl
12.668443,1.8097,-0.7539,1.7892,-0.3596,1.3688,1.0884,-0.0938,0.225,46.7625,,adl
12.684721,1.8097,-0.7539,1.7892,-0.0443,0.2412,0.5411,-0.0938,0.225,46.7625,,adl
12.686336,2.2432,-1.0183,0.9194,-0.0443,0.2412,0.5411,-0.0938,0.225,46.7625,,adl
12.705789,2.1913,-0.7323,0.6557,-0.0443,0.2412,0.5411,-0.0938,0.225,46.7625,,adl
12.70923,2.1913,-0.7323,0.6557,-0.0443,0.2412,0.5411,-0.0938,0.225,46.7625,,adl
12.724519,1.7782,-0.284,0.7952,-0.0443,0.2412,0.5411,-0.0938,0.225,46.7625,,adl
12.728993,1.7782,-0.284,0.7952,-0.0443,0.2412,0.5411,-2.1562,0.2625,47.1375,,adl
12.742385,1.1796,0.0639,0.7307,-0.0443,0.2412,0.5411,-2.1562,0.2625,47.1375,,adl
12.74721,1.1796,0.0639,0.7307,0.0681,1.2478,0.4177,-2.1562,0.2625,47.1375,,adl
12.756334,1.1796,0.0639,0.7307,0.0681,1.2478,0.4177,-2.1562,0.2625,47.1375,,adl
12.762516,0.8945,0.1898,0.8113,0.0681,1.2478,0.4177,-2.1562,0.2625,47.1375,,adl
12.782813,0.7808,0.2824,0.8296,0.0681,1.2478,0.4177,-2.1562,0.2625,47.1375,,adl
12.788174,0.7808,0.2824,0.8296,0.0681,1.2478,0.4177,-6.3563,0.225,48.2063,,adl
12.800776,0.706,0.3258,0.8897,0.0681,1.2478,0.4177,-6.3563,0.225,48.2063,,adl
12.804518,0.706,0.3258,0.8897,0.0681,1.2478,0.4177,-6.3563,0.225,48.2063,,adl
12.809149,0.706,0.3258,0.8897,0.0718,1.64,0.5765,-6.3563,0.225,48.2063,,adl
12.820342,0.6432,0.332,0.9012,0.0718,1.64,0.5765,-6.3563,0.225,48.2063,,adl
12.8394,0.7733,0.3125,0.9793,0.0718,1.64,0.5765,-6.3563,0.225,48.2063,,adl
12.848882,0.7733,0.3125,0.9793,0.0718,1.64,0.5765,-9.4875,0.6188,48.3938,,adl
12.854966,0.7733,0.3125,0.9793,0.0718,1.64,0.5765,-9.4875,0.6188,48.3938,,adl
12.857868,0.9591,0.2558,0.9976,0.0718,1.64,0.5765,-9.4875,0.6188,48.3938,,adl
12.871185,0.9591,0.2558,0.9976,0.0986,1.0743,0.5118,-9.4875,0.6188,48.3938,,adl
12.876459,1.1653,0.0355,0.873,0.0986,1.0743,0.5118,-9.4875,0.6188,48.3938,,adl
12.896619,1.4474,0.0462,0.6372,0.0986,1.0743,0.5118,-9.4875,0.6188,48.3938,,adl
12.900307,1.4474,0.0462,0.6372,0.0986,1.0743,0.5118,-9.4875,0.6188,48.3938,,adl
12.908711,1.4474,0.0462,0.6372,0.0986,1.0743,0.5118,-11.9625,1.575,48.375,,adl
12.915806,1.5319,0.0825,0.3977,0.0986,1.0743,0.5118,-11.9625,1.575,48.375,,adl
12.934157,1.5319,0.0825,0.3977,0.2489,1.0303,0.4763,-11.9625,1.575,48.375,,adl
12.938067,1.5823,-0.1731,0.1303,0.2489,1.0303,0.4763,-11.9625,1.575,48.375,,adl
12.94866,1.5823,-0.1731,0.1303,0.2489,1.0303,0.4763,-11.9625,1.575,48.375,,adl
12.953826,1.6244,-0.8785,-0.1536,0.2489,1.0303,0.4763,-11.9625,1.575,48.375,,adl
12.967746,1.6244,-0.8785,-0.1536,0.2489,1.0303,0.4763,-14.25,2.9062,47.4,,adl
12.973134,1.7516,-1.3391,-0.2574,0.2489,1.0303,0.4763,-14.25,2.9062,47.4,,adl
12.991837,2.1167,-0.9242,-0.0329,0.2489,1.0303,0.4763,-14.25,2.9062,47.4,,adl
12.996318,2.1167,-0.9242,-0.0329,0.2489,1.0303,0.4763,-14.25,2.9062,47.4,,adl
12.998331,2.1167,-0.9242,-0.0329,0.2221,0.6663,0.408,-14.25,2.9062,47.4,,adl
13.010922,2.4883,0.0429,-0.0781,0.2221,0.6663,0.408,-14.25,2.9062,47.4,,adl
13.027987,2.4883,0.0429,-0.0781,0.2221,0.6663,0.408,-14.4938,4.5938,45.45,,adl
13.029231,2.2855,0.5717,-0.4827,0.2221,0.6663,0.408,-14.4938,4.5938,45.45,,adl
13.044312,2.2855,0.5717,-0.4827,0.2221,0.6663,0.408,-14.4938,4.5938,45.45,,adl
13.049745,1.8079,0.4412,-0.7025,0.2221,0.6663,0.408,-14.4938,4.5938,45.45,,adl
13.058521,1.8079,0.4412,-0.7025,0.5445,0.4658,0.1306,-14.4938,4.5938,45.45,,adl
13.067758,1.5481,0.0799,-0.9806,0.5445,0.4658,0.1306,-14.4938,4.5938,45.45,,adl
13.088405,1.51,0.1437,-1.1083,0.5445,0.4658,0.1306,-14.4938,4.5938,45.45,,adl
13.092588,1.51,0.1437,-1.1083,0.5445,0.4658,0.1306,-16.275,5.4188,46.1438,,adl
13.094906,1.51,0.1437,-1.1083,0.5445,0.4658,0.1306,-16.275,5.4188,46.1438,,adl
13.105948,1.6546,0.004,-1.1616,0.5445,0.4658,0.1306,-16.275,5.4188,46.1438,,adl
13.119969,1.6546,0.004,-1.1616,0.3234,-0.1084,-0.0307,-16.275,5.4188,46.1438,,adl
13.125209,1.8839,-0.0846,-0.8991,0.3234,-0.1084,-0.0307,-16.275,5.4188,46.1438,,adl
13.140566,1.8839,-0.0846,-0.8991,0.3234,-0.1084,-0.0307,-16.275,5.4188,46.1438,,adl
13.145186,2.1078,0.057,-1.1693,0.3234,-0.1084,-0.0307,-16.275,5.4188,46.1438,,adl
13.148515,2.1078,0.057,-1.1693,0.3234,-0.1084,-0.0307,-17.0063,6.525,46.0688,,adl
13.164012,2.116,0.1962,-1.608,0.3234,-0.1084,-0.0307,-17.0063,6.525,46.0688,,adl
13.182763,2.116,0.1962,-1.608,0.2183,-0.3587,-0.4485,-17.0063,6.525,46.0688,,adl
13.184467,1.9123,0.0845,-2.1089,0.2183,-0.3587,-0.4485,-17.0063,6.525,46.0688,,adl
13.186874,1.9123,0.0845,-2.1089,0.2183,-0.3587,-0.4485,-17.0063,6.525,46.0688,,adl
13.202344,1.6875,-0.6011,-2.419,0.2183,-0.3587,-0.4485,-17.0063,6.525,46.0688,,adl
13.210109,1.6875,-0.6011,-2.419,0.2183,-0.3587,-0.4485,-16.3313,6.4688,46.5563,,adl
13.222046,1.6316,-1.4108,-2.0491,0.2183,-0.3587,-0.4485,-16.3313,6.4688,46.5563,,adl
13.234521,1.6316,-1.4108,-2.0491,0.2183,-0.3587,-0.4485,-16.3313,6.4688,46.5563,,adl
13.242004,1.5751,-1.797,-1.2484,0.2183,-0.3587,-0.4485,-16.3313,6.4688,46.5563,,adl
13.244158,1.5751,-1.797,-1.2484,-0.6087,0.1079,-0.6403,-16.3313,6.4688,46.5563,,adl
13.259764,1.5745,-1.9048,-0.3465,-0.6087,0.1079,-0.6403,-16.3313,6.4688,46.5563,,adl
13.267678,1.5745,-1.9048,-0.3465,-0.6087,0.1079,-0.6403,-17.3438,5.1562,45.9563,,adl
13.278621,1.2987,-1.7075,0.3065,-0.6087,0.1079,-0.6403,-17.3438,5.1562,45.9563,,adl
13.28276,1.2987,-1.7075,0.3065,-0.6087,0.1079,-0.6403,-17.3438,5.1562,45.9563,,adl
13.297998,0.7195,-1.3072,0.8695,-0.6087,0.1079,-0.6403,-17.3438,5.1562,45.9563,,adl
13.306781,0.7195,-1.3072,0.8695,-0.3106,0.8251,-0.947,-17.3438,5.1562,45.9563,,adl
13.317184,0.0748,-1.2147,0.5906,-0.3106,0.8251,-0.947,-17.3438,5.1562,45.9563,,adl
13.328809,0.0748,-1.2147,0.5906,-0.3106,0.8251,-0.947,-19.1063,3.675,43.4062,,adl
13.330146,0.0748,-1.2147,0.5906,-0.3106,0.8251,-0.947,-19.1063,3.675,43.4062,,adl
13.335447,-0.155,-1.6311,0.1446,-0.3106,0.8251,-0.947,-19.1063,3.675,43.4062,,adl
13.355358,-0.3906,-1.7463,0.1768,-0.3106,0.8251,-0.947,-19.1063,3.675,43.4062,,adl
13.369119,-0.3906,-1.7463,0.1768,-0.5294,0.6687,-1.1413,-19.1063,3.675,43.4062,,adl
13.376834,-0.7384,-1.5795,0.2157,-0.5294,0.6687,-1.1413,-19.1063,3.675,43.4062,,adl
13.380641,-0.7384,-1.5795,0.2157,-0.5294,0.6687,-1.1413,-19.1063,3.675,43.4062,,adl
13.388604,-0.7384,-1.5795,0.2157,-0.5294,0.6687,-1.1413,-20.3625,1.4062,42.075,,adl
13.392939,-1.0456,-1.4493,0.1863,-0.5294,0.6687,-1.1413,-20.3625,1.4062,42.075,,adl
13.412441,-1.36,-1.3586,0.2176,-0.5294,0.6687,-1.1413,-20.3625,1.4062,42.075,,adl
13.426411,-1.36,-1.3586,0.2176,-0.5294,0.6687,-1.1413,-20.3625,1.4062,42.075,,adl
13.433043,-1.36,-1.3586,0.2176,-0.5281,0.7811,-1.1241,-20.3625,1.4062,42.075,,adl
13.434603,-1.7925,-1.441,0.2752,-0.5281,0.7811,-1.1241,-20.3625,1.4062,42.075,,adl
13.447893,-1.7925,-1.441,0.2752,-0.5281,0.7811,-1.1241,-21.1313,-0.975,41.0438,,adl
13.450544,-2.174,-1.4312,0.4146,-0.5281,0.7811,-1.1241,-21.1313,-0.975,41.0438,,adl
13.46995,-2.4343,-1.4145,0.5955,-0.5281,0.7811,-1.1241,-21.1313,-0.975,41.0438,,adl
13.475174,-2.4343,-1.4145,0.5955,-0.5281,0.7811,-1.1241,-21.1313,-0.975,41.0438,,adl
13.489006,-2.6399,-1.354,0.7378,-0.5281,0.7811,-1.1241,-21.1313,-0.975,41.0438,,adl
13.493374,-2.6399,-1.354,0.7378,-0.5904,0.9094,-0.8687,-21.1313,-0.975,41.0438,,adl
13.507814,-2.9358,-1.1381,0.8388,-0.5904,0.9094,-0.8687,-21.1313,-0.975,41.0438,,adl
13.509613,-2.9358,-1.1381,0.8388,-0.5904,0.9094,-0.8687,-20.7375,-4.8,38.4,,adl
13.521065,-2.9358,-1.1381,0.8388,-0.5904,0.9094,-0.8687,-20.7375,-4.8,38.4,,adl
13.527411,-3.2473,-0.945,0.9686,-0.5904,0.9094,-0.8687,-20.7375,-4.8,38.4,,adl
13.546611,-3.4087,-0.5993,1.0928,-0.5904,0.9094,-0.8687,-20.7375,-4.8,38.4,,adl
13.554692,-3.4087,-0.5993,1.0928,-0.4377,0.8141,-0.462,-20.7375,-4.8,38.4,,adl
13.565697,-3.5787,-0.2355,1.0619,-0.4377,0.8141,-0.462,-20.7375,-4.8,38.4,,adl
13.567441,-3.5787,-0.2355,1.0619,-0.4377,0.8141,-0.462,-24.075,-6.6563,39.7313,,adl
13.569601,-3.5787,-0.2355,1.0619,-0.4377,0.8141,-0.462,-24.075,-6.6563,39.7313,,adl
13.584848,-3.6764,0.0211,0.9762,-0.4377,0.8141,-0.462,-24.075,-6.6563,39.7313,,adl
13.603915,-3.7454,0.1231,0.7752,-0.4377,0.8141,-0.462,-24.075,-6.6563,39.7313,,adl
13.616967,-3.7454,0.1231,0.7752,-0.4377,0.8141,-0.462,-24.075,-6.6563,39.7313,,adl
13.618373,-3.7454,0.1231,0.7752,-0.3449,0.7347,0.0866,-24.075,-6.6563,39.7313,,adl
13.622395,-3.766,-0.001,0.5943,-0.3449,0.7347,0.0866,-24.075,-6.6563,39.7313,,adl
13.628242,-3.766,-0.001,0.5943,-0.3449,0.7347,0.0866,-25.5,-7.3125,38.2125,,adl
13.642079,-3.7089,-0.22,0.6268,-0.3449,0.7347,0.0866,-25.5,-7.3125,38.2125,,adl
13.661215,-3.4493,-0.4393,0.826,-0.3449,0.7347,0.0866,-25.5,-7.3125,38.2125,,adl
13.66502,-3.4493,-0.4393,0.826,-0.3449,0.7347,0.0866,-25.5,-7.3125,38.2125,,adl
13.679984,-3.4493,-0.4393,0.826,-0.4158,0.2765,0.7268,-25.5,-7.3125,38.2125,,adl
13.68148,-3.0084,-0.6731,0.9359,-0.4158,0.2765,0.7268,-25.5,-7.3125,38.2125,,adl
13.687572,-3.0084,-0.6731,0.9359,-0.4158,0.2765,0.7268,-26.9063,-8.2125,37.3125,,adl
13.699013,-2.5874,-0.8735,0.9543,-0.4158,0.2765,0.7268,-26.9063,-8.2125,37.3125,,adl
13.713299,-2.5874,-0.8735,0.9543,-0.4158,0.2765,0.7268,-26.9063,-8.2125,37.3125,,adl
13.719639,-2.2709,-0.9503,0.9727,-0.4158,0.2765,0.7268,-26.9063,-8.2125,37.3125,,adl
13.73815,-1.8417,-1.1406,0.8684,-0.4158,0.2765,0.7268,-26.9063,-8.2125,37.3125,,adl
13.742877,-1.8417,-1.1406,0.8684,-0.3094,-0.0301,1.1752,-26.9063,-8.2125,37.3125,,adl
13.747897,-1.8417,-1.1406,0.8684,-0.3094,-0.0301,1.1752,-27.2813,-6.2625,36.3938,,adl
13.75697,-1.3566,-1.6403,0.4924,-0.3094,-0.0301,1.1752,-27.2813,-6.2625,36.3938,,adl
13.760486,-1.3566,-1.6403,0.4924,-0.3094,-0.0301,1.1752,-27.2813,-6.2625,36.3938,,adl
13.776465,-1.0662,-2.6542,-0.0145,-0.3094,-0.0301,1.1752,-27.2813,-6.2625,36.3938,,adl
13.795276,-0.8073,-3.5103,0.2058,-0.3094,-0.0301,1.1752,-27.2813,-6.2625,36.3938,,adl
13.803883,-0.8073,-3.5103,0.2058,-0.5757,-0.1034,1.5649,-27.2813,-6.2625,36.3938,,adl
13.810304,-0.8073,-3.5103,0.2058,-0.5757,-0.1034,1.5649,-27.8438,-4.3313,35.6063,,adl
13.813228,-0.8073,-3.5103,0.2058,-0.5757,-0.1034,1.5649,-27.8438,-4.3313,35.6063,,adl
