time,ax,ay,az,wx,wy,wz,Bx,By,Bz,Unnamed: 10,label
0.020297,0.0,0.0,0.0,0.0,0.0,0.0,0.0,0.0,0.0,,adl
0.026507,0.117,0.5411,-1.1988,0.0,0.0,0.0,0.0,0.0,0.0,,adl
0.045528,0.0148,-0.0205,-0.8135,0.0,0.0,0.0,0.0,0.0,0.0,,adl
0.062018,0.0148,-0.0205,-0.8135,0.0,0.0,0.0,-19.9688,-32.6063,8.1188,,adl
0.0634,0.0148,-0.0205,-0.8135,-0.0748,0.1507,0.0146,-19.9688,-32.6063,8.1188,,adl
0.064386,-0.2004,0.0307,0.255,-0.0748,0.1507,0.0146,-19.9688,-32.6063,8.1188,,adl
0.068625,-0.2004,0.0307,0.255,-0.0748,0.1507,0.0146,-19.9688,-32.6063,8.1188,,adl
0.084497,-0.1196,-0.0058,0.3977,-0.0748,0.1507,0.0146,-19.9688,-32.6063,8.1188,,adl
0.104131,0.1087,-0.0702,0.3388,-0.0748,0.1507,0.0146,-19.9688,-32.6063,8.1188,,adl
0.116869,0.1087,-0.0702,0.3388,-0.0748,0.1507,0.0146,-19.9688,-32.6063,8.1188,,adl
0.12374,0.1105,-0.122,0.2581,-0.0748,0.1507,0.0146,-19.9688,-32.6063,8.1188,,adl
0.125487,0.1105,-0.122,0.2581,-0.0748,0.1507,0.0146,-19.7625,-32.9438,8.625,,adl
0.126963,0.1105,-0.122,0.2581,0.0143,-0.0459,-0.0012,-19.7625,-32.9438,8.625,,adl
0.141113,-0.1133,-0.0364,0.0154,0.0143,-0.0459,-0.0012,-19.7625,-32.9438,8.625,,adl
0.161402,-0.1067,0.1214,-0.2923,0.0143,-0.0459,-0.0012,-19.7625,-32.9438,8.625,,adl
0.164391,-0.1067,0.1214,-0.2923,0.0143,-0.0459,-0.0012,-19.7625,-32.9438,8.625,,adl
0.179839,-0.0062,0.0374,-0.2868,0.0143,-0.0459,-0.0012,-19.7625,-32.9438,8.625,,adl
0.182945,-0.0062,0.0374,-0.2868,0.0143,-0.0459,-0.0012,-20.0625,-32.7,8.2313,,adl
0.188363,-0.0062,0.0374,-0.2868,-0.0113,0.0114,0.0293,-20.0625,-32.7,8.2313,,adl
0.198014,0.044,-0.0932,-0.1525,-0.0113,0.0114,0.0293,-20.0625,-32.7,8.2313,,adl
0.211928,0.044,-0.0932,-0.1525,-0.0113,0.0114,0.0293,-20.0625,-32.7,8.2313,,adl
0.217303,0.0347,-0.041,-0.0238,-0.0113,0.0114,0.0293,-20.0625,-32.7,8.2313,,adl
0.236797,-0.0563,-0.0049,0.0931,-0.0113,0.0114,0.0293,-20.0625,-32.7,8.2313,,adl
0.243191,-0.0563,-0.0049,0.0931,-0.0113,0.0114,0.0293,-20.3625,-32.4938,8.025,,adl
0.250139,-0.0563,-0.0049,0.0931,-0.0077,0.0102,0.0085,-20.3625,-32.4938,8.025,,adl
0.255571,-0.0092,-0.0667,0.1726,-0.0077,0.0102,0.0085,-20.3625,-32.4938,8.025,,adl
0.260027,-0.0092,-0.0667,0.1726,-0.0077,0.0102,0.0085,-20.3625,-32.4938,8.025,,adl
0.275651,0.0397,-0.0544,0.0736,-0.0077,0.0102,0.0085,-20.3625,-32.4938,8.025,,adl
0.294758,-0.0179,0.0238,-0.0912,-0.0077,0.0102,0.0085,-20.3625,-32.4938,8.025,,adl
0.305886,-0.0179,0.0238,-0.0912,-0.0077,0.0102,0.0085,-19.7438,-33.225,8.325,,adl
0.307688,-0.0179,0.0238,-0.0912,-0.0077,0.0102,0.0085,-19.7438,-33.225,8.325,,adl
0.312591,-0.0179,0.0238,-0.0912,0.001,-0.0191,0.0012,-19.7438,-33.225,8.325,,adl
0.313792,-0.065,0.048,-0.13,0.001,-0.0191,0.0012,-19.7438,-33.225,8.325,,adl
0.332512,-0.0373,-0.0252,-0.1145,0.001,-0.0191,0.0012,-19.7438,-33.225,8.325,,adl
0.351696,0.0229,-0.0238,-0.1124,0.001,-0.0191,0.0012,-19.7438,-33.225,8.325,,adl
0.356229,0.0229,-0.0238,-0.1124,0.001,-0.0191,0.0012,-19.7438,-33.225,8.325,,adl
0.362735,0.0229,-0.0238,-0.1124,0.001,-0.0191,0.0012,-19.8563,-33.0188,8.4188,,adl
0.373068,-0.0313,-0.0103,0.0421,0.001,-0.0191,0.0012,-19.8563,-33.0188,8.4188,,adl
0.37532,-0.0313,-0.0103,0.0421,-0.0088,0.0224,0.0036,-19.8563,-33.0188,8.4188,,adl
0.390133,-0.0715,0.0194,0.094,-0.0088,0.0224,0.0036,-19.8563,-33.0188,8.4188,,adl
0.404908,-0.0715,0.0194,0.094,-0.0088,0.0224,0.0036,-19.8563,-33.0188,8.4188,,adl
0.40895,-0.0074,-0.0111,0.0563,-0.0088,0.0224,0.0036,-19.8563,-33.0188,8.4188,,adl
0.423928,-0.0074,-0.0111,0.0563,-0.0088,0.0224,0.0036,-20.3438,-32.7938,8.1375,,adl
0.427922,0.0141,-0.0394,-0.0511,-0.0088,0.0224,0.0036,-20.3438,-32.7938,8.1375,,adl
0.437283,0.0141,-0.0394,-0.0511,0.0095,-0.0093,0.0012,-20.3438,-32.7938,8.1375,,adl
0.447051,-0.0214,-0.0088,-0.1662,0.0095,-0.0093,0.0012,-20.3438,-32.7938,8.1375,,adl
0.451377,-0.0214,-0.0088,-0.1662,0.0095,-0.0093,0.0012,-20.3438,-32.7938,8.1375,,adl
0.466839,-0.0234,0.0061,-0.0614,0.0095,-0.0093,0.0012,-20.3438,-32.7938,8.1375,,adl
0.482669,-0.0234,0.0061,-0.0614,0.0095,-0.0093,0.0012,-20.3438,-33.0938,8.3438,,adl
0.485606,-0.0474,-0.0301,0.0367,0.0095,-0.0093,0.0012,-20.3438,-33.0938,8.3438,,adl
0.49916,-0.0474,-0.0301,0.0367,0.0095,-0.0093,0.0012,-20.3438,-33.0938,8.3438,,adl
0.500096,-0.0474,-0.0301,0.0367,-0.0027,0.0041,0.0036,-20.3438,-33.0938,8.3438,,adl
0.507292,0.0113,-0.0216,0.0378,-0.0027,0.0041,0.0036,-20.3438,-33.0938,8.3438,,adl
0.523993,-0.0126,-0.0143,0.0043,-0.0027,0.0041,0.0036,-20.3438,-33.0938,8.3438,,adl
0.543252,-0.0065,-0.0574,-0.0161,-0.0027,0.0041,0.0036,-20.3438,-33.0938,8.3438,,adl
0.546505,-0.0065,-0.0574,-0.0161,-0.0027,0.0041,0.0036,-20.55,-32.7938,8.3438,,adl
0.549229,-0.0065,-0.0574,-0.0161,-0.0027,0.0041,0.0036,-20.55,-32.7938,8.3438,,adl
0.561009,-0.0065,-0.0574,-0.0161,0.007,-0.0117,-0.0098,-20.55,-32.7938,8.3438,,adl
0.563006,-0.0004,-0.0324,-0.0174,0.007,-0.0117,-0.0098,-20.55,-32.7938,8.3438,,adl
0.581166,-0.0093,0.0466,-0.0587,0.007,-0.0117,-0.0098,-20.55,-32.7938,8.3438,,adl
0.594505,-0.0093,0.0466,-0.0587,0.007,-0.0117,-0.0098,-20.55,-32.7938,8.3438,,adl
0.599811,-0.0575,0.0475,-0.0441,0.007,-0.0117,-0.0098,-20.55,-32.7938,8.3438,,adl
0.601928,-0.0575,0.0475,-0.0441,0.007,-0.0117,-0.0098,-20.2313,-33.2063,8.2313,,adl
0.619191,-0.0282,-0.0303,-0.0446,0.007,-0.0117,-0.0098,-20.2313,-33.2063,8.2313,,adl
0.623605,-0.0282,-0.0303,-0.0446,-0.004,0.0041,0.0073,-20.2313,-33.2063,8.2313,,adl
0.638903,0.0752,-0.0621,-0.0092,-0.004,0.0041,0.0073,-20.2313,-33.2063,8.2313,,adl
0.643458,0.0752,-0.0621,-0.0092,-0.004,0.0041,0.0073,-20.2313,-33.2063,8.2313,,adl
0.657516,0.0426,-0.0339,0.0139,-0.004,0.0041,0.0073,-20.2313,-33.2063,8.2313,,adl
0.66391,0.0426,-0.0339,0.0139,-0.004,0.0041,0.0073,-20.3438,-32.8875,8.025,,adl
0.677284,-0.0642,0.0189,0.0222,-0.004,0.0041,0.0073,-20.3438,-32.8875,8.025,,adl
0.68465,-0.0642,0.0189,0.0222,0.001,-0.0069,-0.0062,-20.3438,-32.8875,8.025,,adl
0.689794,-0.0642,0.0189,0.0222,0.001,-0.0069,-0.0062,-20.3438,-32.8875,8.025,,adl
0.694961,-0.0282,-0.035,0.0006,0.001,-0.0069,-0.0062,-20.3438,-32.8875,8.025,,adl
0.715359,0.0372,-0.0193,-0.0097,0.001,-0.0069,-0.0062,-20.3438,-32.8875,8.025,,adl
0.723119,0.0372,-0.0193,-0.0097,0.001,-0.0069,-0.0062,-19.7438,-33.225,8.325,,adl
0.733703,0.0047,-0.0235,-0.08,0.001,-0.0069,-0.0062,-19.7438,-33.225,8.325,,adl
0.737539,0.0047,-0.0235,-0.08,0.001,-0.0069,-0.0062,-19.7438,-33.225,8.325,,adl
0.74917,0.0047,-0.0235,-0.08,-0.0015,0.0041,-0.0135,-19.7438,-33.225,8.325,,adl
0.753024,-0.0692,0.0084,-0.0349,-0.0015,0.0041,-0.0135,-19.7438,-33.225,8.325,,adl
0.772834,-0.1164,0.0548,0.0313,-0.0015,0.0041,-0.0135,-19.7438,-33.225,8.325,,adl
0.783184,-0.1164,0.0548,0.0313,-0.0015,0.0041,-0.0135,-19.7625,-32.8313,8.5312,,adl
0.784978,-0.1164,0.0548,0.0313,-0.0015,0.0041,-0.0135,-19.7625,-32.8313,8.5312,,adl
0.791244,-0.0409,0.0316,0.066,-0.0015,0.0041,-0.0135,-19.7625,-32.8313,8.5312,,adl
0.809637,-0.0409,0.0316,0.066,0.0022,-0.0362,0.0122,-19.7625,-32.8313,8.5312,,adl
0.811232,0.07,-0.0688,0.0178,0.0022,-0.0362,0.0122,-19.7625,-32.8313,8.5312,,adl
0.830003,0.0082,-0.006,-0.066,0.0022,-0.0362,0.0122,-19.7625,-32.8313,8.5312,,adl
0.833798,0.0082,-0.006,-0.066,0.0022,-0.0362,0.0122,-19.7625,-32.8313,8.5312,,adl
0.844585,0.0082,-0.006,-0.066,0.0022,-0.0362,0.0122,-19.95,-33.0188,8.4188,,adl
0.849925,-0.0518,0.0012,-0.0824,0.0022,-0.0362,0.0122,-19.95,-33.0188,8.4188,,adl
0.869765,-0.0077,-0.0023,-0.088,0.0022,-0.0362,0.0122,-19.95,-33.0188,8.4188,,adl
0.872367,-0.0077,-0.0023,-0.088,-0.004,0.0016,0.011,-19.95,-33.0188,8.4188,,adl
0.883513,-0.0077,-0.0023,-0.088,-0.004,0.0016,0.011,-19.95,-33.0188,8.4188,,adl
0.886416,0.0022,-0.0096,-0.0572,-0.004,0.0016,0.011,-19.95,-33.0188,8.4188,,adl
0.903163,0.0022,-0.0096,-0.0572,-0.004,0.0016,0.011,-19.65,-33.1125,8.2125,,adl
0.906069,0.0491,-0.0429,0.042,-0.004,0.0016,0.011,-19.65,-33.1125,8.2125,,adl
0.926929,-0.0138,-0.0394,0.0808,-0.004,0.0016,0.011,-19.65,-33.1125,8.2125,,adl
0.929732,-0.0138,-0.0394,0.0808,-0.004,0.0016,0.011,-19.65,-33.1125,8.2125,,adl
0.934892,-0.0138,-0.0394,0.0808,0.0058,-0.0106,-0.0049,-19.65,-33.1125,8.2125,,adl
0.943699,-0.0004,-0.0262,0.0147,0.0058,-0.0106,-0.0049,-19.65,-33.1125,8.2125,,adl
0.964669,0.0211,0.0051,-0.0808,0.0058,-0.0106,-0.0049,-19.65,-33.1125,8.2125,,adl
0.96862,0.0211,0.0051,-0.0808,0.0058,-0.0106,-0.0049,-19.7625,-33.0,8.1188,,adl
0.97701,0.0211,0.0051,-0.0808,0.0058,-0.0106,-0.0049,-19.7625,-33.0,8.1188,,adl
0.982454,-0.0398,0.008,-0.0654,0.0058,-0.0106,-0.0049,-19.7625,-33.0,8.1188,,adl
0.996931,-0.0398,0.008,-0.0654,-0.0027,0.0054,-0.0025,-19.7625,-33.0,8.1188,,adl
1.002111,-0.0654,0.0143,-0.0279,-0.0027,0.0054,-0.0025,-19.7625,-33.0,8.1188,,adl
1.020992,-0.0332,0.0245,0.0236,-0.0027,0.0054,-0.0025,-19.7625,-33.0,8.1188,,adl
1.022385,-0.0332,0.0245,0.0236,-0.0027,0.0054,-0.0025,-20.5312,-33.2812,8.1375,,adl
1.025203,-0.0332,0.0245,0.0236,-0.0027,0.0054,-0.0025,-20.5312,-33.2812,8.1375,,adl
1.039871,-0.0136,-0.0051,0.0376,-0.0027,0.0054,-0.0025,-20.5312,-33.2812,8.1375,,adl
1.059283,-0.0136,-0.0051,0.0376,-0.0015,-0.0106,0.0073,-20.5312,-33.2812,8.1375,,adl
1.061743,0.0663,-0.0488,-0.0494,-0.0015,-0.0106,0.0073,-20.5312,-33.2812,8.1375,,adl
1.074477,0.0663,-0.0488,-0.0494,-0.0015,-0.0106,0.0073,-20.5312,-33.2812,8.1375,,adl
1.077722,0.1081,-0.1311,-0.0909,-0.0015,-0.0106,0.0073,-20.5312,-33.2812,8.1375,,adl
1.084267,0.1081,-0.1311,-0.0909,-0.0015,-0.0106,0.0073,-19.7438,-33.1125,8.1188,,adl
1.097672,-0.0105,-0.0394,-0.0683,-0.0015,-0.0106,0.0073,-19.7438,-33.1125,8.1188,,adl
1.116192,-0.0513,-0.0009,0.0944,-0.0015,-0.0106,0.0073,-19.7438,-33.1125,8.1188,,adl
1.120858,-0.0513,-0.0009,0.0944,-0.0015,-0.0106,0.0073,-19.7438,-33.1125,8.1188,,adl
1.121645,-0.0513,-0.0009,0.0944,-0.0175,-0.0069,-0.0232,-19.7438,-33.1125,8.1188,,adl
1.135929,0.0748,-0.0975,0.0856,-0.0175,-0.0069,-0.0232,-19.7438,-33.1125,8.1188,,adl
1.141976,0.0748,-0.0975,0.0856,-0.0175,-0.0069,-0.0232,-19.6688,-32.925,8.325,,adl
1.154916,0.175,-0.17,-0.1197,-0.0175,-0.0069,-0.0232,-19.6688,-32.925,8.325,,adl
1.169473,0.175,-0.17,-0.1197,-0.0175,-0.0069,-0.0232,-19.6688,-32.925,8.325,,adl
1.175218,0.17,-0.1899,-0.2939,-0.0175,-0.0069,-0.0232,-19.6688,-32.925,8.325,,adl
1.182828,0.17,-0.1899,-0.2939,-0.0418,0.0309,-0.0868,-19.6688,-32.925,8.325,,adl
1.194611,-0.1294,-0.1148,-0.1575,-0.0418,0.0309,-0.0868,-19.6688,-32.925,8.325,,adl
1.203035,-0.1294,-0.1148,-0.1575,-0.0418,0.0309,-0.0868,-20.0625,-32.7938,8.025,,adl
1.212471,-0.2013,0.2626,0.0404,-0.0418,0.0309,-0.0868,-20.0625,-32.7938,8.025,,adl
1.216618,-0.2013,0.2626,0.0404,-0.0418,0.0309,-0.0868,-20.0625,-32.7938,8.025,,adl
1.231051,-0.1153,0.3029,0.3747,-0.0418,0.0309,-0.0868,-20.0625,-32.7938,8.025,,adl
1.243546,-0.1153,0.3029,0.3747,-0.0125,0.0212,-0.022,-20.0625,-32.7938,8.025,,adl
1.24929,-0.132,0.2028,0.2158,-0.0125,0.0212,-0.022,-20.0625,-32.7938,8.025,,adl
1.262097,-0.132,0.2028,0.2158,-0.0125,0.0212,-0.022,-19.4438,-33.1875,7.4813,,adl
1.263429,-0.132,0.2028,0.2158,-0.0125,0.0212,-0.022,-19.4438,-33.1875,7.4813,,adl
1.269153,-0.1367,0.1617,0.1386,-0.0125,0.0212,-0.022,-19.4438,-33.1875,7.4813,,adl
1.289352,-0.0577,0.2048,-0.2376,-0.0125,0.0212,-0.022,-19.4438,-33.1875,7.4813,,adl
1.307213,-0.0577,0.2048,-0.2376,0.0608,0.1825,0.0733,-19.4438,-33.1875,7.4813,,adl
1.309904,0.1444,0.2747,-0.577,0.0608,0.1825,0.0733,-19.4438,-33.1875,7.4813,,adl
1.312952,0.1444,0.2747,-0.577,0.0608,0.1825,0.0733,-19.4438,-33.1875,7.4813,,adl
1.322546,0.1444,0.2747,-0.577,0.0608,0.1825,0.0733,-20.0438,-33.0938,8.1188,,adl
1.326881,-0.0158,0.4793,-0.6871,0.0608,0.1825,0.0733,-20.0438,-33.0938,8.1188,,adl
1.345966,-0.2682,0.3346,-0.5399,0.0608,0.1825,0.0733,-20.0438,-33.0938,8.1188,,adl
1.360975,-0.2682,0.3346,-0.5399,0.0608,0.1825,0.0733,-20.0438,-33.0938,8.1188,,adl
1.365627,-0.2755,0.2298,0.1267,0.0608,0.1825,0.0733,-20.0438,-33.0938,8.1188,,adl
1.368612,-0.2755,0.2298,0.1267,-0.0675,0.351,0.2541,-20.0438,-33.0938,8.1188,,adl
1.382132,-0.2755,0.2298,0.1267,-0.0675,0.351,0.2541,-20.5312,-32.7375,7.4063,,adl
1.384398,-0.1631,-0.1267,0.5102,-0.0675,0.351,0.2541,-20.5312,-32.7375,7.4063,,adl
1.405073,0.0958,-0.5941,0.7436,-0.0675,0.351,0.2541,-20.5312,-32.7375,7.4063,,adl
1.406997,0.0958,-0.5941,0.7436,-0.0675,0.351,0.2541,-20.5312,-32.7375,7.4063,,adl
1.422745,0.2815,-0.652,0.7437,-0.0675,0.351,0.2541,-20.5312,-32.7375,7.4063,,adl
1.432108,0.2815,-0.652,0.7437,0.084,-0.0362,0.094,-20.5312,-32.7375,7.4063,,adl
1.441365,0.151,-0.3556,0.4101,0.084,-0.0362,0.094,-20.5312,-32.7375,7.4063,,adl
1.442898,0.151,-0.3556,0.4101,0.084,-0.0362,0.094,-20.7563,-32.325,7.2,,adl
1.455199,0.151,-0.3556,0.4101,0.084,-0.0362,0.094,-20.7563,-32.325,7.2,,adl
1.460514,-0.2498,-0.2368,-0.0249,0.084,-0.0362,0.094,-20.7563,-32.325,7.2,,adl
1.480115,0.0029,-0.3278,-0.2413,0.084,-0.0362,0.094,-20.7563,-32.325,7.2,,adl
1.493299,0.0029,-0.3278,-0.2413,0.0107,-0.1682,-0.0025,-20.7563,-32.325,7.2,,adl
1.498918,0.466,-0.3588,-0.4162,0.0107,-0.1682,-0.0025,-20.7563,-32.325,7.2,,adl
1.503297,0.466,-0.3588,-0.4162,0.0107,-0.1682,-0.0025,-20.8313,-32.6438,7.5188,,adl
1.504414,0.466,-0.3588,-0.4162,0.0107,-0.1682,-0.0025,-20.8313,-32.6438,7.5188,,adl
1.518248,0.2545,-0.2171,-0.1877,0.0107,-0.1682,-0.0025,-20.8313,-32.6438,7.5188,,adl
1.538089,-0.2611,0.0502,-0.1109,0.0107,-0.1682,-0.0025,-20.8313,-32.6438,7.5188,,adl
1.551453,-0.2611,0.0502,-0.1109,0.0107,-0.1682,-0.0025,-20.8313,-32.6438,7.5188,,adl
1.556276,-0.2611,0.0502,-0.1109,-0.0358,-0.0424,-0.0562,-20.8313,-32.6438,7.5188,,adl
1.559368,-0.1641,-0.086,0.0577,-0.0358,-0.0424,-0.0562,-20.8313,-32.6438,7.5188,,adl
1.562564,-0.1641,-0.086,0.0577,-0.0358,-0.0424,-0.0562,-20.625,-32.9438,7.4063,,adl
1.575645,0.2164,-0.1568,0.106,-0.0358,-0.0424,-0.0562,-20.625,-32.9438,7.4063,,adl
1.594929,0.1666,-0.0117,0.0001,-0.0358,-0.0424,-0.0562,-20.625,-32.9438,7.4063,,adl
1.598659,0.1666,-0.0117,0.0001,-0.0358,-0.0424,-0.0562,-20.625,-32.9438,7.4063,,adl
1.614304,-0.1209,0.2847,0.0165,-0.0358,-0.0424,-0.0562,-20.625,-32.9438,7.4063,,adl
1.62118,-0.1209,0.2847,0.0165,-0.0125,-0.0606,-0.0795,-20.625,-32.9438,7.4063,,adl
1.622838,-0.1209,0.2847,0.0165,-0.0125,-0.0606,-0.0795,-20.6438,-32.775,7.8188,,adl
1.632494,-0.2766,0.2525,-0.01,-0.0125,-0.0606,-0.0795,-20.6438,-32.775,7.8188,,adl
1.646687,-0.2766,0.2525,-0.01,-0.0125,-0.0606,-0.0795,-20.6438,-32.775,7.8188,,adl
1.651652,-0.013,-0.0524,-0.0793,-0.0125,-0.0606,-0.0795,-20.6438,-32.775,7.8188,,adl
1.671945,0.3005,-0.1574,-0.1695,-0.0125,-0.0606,-0.0795,-20.6438,-32.775,7.8188,,adl
1.679723,0.3005,-0.1574,-0.1695,-0.0187,-0.0179,-0.055,-20.6438,-32.775,7.8188,,adl
1.682853,0.3005,-0.1574,-0.1695,-0.0187,-0.0179,-0.055,-20.8313,-32.85,7.725,,adl
1.689688,0.1249,-0.044,-0.1495,-0.0187,-0.0179,-0.055,-20.8313,-32.85,7.725,,adl
1.693845,0.1249,-0.044,-0.1495,-0.0187,-0.0179,-0.055,-20.8313,-32.85,7.725,,adl
1.709547,-0.1951,0.1103,-0.0214,-0.0187,-0.0179,-0.055,-20.8313,-32.85,7.725,,adl
1.728774,-0.2144,0.1427,0.0741,-0.0187,-0.0179,-0.055,-20.8313,-32.85,7.725,,adl
1.742677,-0.2144,0.1427,0.0741,-0.0187,-0.0179,-0.055,-20.8313,-32.85,7.725,,adl
1.745267,-0.2144,0.1427,0.0741,-0.0175,-0.0191,-0.0195,-20.8313,-32.85,7.725,,adl
1.747315,-0.2144,0.1427,0.0741,-0.0175,-0.0191,-0.0195,-20.4375,-32.8688,7.725,,adl
1.74804,0.0409,0.0446,0.0941,-0.0175,-0.0191,-0.0195,-20.4375,-32.8688,7.725,,adl
1.768036,0.1188,0.0502,-0.0221,-0.0175,-0.0191,-0.0195,-20.4375,-32.8688,7.725,,adl
1.786339,-0.022,0.0642,-0.0442,-0.0175,-0.0191,-0.0195,-20.4375,-32.8688,7.725,,adl
1.790743,-0.022,0.0642,-0.0442,-0.0175,-0.0191,-0.0195,-20.4375,-32.8688,7.725,,adl
1.802559,-0.022,0.0642,-0.0442,-0.0175,-0.0191,-0.0195,-20.5312,-32.8688,7.9313,,adl
1.805783,-0.022,0.0642,-0.0442,0.007,0.0091,-0.0012,-20.5312,-32.8688,7.9313,,adl
1.806853,-0.1929,0.0957,-0.0579,0.007,0.0091,-0.0012,-20.5312,-32.8688,7.9313,,adl
1.824333,-0.0758,0.0618,-0.1034,0.007,0.0091,-0.0012,-20.5312,-32.8688,7.9313,,adl
1.838586,-0.0758,0.0618,-0.1034,0.007,0.0091,-0.0012,-20.5312,-32.8688,7.9313,,adl
1.843759,0.0778,-0.0515,-0.0869,0.007,0.0091,-0.0012,-20.5312,-32.8688,7.9313,,adl
1.862332,0.0711,-0.0439,0.0418,0.007,0.0091,-0.0012,-20.5312,-32.8688,7.9313,,adl
1.863662,0.0711,-0.0439,0.0418,0.007,0.0091,-0.0012,-20.3625,-32.475,7.8188,,adl
1.866841,0.0711,-0.0439,0.0418,-0.0052,0.0481,0.0133,-20.3625,-32.475,7.8188,,adl
1.883288,-0.0892,0.0008,0.1564,-0.0052,0.0481,0.0133,-20.3625,-32.475,7.8188,,adl
1.88608,-0.0892,0.0008,0.1564,-0.0052,0.0481,0.0133,-20.3625,-32.475,7.8188,,adl
1.90141,-0.0706,0.0388,0.0968,-0.0052,0.0481,0.0133,-20.3625,-32.475,7.8188,,adl
1.919874,-0.0032,0.048,0.0151,-0.0052,0.0481,0.0133,-20.3625,-32.475,7.8188,,adl
1.922348,-0.0032,0.048,0.0151,-0.0052,0.0481,0.0133,-20.3438,-32.8688,7.6125,,adl
1.928162,-0.0032,0.048,0.0151,0.0217,-0.0069,0.033,-20.3438,-32.8688,7.6125,,adl
1.933356,-0.0032,0.048,0.0151,0.0217,-0.0069,0.033,-20.3438,-32.8688,7.6125,,adl
1.938799,-0.0468,0.094,-0.0706,0.0217,-0.0069,0.033,-20.3438,-32.8688,7.6125,,adl
1.958479,-0.0377,0.0281,-0.0915,0.0217,-0.0069,0.033,-20.3438,-32.8688,7.6125,,adl
1.977051,0.0762,-0.0901,-0.0566,0.0217,-0.0069,0.033,-20.3438,-32.8688,7.6125,,adl
1.981406,0.0762,-0.0901,-0.0566,0.0217,-0.0069,0.033,-20.3438,-32.8688,7.6125,,adl
1.982573,0.0762,-0.0901,-0.0566,0.0217,-0.0069,0.033,-20.4375,-32.775,7.8188,,adl
1.990397,0.0762,-0.0901,-0.0566,-0.0003,-0.0019,0.028,-20.4375,-32.775,7.8188,,adl
1.996299,0.1206,-0.1959,-0.024,-0.0003,-0.0019,0.028,-20.4375,-32.775,7.8188,,adl
2.016791,0.0684,-0.153,0.0331,-0.0003,-0.0019,0.028,-20.4375,-32.775,7.8188,,adl
2.029785,0.0684,-0.153,0.0331,-0.0003,-0.0019,0.028,-20.4375,-32.775,7.8188,,adl
2.034723,0.0372,-0.0665,0.0212,-0.0003,-0.0019,0.028,-20.4375,-32.775,7.8188,,adl
2.042909,0.0372,-0.0665,0.0212,-0.0003,-0.0019,0.028,-20.3438,-32.775,7.7063,,adl
2.052382,0.0372,-0.0665,0.0212,0.0095,-0.0093,-0.0232,-20.3438,-32.775,7.7063,,adl
2.053774,0.0287,-0.0194,-0.0326,0.0095,-0.0093,-0.0232,-20.3438,-32.775,7.7063,,adl
2.073274,-0.059,0.0385,-0.0408,0.0095,-0.0093,-0.0232,-20.3438,-32.775,7.7063,,adl
2.077778,-0.059,0.0385,-0.0408,0.0095,-0.0093,-0.0232,-20.3438,-32.775,7.7063,,adl
2.092686,-0.0151,-0.0072,-0.0201,0.0095,-0.0093,-0.0232,-20.3438,-32.775,7.7063,,adl
2.105521,-0.0151,-0.0072,-0.0201,0.0095,-0.0093,-0.0232,-20.5312,-32.7563,7.5188,,adl
2.110393,0.0503,-0.0341,-0.0064,0.0095,-0.0093,-0.0232,-20.5312,-32.7563,7.5188,,adl
2.115924,0.0503,-0.0341,-0.0064,-0.0015,-0.0081,-0.0159,-20.5312,-32.7563,7.5188,,adl
2.124594,0.0503,-0.0341,-0.0064,-0.0015,-0.0081,-0.0159,-20.5312,-32.7563,7.5188,,adl
2.129793,0.037,-0.036,-0.0674,-0.0015,-0.0081,-0.0159,-20.5312,-32.7563,7.5188,,adl
2.150595,-0.0488,0.0042,-0.0704,-0.0015,-0.0081,-0.0159,-20.5312,-32.7563,7.5188,,adl
2.162934,-0.0488,0.0042,-0.0704,-0.0015,-0.0081,-0.0159,-20.3625,-32.5875,8.025,,adl
2.169241,-0.0733,0.0077,0.0331,-0.0015,-0.0081,-0.0159,-20.3625,-32.5875,8.025,,adl
2.172378,-0.0733,0.0077,0.0331,-0.0015,-0.0081,-0.0159,-20.3625,-32.5875,8.025,,adl
2.17709,-0.0733,0.0077,0.0331,-0.0125,-0.0056,-0.0147,-20.3625,-32.5875,8.025,,adl
2.188201,-0.0251,0.0066,0.1021,-0.0125,-0.0056,-0.0147,-20.3625,-32.5875,8.025,,adl
2.207524,0.0497,0.0139,0.08,-0.0125,-0.0056,-0.0147,-20.3625,-32.5875,8.025,,adl
2.220475,0.0497,0.0139,0.08,-0.0125,-0.0056,-0.0147,-20.3625,-32.5875,8.025,,adl
2.223366,0.0497,0.0139,0.08,-0.0125,-0.0056,-0.0147,-20.1562,-32.8875,7.8188,,adl
2.225653,0.0012,-0.0088,-0.063,-0.0125,-0.0056,-0.0147,-20.1562,-32.8875,7.8188,,adl
2.240009,0.0012,-0.0088,-0.063,0.0082,-0.0106,-0.0147,-20.1562,-32.8875,7.8188,,adl
2.243923,-0.0754,0.0542,-0.1302,0.0082,-0.0106,-0.0147,-20.1562,-32.8875,7.8188,,adl
2.264629,-0.073,0.0481,-0.0967,0.0082,-0.0106,-0.0147,-20.1562,-32.8875,7.8188,,adl
2.269085,-0.073,0.0481,-0.0967,0.0082,-0.0106,-0.0147,-20.1562,-32.8875,7.8188,,adl
2.28297,0.0598,-0.0329,0.0219,0.0082,-0.0106,-0.0147,-20.1562,-32.8875,7.8188,,adl
2.284118,0.0598,-0.0329,0.0219,0.0082,-0.0106,-0.0147,-20.25,-32.4563,7.5,,adl
2.301448,0.0598,-0.0329,0.0219,-0.0027,0.0126,-0.0,-20.25,-32.4563,7.5,,adl
2.302954,0.1067,-0.0924,0.0637,-0.0027,0.0126,-0.0,-20.25,-32.4563,7.5,,adl
2.317036,0.1067,-0.0924,0.0637,-0.0027,0.0126,-0.0,-20.25,-32.4563,7.5,,adl
2.320478,0.0221,-0.0575,0.0452,-0.0027,0.0126,-0.0,-20.25,-32.4563,7.5,,adl
2.34099,-0.0924,0.0444,-0.0128,-0.0027,0.0126,-0.0,-20.25,-32.4563,7.5,,adl
2.344231,-0.0924,0.0444,-0.0128,-0.0027,0.0126,-0.0,-20.4375,-32.9062,8.3438,,adl
2.361845,-0.0689,0.0355,-0.0221,-0.0027,0.0126,-0.0,-20.4375,-32.9062,8.3438,,adl
2.364494,-0.0689,0.0355,-0.0221,-0.0027,0.0126,-0.0,-20.4375,-32.9062,8.3438,,adl
2.36641,-0.0689,0.0355,-0.0221,-0.0065,-0.0129,0.0036,-20.4375,-32.9062,8.3438,,adl
2.378732,0.0109,0.0002,-0.0107,-0.0065,-0.0129,0.0036,-20.4375,-32.9062,8.3438,,adl
2.398098,0.0809,-0.0734,-0.0423,-0.0065,-0.0129,0.0036,-20.4375,-32.9062,8.3438,,adl
2.403375,0.0809,-0.0734,-0.0423,-0.0065,-0.0129,0.0036,-19.95,-32.9062,8.2125,,adl
2.411082,0.0809,-0.0734,-0.0423,-0.0065,-0.0129,0.0036,-19.95,-32.9062,8.2125,,adl
2.417442,-0.0103,-0.0358,-0.0278,-0.0065,-0.0129,0.0036,-19.95,-32.9062,8.2125,,adl
2.425869,-0.0103,-0.0358,-0.0278,-0.0015,0.0066,-0.0135,-19.95,-32.9062,8.2125,,adl
2.436447,-0.0638,0.0129,0.0184,-0.0015,0.0066,-0.0135,-19.95,-32.9062,8.2125,,adl
2.455128,-0.0205,0.0165,0.0061,-0.0015,0.0066,-0.0135,-19.95,-32.9062,8.2125,,adl
2.462442,-0.0205,0.0165,0.0061,-0.0015,0.0066,-0.0135,-19.95,-32.9062,8.2125,,adl
2.463465,-0.0205,0.0165,0.0061,-0.0015,0.0066,-0.0135,-20.325,-33.1313,7.2,,adl
2.474436,0.0882,-0.065,-0.0211,-0.0015,0.0066,-0.0135,-20.325,-33.1313,7.2,,adl
2.487313,0.0882,-0.065,-0.0211,-0.004,-0.0044,-0.0172,-20.325,-33.1313,7.2,,adl
2.494424,0.0797,-0.158,-0.0674,-0.004,-0.0044,-0.0172,-20.325,-33.1313,7.2,,adl
2.507168,0.0797,-0.158,-0.0674,-0.004,-0.0044,-0.0172,-20.325,-33.1313,7.2,,adl
2.5126,-0.0431,-0.0517,-0.05,-0.004,-0.0044,-0.0172,-20.325,-33.1313,7.2,,adl
2.522673,-0.0431,-0.0517,-0.05,-0.004,-0.0044,-0.0172,-20.1938,-33.45,5.8313,,adl
2.531919,-0.0367,0.0394,-0.0038,-0.004,-0.0044,-0.0172,-20.1938,-33.45,5.8313,,adl
2.549762,-0.0367,0.0394,-0.0038,-0.0175,0.0066,-0.0159,-20.1938,-33.45,5.8313,,adl
2.550545,-0.0106,0.1602,0.0226,-0.0175,0.0066,-0.0159,-20.1938,-33.45,5.8313,,adl
2.554772,-0.0106,0.1602,0.0226,-0.0175,0.0066,-0.0159,-20.1938,-33.45,5.8313,,adl
2.569775,0.0685,0.0374,-0.0207,-0.0175,0.0066,-0.0159,-20.1938,-33.45,5.8313,,adl
2.583113,0.0685,0.0374,-0.0207,-0.0175,0.0066,-0.0159,-20.3438,-33.075,7.9125,,adl
2.589583,-0.0697,0.0864,-0.0358,-0.0175,0.0066,-0.0159,-20.3438,-33.075,7.9125,,adl
2.603165,-0.0697,0.0864,-0.0358,-0.0175,0.0066,-0.0159,-20.3438,-33.075,7.9125,,adl
2.608215,-0.1539,0.1156,-0.0162,-0.0175,0.0066,-0.0159,-20.3438,-33.075,7.9125,,adl
2.611935,-0.1539,0.1156,-0.0162,-0.01,-0.0008,0.0158,-20.3438,-33.075,7.9125,,adl
2.627902,0.0076,0.0058,0.0044,-0.01,-0.0008,0.0158,-20.3438,-33.075,7.9125,,adl
2.642674,0.0076,0.0058,0.0044,-0.01,-0.0008,0.0158,-20.6438,-32.6625,7.725,,adl
2.646299,0.1296,-0.0663,-0.0479,-0.01,-0.0008,0.0158,-20.6438,-32.6625,7.725,,adl
2.650627,0.1296,-0.0663,-0.0479,-0.01,-0.0008,0.0158,-20.6438,-32.6625,7.725,,adl
2.666095,0.1284,-0.1252,-0.0801,-0.01,-0.0008,0.0158,-20.6438,-32.6625,7.725,,adl
2.674779,0.1284,-0.1252,-0.0801,-0.0052,0.0236,-0.0111,-20.6438,-32.6625,7.725,,adl
2.68473,-0.0241,-0.0107,0.0365,-0.0052,0.0236,-0.0111,-20.6438,-32.6625,7.725,,adl
2.699475,-0.0241,-0.0107,0.0365,-0.0052,0.0236,-0.0111,-20.6438,-32.6625,7.725,,adl
2.702027,-0.0241,-0.0107,0.0365,-0.0052,0.0236,-0.0111,-20.1562,-32.8875,7.8188,,adl
2.703787,-0.0527,0.0395,0.1297,-0.0052,0.0236,-0.0111,-20.1562,-32.8875,7.8188,,adl
2.72335,-0.0133,0.0512,0.0998,-0.0052,0.0236,-0.0111,-20.1562,-32.8875,7.8188,,adl
2.73723,-0.0133,0.0512,0.0998,0.0131,-0.0289,-0.0025,-20.1562,-32.8875,7.8188,,adl
2.744267,0.0266,0.0361,-0.0262,0.0131,-0.0289,-0.0025,-20.1562,-32.8875,7.8188,,adl
2.745947,0.0266,0.0361,-0.0262,0.0131,-0.0289,-0.0025,-20.1562,-32.8875,7.8188,,adl
2.761467,-0.0762,0.088,-0.1531,0.0131,-0.0289,-0.0025,-20.1562,-32.8875,7.8188,,adl
2.762476,-0.0762,0.088,-0.1531,0.0131,-0.0289,-0.0025,-20.25,-32.775,7.7063,,adl
2.780485,-0.052,0.0833,-0.1461,0.0131,-0.0289,-0.0025,-20.25,-32.775,7.7063,,adl
2.795064,-0.052,0.0833,-0.1461,0.0131,-0.0289,-0.0025,-20.25,-32.775,7.7063,,adl
2.799406,-0.052,0.0833,-0.1461,-0.0113,0.0224,0.0366,-20.25,-32.775,7.7063,,adl
2.800119,0.0182,0.0443,0.0185,-0.0113,0.0224,0.0366,-20.25,-32.775,7.7063,,adl
2.819011,0.0651,-0.0151,0.0532,-0.0113,0.0224,0.0366,-20.25,-32.775,7.7063,,adl
2.822622,0.0651,-0.0151,0.0532,-0.0113,0.0224,0.0366,-20.625,-32.85,7.5188,,adl
2.837657,0.1296,-0.1046,0.0128,-0.0113,0.0224,0.0366,-20.625,-32.85,7.5188,,adl
2.841948,0.1296,-0.1046,0.0128,-0.0113,0.0224,0.0366,-20.625,-32.85,7.5188,,adl
2.856831,-0.005,0.0103,0.0373,-0.0113,0.0224,0.0366,-20.625,-32.85,7.5188,,adl
2.86182,-0.005,0.0103,0.0373,0.0058,0.0004,-0.0014,-20.625,-32.85,7.5188,,adl
2.875527,-0.2331,0.2037,0.0858,0.0058,0.0004,-0.0014,-20.625,-32.85,7.5188,,adl
2.882635,-0.2331,0.2037,0.0858,0.0058,0.0004,-0.0014,-20.7375,-32.6813,8.1375,,adl
2.889988,-0.2331,0.2037,0.0858,0.0058,0.0004,-0.0014,-20.7375,-32.6813,8.1375,,adl
2.895539,0.0439,-0.0096,0.0557,0.0058,0.0004,-0.0014,-20.7375,-32.6813,8.1375,,adl
2.914609,0.3376,-0.1446,-0.053,0.0058,0.0004,-0.0014,-20.7375,-32.6813,8.1375,,adl
2.923328,0.3376,-0.1446,-0.053,0.0326,-0.0081,-0.0025,-20.7375,-32.6813,8.1375,,adl
2.933199,0.0665,0.0449,-0.2487,0.0326,-0.0081,-0.0025,-20.7375,-32.6813,8.1375,,adl
2.937553,0.0665,0.0449,-0.2487,0.0326,-0.0081,-0.0025,-20.7375,-32.6813,8.1375,,adl
2.94332,0.0665,0.0449,-0.2487,0.0326,-0.0081,-0.0025,-20.3438,-32.55,7.5,,adl
2.952803,-0.2885,0.2478,-0.1766,0.0326,-0.0081,-0.0025,-20.3438,-32.55,7.5,,adl
2.972806,-0.1207,0.0633,0.0675,0.0326,-0.0081,-0.0025,-20.3438,-32.55,7.5,,adl
2.985813,-0.1207,0.0633,0.0675,0.0326,-0.0081,-0.0025,-20.3438,-32.55,7.5,,adl
2.988349,-0.1207,0.0633,0.0675,-0.021,-0.0166,0.0414,-20.3438,-32.55,7.5,,adl
2.991125,0.2215,-0.1803,0.1809,-0.021,-0.0166,0.0414,-20.3438,-32.55,7.5,,adl
3.002049,0.2215,-0.1803,0.1809,-0.021,-0.0166,0.0414,-20.2125,-33.3563,7.5,,adl
3.009483,0.2932,-0.1013,0.009,-0.021,-0.0166,0.0414,-20.2125,-33.3563,7.5,,adl
3.029192,-0.0345,0.0938,-0.1064,-0.021,-0.0166,0.0414,-20.2125,-33.3563,7.5,,adl
3.033417,-0.0345,0.0938,-0.1064,-0.021,-0.0166,0.0414,-20.2125,-33.3563,7.5,,adl
3.051058,-0.0345,0.0938,-0.1064,-0.0027,0.0016,-0.0025,-20.2125,-33.3563,7.5,,adl
3.053468,-0.1834,0.0799,-0.099,-0.0027,0.0016,-0.0025,-20.2125,-33.3563,7.5,,adl
3.063606,-0.1834,0.0799,-0.099,-0.0027,0.0016,-0.0025,-21.0375,-32.6438,7.7438,,adl
3.06745,0.0509,-0.0268,-0.0458,-0.0027,0.0016,-0.0025,-21.0375,-32.6438,7.7438,,adl
3.08094,0.0509,-0.0268,-0.0458,-0.0027,0.0016,-0.0025,-21.0375,-32.6438,7.7438,,adl
3.086699,0.1934,-0.0503,0.0011,-0.0027,0.0016,-0.0025,-21.0375,-32.6438,7.7438,,adl
3.106668,0.0809,-0.0195,0.1087,-0.0027,0.0016,-0.0025,-21.0375,-32.6438,7.7438,,adl
3.110675,0.0809,-0.0195,0.1087,-0.0027,-0.0081,-0.0342,-21.0375,-32.6438,7.7438,,adl
3.123246,0.0809,-0.0195,0.1087,-0.0027,-0.0081,-0.0342,-20.7375,-32.7563,7.6125,,adl
3.1242,-0.044,0.0365,0.1066,-0.0027,-0.0081,-0.0342,-20.7375,-32.7563,7.6125,,adl
3.128301,-0.044,0.0365,0.1066,-0.0027,-0.0081,-0.0342,-20.7375,-32.7563,7.6125,,adl
3.144933,-0.0188,0.0834,-0.0744,-0.0027,-0.0081,-0.0342,-20.7375,-32.7563,7.6125,,adl
3.165927,-0.0082,0.1192,-0.1593,-0.0027,-0.0081,-0.0342,-20.7375,-32.7563,7.6125,,adl
3.170638,-0.0082,0.1192,-0.1593,-0.004,0.0016,-0.0135,-20.7375,-32.7563,7.6125,,adl
3.175387,-0.0082,0.1192,-0.1593,-0.004,0.0016,-0.0135,-20.7375,-32.7563,7.6125,,adl
3.181845,-0.0324,0.1038,-0.1111,-0.004,0.0016,-0.0135,-20.7375,-32.7563,7.6125,,adl
3.182481,-0.0324,0.1038,-0.1111,-0.004,0.0016,-0.0135,-20.2125,-33.0938,6.4688,,adl
3.201157,-0.0182,0.0439,0.0375,-0.004,0.0016,-0.0135,-20.2125,-33.0938,6.4688,,adl
3.220545,0.0497,0.0015,0.154,-0.004,0.0016,-0.0135,-20.2125,-33.0938,6.4688,,adl
3.224336,0.0497,0.0015,0.154,-0.004,0.0016,-0.0135,-20.2125,-33.0938,6.4688,,adl
3.233551,0.0497,0.0015,0.154,0.007,-0.0374,-0.0074,-20.2125,-33.0938,6.4688,,adl
3.239297,0.1158,0.0209,0.0952,0.007,-0.0374,-0.0074,-20.2125,-33.0938,6.4688,,adl
3.243114,0.1158,0.0209,0.0952,0.007,-0.0374,-0.0074,-20.3438,-32.6625,7.7063,,adl
3.259039,0.0295,0.0718,-0.1321,0.007,-0.0374,-0.0074,-20.3438,-32.6625,7.7063,,adl
3.271963,0.0295,0.0718,-0.1321,0.007,-0.0374,-0.0074,-20.3438,-32.6625,7.7063,,adl
3.277739,-0.0384,0.0835,-0.1886,0.007,-0.0374,-0.0074,-20.3438,-32.6625,7.7063,,adl
3.296262,-0.0384,0.0835,-0.1886,-0.0089,0.0066,0.0023,-20.3438,-32.6625,7.7063,,adl
3.299189,0.0089,0.0534,-0.1281,-0.0089,0.0066,0.0023,-20.3438,-32.6625,7.7063,,adl
3.302798,0.0089,0.0534,-0.1281,-0.0089,0.0066,0.0023,-20.55,-32.775,7.8188,,adl
3.316672,0.0463,0.0395,0.0046,-0.0089,0.0066,0.0023,-20.55,-32.775,7.8188,,adl
3.3195,0.0463,0.0395,0.0046,-0.0089,0.0066,0.0023,-20.55,-32.775,7.8188,,adl
3.33526,0.0627,0.0228,0.0672,-0.0089,0.0066,0.0023,-20.55,-32.775,7.8188,,adl
3.355151,0.0301,0.063,0.0183,-0.0089,0.0066,0.0023,-20.55,-32.775,7.8188,,adl
3.35873,0.0301,0.063,0.0183,0.0082,0.0004,-0.0124,-20.55,-32.775,7.8188,,adl
3.364161,0.0301,0.063,0.0183,0.0082,0.0004,-0.0124,-20.925,-32.8688,8.0438,,adl
3.367867,0.0301,0.063,0.0183,0.0082,0.0004,-0.0124,-20.925,-32.8688,8.0438,,adl
3.372844,-0.0267,0.1224,-0.0903,0.0082,0.0004,-0.0124,-20.925,-32.8688,8.0438,,adl
3.392713,-0.0491,0.1192,-0.1254,0.0082,0.0004,-0.0124,-20.925,-32.8688,8.0438,,adl
3.412103,0.0059,0.0815,-0.0368,0.0082,0.0004,-0.0124,-20.925,-32.8688,8.0438,,adl
3.418884,0.0059,0.0815,-0.0368,0.0082,0.0004,-0.0124,-20.925,-32.8688,8.0438,,adl
3.421782,0.0059,0.0815,-0.0368,-0.0125,0.0164,0.017,-20.925,-32.8688,8.0438,,adl
3.423445,0.0059,0.0815,-0.0368,-0.0125,0.0164,0.017,-20.25,-32.775,7.8188,,adl
3.430313,0.0446,0.0573,0.0515,-0.0125,0.0164,0.017,-20.25,-32.775,7.8188,,adl
3.450132,0.0677,-0.0008,0.0981,-0.0125,0.0164,0.017,-20.25,-32.775,7.8188,,adl
3.463796,0.0677,-0.0008,0.0981,-0.0125,0.0164,0.017,-20.25,-32.775,7.8188,,adl
3.468917,0.0691,0.0028,-0.0014,-0.0125,0.0164,0.017,-20.25,-32.775,7.8188,,adl
3.482739,0.0691,0.0028,-0.0014,0.0118,-0.0093,-0.0074,-20.25,-32.775,7.8188,,adl
3.485543,0.0691,0.0028,-0.0014,0.0118,-0.0093,-0.0074,-21.0375,-32.4375,7.6313,,adl
3.488307,0.0386,0.0635,-0.1146,0.0118,-0.0093,-0.0074,-21.0375,-32.4375,7.6313,,adl
3.507729,-0.0382,0.0583,-0.1001,0.0118,-0.0093,-0.0074,-21.0375,-32.4375,7.6313,,adl
3.511219,-0.0382,0.0583,-0.1001,0.0118,-0.0093,-0.0074,-21.0375,-32.4375,7.6313,,adl
3.526489,0.0437,0.048,-0.0071,0.0118,-0.0093,-0.0074,-21.0375,-32.4375,7.6313,,adl
3.542657,0.0437,0.048,-0.0071,0.0118,-0.0093,-0.0074,-20.3438,-32.8125,8.3438,,adl
3.544482,0.0437,0.048,-0.0071,-0.0015,0.0016,-0.0037,-20.3438,-32.8125,8.3438,,adl
3.545632,0.0662,0.0609,0.0447,-0.0015,0.0016,-0.0037,-20.3438,-32.8125,8.3438,,adl
3.559072,0.0662,0.0609,0.0447,-0.0015,0.0016,-0.0037,-20.3438,-32.8125,8.3438,,adl
3.565777,0.0592,0.0511,-0.0011,-0.0015,0.0016,-0.0037,-20.3438,-32.8125,8.3438,,adl
3.584348,0.0236,0.0594,-0.0686,-0.0015,0.0016,-0.0037,-20.3438,-32.8125,8.3438,,adl
3.603308,-0.0733,0.1038,-0.0603,-0.0015,0.0016,-0.0037,-20.3438,-32.8125,8.3438,,adl
3.606439,-0.0733,0.1038,-0.0603,-0.0015,0.0016,-0.0037,-20.8313,-32.8688,7.9313,,adl
3.608383,-0.0733,0.1038,-0.0603,-0.0015,0.0016,-0.0037,-20.8313,-32.8688,7.9313,,adl
3.610067,-0.0733,0.1038,-0.0603,-0.0015,0.0041,0.0011,-20.8313,-32.8688,7.9313,,adl
3.621729,-0.008,0.0929,-0.0083,-0.0015,0.0041,0.0011,-20.8313,-32.8688,7.9313,,adl
3.641678,0.0969,0.0335,0.0474,-0.0015,0.0041,0.0011,-20.8313,-32.8688,7.9313,,adl
3.655779,0.0969,0.0335,0.0474,-0.0015,0.0041,0.0011,-20.8313,-32.8688,7.9313,,adl
3.662717,0.0602,0.0323,0.0124,-0.0015,0.0041,0.0011,-20.8313,-32.8688,7.9313,,adl
3.666137,0.0602,0.0323,0.0124,-0.0015,0.0041,0.0011,-20.1375,-33.0938,8.025,,adl
3.669041,0.0602,0.0323,0.0124,0.0118,-0.0081,-0.0001,-20.1375,-33.0938,8.025,,adl
3.679248,-0.0267,0.134,-0.0827,0.0118,-0.0081,-0.0001,-20.1375,-33.0938,8.025,,adl
3.698349,-0.0507,0.101,-0.1138,0.0118,-0.0081,-0.0001,-20.1375,-33.0938,8.025,,adl
3.702056,-0.0507,0.101,-0.1138,0.0118,-0.0081,-0.0001,-20.1375,-33.0938,8.025,,adl
3.71799,0.0643,0.0594,-0.0322,0.0118,-0.0081,-0.0001,-20.1375,-33.0938,8.025,,adl
3.722882,0.0643,0.0594,-0.0322,0.0118,-0.0081,-0.0001,-20.3438,-32.7938,8.1375,,adl
3.731131,0.0643,0.0594,-0.0322,-0.004,0.0054,0.0146,-20.3438,-32.7938,8.1375,,adl
3.736763,0.0841,0.0345,0.0008,-0.004,0.0054,0.0146,-20.3438,-32.7938,8.1375,,adl
3.750523,0.0841,0.0345,0.0008,-0.004,0.0054,0.0146,-20.3438,-32.7938,8.1375,,adl
3.756265,0.0896,-0.0037,0.0098,-0.004,0.0054,0.0146,-20.3438,-32.7938,8.1375,,adl
3.775389,0.0972,-0.0167,-0.0576,-0.004,0.0054,0.0146,-20.3438,-32.7938,8.1375,,adl
3.782844,0.0972,-0.0167,-0.0576,-0.004,0.0054,0.0146,-20.55,-32.775,8.025,,adl
3.793864,0.0972,-0.0167,-0.0576,0.0045,-0.0032,-0.0172,-20.55,-32.775,8.025,,adl
3.797689,0.0369,0.093,-0.0597,0.0045,-0.0032,-0.0172,-20.55,-32.775,8.025,,adl
3.799878,0.0369,0.093,-0.0597,0.0045,-0.0032,-0.0172,-20.55,-32.775,8.025,,adl
3.812937,-0.0325,0.1213,0.0071,0.0045,-0.0032,-0.0172,-20.55,-32.775,8.025,,adl
3.832699,-0.002,0.0913,-0.0019,0.0045,-0.0032,-0.0172,-20.55,-32.775,8.025,,adl
3.84282,-0.002,0.0913,-0.0019,0.0045,-0.0032,-0.0172,-20.0625,-32.7,8.025,,adl
3.844692,-0.002,0.0913,-0.0019,0.0045,-0.0032,-0.0172,-20.0625,-32.7,8.025,,adl
3.852827,0.0347,0.0815,-0.0673,0.0045,-0.0032,-0.0172,-20.0625,-32.7,8.025,,adl
3.855329,0.0347,0.0815,-0.0673,0.0033,-0.0093,0.0048,-20.0625,-32.7,8.025,,adl
3.870634,0.0269,0.0347,-0.112,0.0033,-0.0093,0.0048,-20.0625,-32.7,8.025,,adl
3.89005,-0.0236,0.0596,-0.0639,0.0033,-0.0093,0.0048,-20.0625,-32.7,8.025,,adl
3.893487,-0.0236,0.0596,-0.0639,0.0033,-0.0093,0.0048,-20.0625,-32.7,8.025,,adl
3.901911,-0.0236,0.0596,-0.0639,0.0033,-0.0093,0.0048,-20.625,-32.85,7.6125,,adl
3.908036,-0.0012,0.0517,0.0165,0.0033,-0.0093,0.0048,-20.625,-32.85,7.6125,,adl
3.917617,-0.0012,0.0517,0.0165,-0.0052,0.0139,0.0036,-20.625,-32.85,7.6125,,adl
3.928554,0.0732,0.0198,0.0402,-0.0052,0.0139,0.0036,-20.625,-32.85,7.6125,,adl
3.941487,0.0732,0.0198,0.0402,-0.0052,0.0139,0.0036,-20.625,-32.85,7.6125,,adl
3.947738,0.025,0.051,0.0333,-0.0052,0.0139,0.0036,-20.625,-32.85,7.6125,,adl
3.962613,0.025,0.051,0.0333,-0.0052,0.0139,0.0036,-20.8313,-32.7563,7.8375,,adl
3.96704,-0.0454,0.0907,-0.0018,-0.0052,0.0139,0.0036,-20.8313,-32.7563,7.8375,,adl
3.980117,-0.0454,0.0907,-0.0018,0.0021,-0.0044,0.0023,-20.8313,-32.7563,7.8375,,adl
3.985804,-0.0041,0.0525,-0.0551,0.0021,-0.0044,0.0023,-20.8313,-32.7563,7.8375,,adl
3.98976,-0.0041,0.0525,-0.0551,0.0021,-0.0044,0.0023,-20.8313,-32.7563,7.8375,,adl
4.004457,0.0319,0.0232,-0.0576,0.0021,-0.0044,0.0023,-20.8313,-32.7563,7.8375,,adl
4.022253,0.0319,0.0232,-0.0576,0.0021,-0.0044,0.0023,-20.7375,-32.7938,8.25,,adl
4.023859,-0.0147,0.0325,0.0179,0.0021,-0.0044,0.0023,-20.7375,-32.7938,8.25,,adl
4.037232,-0.0147,0.0325,0.0179,0.0021,-0.0044,0.0023,-20.7375,-32.7938,8.25,,adl
4.041774,-0.0147,0.0325,0.0179,-0.0077,-0.0154,0.0048,-20.7375,-32.7938,8.25,,adl
4.042803,-0.0114,0.0467,0.0888,-0.0077,-0.0154,0.0048,-20.7375,-32.7938,8.25,,adl
4.06203,0.0467,0.051,0.0812,-0.0077,-0.0154,0.0048,-20.7375,-32.7938,8.25,,adl
4.081239,-0.0559,0.0766,-0.01,-0.0077,-0.0154,0.0048,-20.7375,-32.7938,8.25,,adl
4.084499,-0.0559,0.0766,-0.01,-0.0077,-0.0154,0.0048,-20.4375,-32.775,7.9313,,adl
4.086559,-0.0559,0.0766,-0.01,-0.0077,-0.0154,0.0048,-20.4375,-32.775,7.9313,,adl
4.100054,-0.0759,0.0745,-0.124,-0.0077,-0.0154,0.0048,-20.4375,-32.775,7.9313,,adl
4.104246,-0.0759,0.0745,-0.124,0.0143,-0.0362,0.0048,-20.4375,-32.775,7.9313,,adl
4.118672,-0.0234,0.0727,0.0082,0.0143,-0.0362,0.0048,-20.4375,-32.775,7.9313,,adl
4.133064,-0.0234,0.0727,0.0082,0.0143,-0.0362,0.0048,-20.4375,-32.775,7.9313,,adl
4.141296,0.0619,-0.0113,-0.0025,0.0143,-0.0362,0.0048,-20.4375,-32.775,7.9313,,adl
4.143259,0.0619,-0.0113,-0.0025,0.0143,-0.0362,0.0048,-20.55,-32.9062,8.55,,adl
4.158315,0.002,0.1149,-0.0885,0.0143,-0.0362,0.0048,-20.55,-32.9062,8.55,,adl
4.167183,0.002,0.1149,-0.0885,0.0045,0.0004,0.0023,-20.55,-32.9062,8.55,,adl
4.176712,-0.0217,0.0433,-0.048,0.0045,0.0004,0.0023,-20.55,-32.9062,8.55,,adl
4.180213,-0.0217,0.0433,-0.048,0.0045,0.0004,0.0023,-20.55,-32.9062,8.55,,adl
4.195487,-0.015,0.0248,-0.0714,0.0045,0.0004,0.0023,-20.55,-32.9062,8.55,,adl
4.202604,-0.015,0.0248,-0.0714,0.0045,0.0004,0.0023,-20.3438,-33.0,8.2313,,adl
4.214943,0.039,0.0329,0.0062,0.0045,0.0004,0.0023,-20.3438,-33.0,8.2313,,adl
4.229652,0.039,0.0329,0.0062,0.0045,0.0004,0.0023,-20.3438,-33.0,8.2313,,adl
4.232982,0.039,0.0329,0.0062,-0.0027,0.0077,-0.0038,-20.3438,-33.0,8.2313,,adl
4.23515,0.0213,0.0327,-0.0049,-0.0027,0.0077,-0.0038,-20.3438,-33.0,8.2313,,adl
4.253234,-0.0102,0.0389,-0.0095,-0.0027,0.0077,-0.0038,-20.3438,-33.0,8.2313,,adl
4.262885,-0.0102,0.0389,-0.0095,-0.0027,0.0077,-0.0038,-20.6438,-32.8875,8.1375,,adl
4.273702,-0.0256,0.0474,-0.0302,-0.0027,0.0077,-0.0038,-20.6438,-32.8875,8.1375,,adl
4.276636,-0.0256,0.0474,-0.0302,-0.0027,0.0077,-0.0038,-20.6438,-32.8875,8.1375,,adl
4.291166,-0.0256,0.0474,-0.0302,-0.004,0.0066,0.0011,-20.6438,-32.8875,8.1375,,adl
4.295525,-0.0285,0.042,-0.0154,-0.004,0.0066,0.0011,-20.6438,-32.8875,8.1375,,adl
4.310305,0.0253,0.007,0.017,-0.004,0.0066,0.0011,-20.6438,-32.8875,8.1375,,adl
4.322757,0.0253,0.007,0.017,-0.004,0.0066,0.0011,-20.8313,-33.0563,7.9313,,adl
4.326656,0.0253,0.007,0.017,-0.004,0.0066,0.0011,-20.8313,-33.0563,7.9313,,adl
4.331038,0.016,0.01,0.0478,-0.004,0.0066,0.0011,-20.8313,-33.0563,7.9313,,adl
4.348707,0.0134,0.0185,0.0289,-0.004,0.0066,0.0011,-20.8313,-33.0563,7.9313,,adl
4.352855,0.0134,0.0185,0.0289,0.007,-0.0118,-0.0099,-20.8313,-33.0563,7.9313,,adl
4.368374,-0.0186,0.0563,-0.0709,0.007,-0.0118,-0.0099,-20.8313,-33.0563,7.9313,,adl
4.37202,-0.0186,0.0563,-0.0709,0.007,-0.0118,-0.0099,-20.8313,-33.0563,7.9313,,adl
4.382691,-0.0186,0.0563,-0.0709,0.007,-0.0118,-0.0099,-20.7375,-32.8688,7.8188,,adl
4.386616,-0.0425,0.0422,-0.1142,0.007,-0.0118,-0.0099,-20.7375,-32.8688,7.8188,,adl
4.405742,-0.0359,0.0284,-0.0586,0.007,-0.0118,-0.0099,-20.7375,-32.8688,7.8188,,adl
4.415432,-0.0359,0.0284,-0.0586,-0.0089,0.0126,-0.0001,-20.7375,-32.8688,7.8188,,adl
4.42107,-0.0359,0.0284,-0.0586,-0.0089,0.0126,-0.0001,-20.7375,-32.8688,7.8188,,adl
4.425424,-0.0002,0.0362,0.0444,-0.0089,0.0126,-0.0001,-20.7375,-32.8688,7.8188,,adl
4.442143,-0.0002,0.0362,0.0444,-0.0089,0.0126,-0.0001,-20.3438,-32.9062,8.2313,,adl
4.443971,0.0275,0.0385,0.0885,-0.0089,0.0126,-0.0001,-20.3438,-32.9062,8.2313,,adl
4.463923,0.0418,-0.0182,0.0502,-0.0089,0.0126,-0.0001,-20.3438,-32.9062,8.2313,,adl
4.46737,0.0418,-0.0182,0.0502,-0.0089,0.0126,-0.0001,-20.3438,-32.9062,8.2313,,adl
4.47708,0.0418,-0.0182,0.0502,0.0241,-0.0118,-0.0159,-20.3438,-32.9062,8.2313,,adl
4.482777,-0.0318,-0.0028,-0.111,0.0241,-0.0118,-0.0159,-20.3438,-32.9062,8.2313,,adl
4.502611,-0.092,0.1054,-0.1036,0.0241,-0.0118,-0.0159,-20.3438,-32.9062,8.2313,,adl
4.506114,-0.092,0.1054,-0.1036,0.0241,-0.0118,-0.0159,-20.0438,-33.0188,8.325,,adl
4.51563,-0.092,0.1054,-0.1036,0.0241,-0.0118,-0.0159,-20.0438,-33.0188,8.325,,adl
4.520863,0.0251,0.0357,-0.0028,0.0241,-0.0118,-0.0159,-20.0438,-33.0188,8.325,,adl
4.53867,0.0251,0.0357,-0.0028,0.0008,-0.0069,0.0048,-20.0438,-33.0188,8.325,,adl
4.539911,0.0274,0.032,0.0476,0.0008,-0.0069,0.0048,-20.0438,-33.0188,8.325,,adl
4.55965,-0.0637,0.051,-0.0312,0.0008,-0.0069,0.0048,-20.0438,-33.0188,8.325,,adl
4.563375,-0.0637,0.051,-0.0312,0.0008,-0.0069,0.0048,-20.25,-33.0,8.2313,,adl
4.565199,-0.0637,0.051,-0.0312,0.0008,-0.0069,0.0048,-20.25,-33.0,8.2313,,adl
4.578419,0.0163,0.0283,-0.0226,0.0008,-0.0069,0.0048,-20.25,-33.0,8.2313,,adl
4.597842,0.1242,-0.0408,-0.0344,0.0008,-0.0069,0.0048,-20.25,-33.0,8.2313,,adl
4.600982,0.1242,-0.0408,-0.0344,0.0021,-0.0081,0.0036,-20.25,-33.0,8.2313,,adl
4.611181,0.1242,-0.0408,-0.0344,0.0021,-0.0081,0.0036,-20.25,-33.0,8.2313,,adl
4.619458,0.0179,0.0094,-0.1004,0.0021,-0.0081,0.0036,-20.25,-33.0,8.2313,,adl
4.621698,0.0179,0.0094,-0.1004,0.0021,-0.0081,0.0036,-19.5,-32.3625,8.8313,,adl
4.635569,-0.06,0.0586,-0.0442,0.0021,-0.0081,0.0036,-19.5,-32.3625,8.8313,,adl
4.654914,0.0103,0.0236,0.0627,0.0021,-0.0081,0.0036,-19.5,-32.3625,8.8313,,adl
4.658312,0.0103,0.0236,0.0627,0.0021,-0.0081,0.0036,-19.5,-32.3625,8.8313,,adl
4.662862,0.0103,0.0236,0.0627,-0.0027,-0.0154,0.0011,-19.5,-32.3625,8.8313,,adl
4.674055,0.0761,-0.0569,0.0473,-0.0027,-0.0154,0.0011,-19.5,-32.3625,8.8313,,adl
4.68514,0.0761,-0.0569,0.0473,-0.0027,-0.0154,0.0011,-20.3438,-32.7938,8.1375,,adl
4.69368,0.059,0.0151,-0.0697,-0.0027,-0.0154,0.0011,-20.3438,-32.7938,8.1375,,adl
4.706811,0.059,0.0151,-0.0697,-0.0027,-0.0154,0.0011,-20.3438,-32.7938,8.1375,,adl
4.712218,-0.0407,0.0521,-0.0682,-0.0027,-0.0154,0.0011,-20.3438,-32.7938,8.1375,,adl
4.725805,-0.0407,0.0521,-0.0682,-0.004,-0.0142,-0.0148,-20.3438,-32.7938,8.1375,,adl
4.731471,-0.0775,0.0832,-0.0003,-0.004,-0.0142,-0.0148,-20.3438,-32.7938,8.1375,,adl
4.743768,-0.0775,0.0832,-0.0003,-0.004,-0.0142,-0.0148,-20.1562,-32.7,8.2313,,adl
4.752824,-0.048,0.0886,0.0133,-0.004,-0.0142,-0.0148,-20.1562,-32.7,8.2313,,adl
4.755726,-0.048,0.0886,0.0133,-0.004,-0.0142,-0.0148,-20.1562,-32.7,8.2313,,adl
4.769659,0.0275,0.0123,-0.0835,-0.004,-0.0142,-0.0148,-20.1562,-32.7,8.2313,,adl
4.787984,0.0275,0.0123,-0.0835,-0.0077,-0.0179,-0.0001,-20.1562,-32.7,8.2313,,adl
4.791156,0.0934,-0.012,-0.0198,-0.0077,-0.0179,-0.0001,-20.1562,-32.7,8.2313,,adl
4.802994,0.0934,-0.012,-0.0198,-0.0077,-0.0179,-0.0001,-20.1562,-32.7,8.2313,,adl
4.804415,0.0934,-0.012,-0.0198,-0.0077,-0.0179,-0.0001,-20.0438,-32.9813,7.8,,adl
4.807807,-0.0965,0.0742,-0.0094,-0.0077,-0.0179,-0.0001,-20.0438,-32.9813,7.8,,adl
4.82716,-0.1251,0.1038,0.1032,-0.0077,-0.0179,-0.0001,-20.0438,-32.9813,7.8,,adl
4.845891,0.0401,0.0269,0.1182,-0.0077,-0.0179,-0.0001,-20.0438,-32.9813,7.8,,adl
4.849728,0.0401,0.0269,0.1182,-0.0077,-0.0179,-0.0001,-20.0438,-32.9813,7.8,,adl
4.85087,0.0401,0.0269,0.1182,-0.0027,-0.0814,0.0267,-20.0438,-32.9813,7.8,,adl
4.863166,0.0401,0.0269,0.1182,-0.0027,-0.0814,0.0267,-20.0625,-32.625,8.4375,,adl
4.86472,0.1392,-0.0538,0.0369,-0.0027,-0.0814,0.0267,-20.0625,-32.625,8.4375,,adl
4.884834,0.1322,-0.0099,-0.1491,-0.0027,-0.0814,0.0267,-20.0625,-32.625,8.4375,,adl
4.897959,0.1322,-0.0099,-0.1491,-0.0027,-0.0814,0.0267,-20.0625,-32.625,8.4375,,adl
4.90355,-0.0801,0.1221,-0.2357,-0.0027,-0.0814,0.0267,-20.0625,-32.625,8.4375,,adl
4.911875,-0.0801,0.1221,-0.2357,0.0008,-0.0106,0.0146,-20.0625,-32.625,8.4375,,adl
4.923172,-0.132,0.1666,-0.241,0.0008,-0.0106,0.0146,-20.0625,-32.625,8.4375,,adl
4.926529,-0.132,0.1666,-0.241,0.0008,-0.0106,0.0146,-20.1562,-32.9062,8.1188,,adl
4.941179,-0.0352,0.0971,-0.0888,0.0008,-0.0106,0.0146,-20.1562,-32.9062,8.1188,,adl
4.944979,-0.0352,0.0971,-0.0888,0.0008,-0.0106,0.0146,-20.1562,-32.9062,8.1188,,adl
4.961411,0.0582,0.0242,0.0766,0.0008,-0.0106,0.0146,-20.1562,-32.9062,8.1188,,adl
4.975215,0.0582,0.0242,0.0766,-0.0162,0.0261,0.0426,-20.1562,-32.9062,8.1188,,adl
4.979546,0.134,-0.0167,0.1183,-0.0162,0.0261,0.0426,-20.1562,-32.9062,8.1188,,adl
4.982996,0.134,-0.0167,0.1183,-0.0162,0.0261,0.0426,-20.0625,-32.7938,8.1188,,adl
4.993637,0.134,-0.0167,0.1183,-0.0162,0.0261,0.0426,-20.0625,-32.7938,8.1188,,adl
4.998677,0.0949,-0.0748,0.0689,-0.0162,0.0261,0.0426,-20.0625,-32.7938,8.1188,,adl
5.017992,-0.0547,-0.0025,-0.0591,-0.0162,0.0261,0.0426,-20.0625,-32.7938,8.1188,,adl
5.036668,-0.0547,-0.0025,-0.0591,0.0045,-0.0033,0.0109,-20.0625,-32.7938,8.1188,,adl
5.039732,0.04,-0.0125,-0.0699,0.0045,-0.0033,0.0109,-20.0625,-32.7938,8.1188,,adl
5.042009,0.04,-0.0125,-0.0699,0.0045,-0.0033,0.0109,-20.0625,-32.7938,8.1188,,adl
5.043754,0.04,-0.0125,-0.0699,0.0045,-0.0033,0.0109,-20.6438,-32.775,7.8188,,adl
5.056855,0.0245,-0.0222,-0.0566,0.0045,-0.0033,0.0109,-20.6438,-32.775,7.8188,,adl
5.075894,0.0529,0.0063,-0.0155,0.0045,-0.0033,0.0109,-20.6438,-32.775,7.8188,,adl
5.089349,0.0529,0.0063,-0.0155,0.0045,-0.0033,0.0109,-20.6438,-32.775,7.8188,,adl
5.097476,0.0154,-0.0003,0.0077,0.0045,-0.0033,0.0109,-20.6438,-32.775,7.8188,,adl
5.099504,0.0154,-0.0003,0.0077,0.0045,0.0054,-0.0074,-20.6438,-32.775,7.8188,,adl
5.101462,0.0154,-0.0003,0.0077,0.0045,0.0054,-0.0074,-20.4375,-32.8875,8.2313,,adl
5.11435,0.0086,0.0131,-0.0454,0.0045,0.0054,-0.0074,-20.4375,-32.8875,8.2313,,adl
5.133444,-0.0154,0.0812,-0.0167,0.0045,0.0054,-0.0074,-20.4375,-32.8875,8.2313,,adl
5.136758,-0.0154,0.0812,-0.0167,0.0045,0.0054,-0.0074,-20.4375,-32.8875,8.2313,,adl
5.152035,-0.0346,0.0665,0.0048,0.0045,0.0054,-0.0074,-20.4375,-32.8875,8.2313,,adl
5.160938,-0.0346,0.0665,0.0048,-0.0004,-0.0069,0.0047,-20.4375,-32.8875,8.2313,,adl
5.161936,-0.0346,0.0665,0.0048,-0.0004,-0.0069,0.0047,-20.1562,-33.0,8.325,,adl
5.172047,-0.0042,0.072,-0.0207,-0.0004,-0.0069,0.0047,-20.1562,-33.0,8.325,,adl
5.186926,-0.0042,0.072,-0.0207,-0.0004,-0.0069,0.0047,-20.1562,-33.0,8.325,,adl
5.189969,-0.0127,0.0475,-0.0791,-0.0004,-0.0069,0.0047,-20.1562,-33.0,8.325,,adl
5.20963,0.022,0.0386,-0.0273,-0.0004,-0.0069,0.0047,-20.1562,-33.0,8.325,,adl
5.222841,0.022,0.0386,-0.0273,-0.0004,-0.0069,0.0047,-20.1562,-32.7188,8.4375,,adl
5.226517,0.022,0.0386,-0.0273,-0.0015,0.0041,0.0059,-20.1562,-32.7188,8.4375,,adl
5.228398,0.022,0.0309,-0.0415,-0.0015,0.0041,0.0059,-20.1562,-32.7188,8.4375,,adl
5.232255,0.022,0.0309,-0.0415,-0.0015,0.0041,0.0059,-20.1562,-32.7188,8.4375,,adl
5.247911,0.0101,0.0608,-0.0463,-0.0015,0.0041,0.0059,-20.1562,-32.7188,8.4375,,adl
5.267451,0.0082,0.0481,-0.0061,-0.0015,0.0041,0.0059,-20.1562,-32.7188,8.4375,,adl
5.281449,0.0082,0.0481,-0.0061,-0.0015,0.0041,0.0059,-20.1562,-32.7188,8.4375,,adl
5.282945,0.0082,0.0481,-0.0061,-0.0015,0.0041,0.0059,-20.8313,-32.8875,8.3438,,adl
5.285076,0.0082,0.0481,-0.0061,-0.0052,-0.0044,0.0023,-20.8313,-32.8875,8.3438,,adl
5.285954,-0.0035,0.0118,0.0225,-0.0052,-0.0044,0.0023,-20.8313,-32.8875,8.3438,,adl
5.305115,-0.0092,0.0416,-0.0004,-0.0052,-0.0044,0.0023,-20.8313,-32.8875,8.3438,,adl
5.325485,0.0273,0.052,-0.0176,-0.0052,-0.0044,0.0023,-20.8313,-32.8875,8.3438,,adl
5.328385,0.0273,0.052,-0.0176,-0.0052,-0.0044,0.0023,-20.8313,-32.8875,8.3438,,adl
5.343496,0.0115,0.0551,-0.04,-0.0052,-0.0044,0.0023,-20.8313,-32.8875,8.3438,,adl
5.346847,0.0115,0.0551,-0.04,-0.0052,-0.0044,0.0023,-20.8313,-32.775,7.9313,,adl
5.348743,0.0115,0.0551,-0.04,-0.0004,-0.0069,0.0023,-20.8313,-32.775,7.9313,,adl
5.362295,-0.0084,0.082,-0.0654,-0.0004,-0.0069,0.0023,-20.8313,-32.775,7.9313,,adl
5.376676,-0.0084,0.082,-0.0654,-0.0004,-0.0069,0.0023,-20.8313,-32.775,7.9313,,adl
5.381572,-0.0078,0.0498,-0.0349,-0.0004,-0.0069,0.0023,-20.8313,-32.775,7.9313,,adl
5.400769,0.0124,0.0422,-0.0288,-0.0004,-0.0069,0.0023,-20.8313,-32.775,7.9313,,adl
5.404488,0.0124,0.0422,-0.0288,-0.0004,-0.0069,0.0023,-20.0625,-32.6063,8.2313,,adl
5.409119,0.0124,0.0422,-0.0288,-0.0015,0.0089,0.0059,-20.0625,-32.6063,8.2313,,adl
5.419615,0.0301,0.0675,0.0014,-0.0015,0.0089,0.0059,-20.0625,-32.6063,8.2313,,adl
5.423784,0.0301,0.0675,0.0014,-0.0015,0.0089,0.0059,-20.0625,-32.6063,8.2313,,adl
5.438967,0.0183,0.0271,-0.0299,-0.0015,0.0089,0.0059,-20.0625,-32.6063,8.2313,,adl
5.458307,0.0115,0.0351,0.0344,-0.0015,0.0089,0.0059,-20.0625,-32.6063,8.2313,,adl
5.465398,0.0115,0.0351,0.0344,-0.0015,0.0089,0.0059,-19.65,-33.0938,7.8938,,adl
5.471474,0.0115,0.0351,0.0344,-0.0015,0.0089,0.0059,-19.65,-33.0938,7.8938,,adl
5.472385,0.0115,0.0351,0.0344,0.0008,-0.0021,-0.0038,-19.65,-33.0938,7.8938,,adl
5.47681,-0.0316,0.055,0.0008,0.0008,-0.0021,-0.0038,-19.65,-33.0938,7.8938,,adl
5.496677,0.0293,0.0579,-0.0194,0.0008,-0.0021,-0.0038,-19.65,-33.0938,7.8938,,adl
5.516217,0.0209,0.0543,-0.0445,0.0008,-0.0021,-0.0038,-19.65,-33.0938,7.8938,,adl
5.519976,0.0209,0.0543,-0.0445,0.0008,-0.0021,-0.0038,-19.65,-33.0938,7.8938,,adl
5.522859,0.0209,0.0543,-0.0445,0.0008,-0.0021,-0.0038,-20.2688,-32.6063,8.2313,,adl
5.534034,0.0209,0.0543,-0.0445,-0.0027,0.0041,0.0036,-20.2688,-32.6063,8.2313,,adl
5.535498,0.0015,0.073,-0.0418,-0.0027,0.0041,0.0036,-20.2688,-32.6063,8.2313,,adl
5.553929,-0.0053,0.0704,-0.0543,-0.0027,0.0041,0.0036,-20.2688,-32.6063,8.2313,,adl
5.567337,-0.0053,0.0704,-0.0543,-0.0027,0.0041,0.0036,-20.2688,-32.6063,8.2313,,adl
5.573621,0.0122,0.073,0.0048,-0.0027,0.0041,0.0036,-20.2688,-32.6063,8.2313,,adl
5.582972,0.0122,0.073,0.0048,-0.0027,0.0041,0.0036,-19.875,-32.6063,8.1188,,adl
5.592162,0.0309,0.0126,-0.0235,-0.0027,0.0041,0.0036,-19.875,-32.6063,8.1188,,adl
5.597152,0.0309,0.0126,-0.0235,-0.0004,0.0016,-0.0051,-19.875,-32.6063,8.1188,,adl
5.611393,-0.0047,0.0123,0.0097,-0.0004,0.0016,-0.0051,-19.875,-32.6063,8.1188,,adl
5.615572,-0.0047,0.0123,0.0097,-0.0004,0.0016,-0.0051,-19.875,-32.6063,8.1188,,adl
5.629886,-0.0543,0.0753,-0.0389,-0.0004,0.0016,-0.0051,-19.875,-32.6063,8.1188,,adl
5.642459,-0.0543,0.0753,-0.0389,-0.0004,0.0016,-0.0051,-20.1562,-32.7,8.2313,,adl
5.649571,-0.0439,0.0792,-0.0063,-0.0004,0.0016,-0.0051,-20.1562,-32.7,8.2313,,adl
5.658454,-0.0439,0.0792,-0.0063,-0.0052,-0.0008,0.0144,-20.1562,-32.7,8.2313,,adl
5.664463,-0.0439,0.0792,-0.0063,-0.0052,-0.0008,0.0144,-20.1562,-32.7,8.2313,,adl
5.667624,0.0732,0.1155,0.0322,-0.0052,-0.0008,0.0144,-20.1562,-32.7,8.2313,,adl
5.687979,-0.0166,0.0013,-0.0911,-0.0052,-0.0008,0.0144,-20.1562,-32.7,8.2313,,adl
5.70307,-0.0166,0.0013,-0.0911,-0.0052,-0.0008,0.0144,-20.0625,-32.7188,8.5312,,adl
5.706652,-0.0201,-0.0186,-0.011,-0.0052,-0.0008,0.0144,-20.0625,-32.7188,8.5312,,adl
5.712699,-0.0201,-0.0186,-0.011,-0.0052,-0.0008,0.0144,-20.0625,-32.7188,8.5312,,adl
5.719838,-0.0201,-0.0186,-0.011,-0.004,0.0151,0.0109,-20.0625,-32.7188,8.5312,,adl
5.725339,0.008,0.0167,-0.032,-0.004,0.0151,0.0109,-20.0625,-32.7188,8.5312,,adl
5.745057,0.0234,0.0005,-0.002,-0.004,0.0151,0.0109,-20.0625,-32.7188,8.5312,,adl
5.758745,0.0234,0.0005,-0.002,-0.004,0.0151,0.0109,-20.0625,-32.7188,8.5312,,adl
5.76425,0.0234,0.0005,-0.002,-0.004,0.0151,0.0109,-20.4375,-33.0938,8.2313,,adl
5.765385,0.0359,-0.0139,0.0478,-0.004,0.0151,0.0109,-20.4375,-33.0938,8.2313,,adl
5.782447,0.0359,-0.0139,0.0478,0.007,-0.0118,-0.0136,-20.4375,-33.0938,8.2313,,adl
5.783977,-0.0033,-0.0159,0.039,0.007,-0.0118,-0.0136,-20.4375,-33.0938,8.2313,,adl
5.802815,-0.0126,0.0464,-0.0331,0.007,-0.0118,-0.0136,-20.4375,-33.0938,8.2313,,adl
5.806642,-0.0126,0.0464,-0.0331,0.007,-0.0118,-0.0136,-20.4375,-33.0938,8.2313,,adl
5.821075,-0.0432,0.0659,-0.072,0.007,-0.0118,-0.0136,-20.4375,-33.0938,8.2313,,adl
5.823142,-0.0432,0.0659,-0.072,0.007,-0.0118,-0.0136,-20.55,-32.6813,7.9313,,adl
5.840869,-0.008,0.0392,-0.0499,0.007,-0.0118,-0.0136,-20.55,-32.6813,7.9313,,adl
5.844545,-0.008,0.0392,-0.0499,-0.0027,0.0029,-0.0051,-20.55,-32.6813,7.9313,,adl
5.853662,-0.008,0.0392,-0.0499,-0.0027,0.0029,-0.0051,-20.55,-32.6813,7.9313,,adl
5.859556,0.0092,0.0281,-0.0505,-0.0027,0.0029,-0.0051,-20.55,-32.6813,7.9313,,adl
5.878734,-0.0834,0.0755,-0.0562,-0.0027,0.0029,-0.0051,-20.55,-32.6813,7.9313,,adl
5.882653,-0.0834,0.0755,-0.0562,-0.0027,0.0029,-0.0051,-20.4563,-32.7938,8.2313,,adl
5.89903,0.1705,-0.078,-0.2003,-0.0027,0.0029,-0.0051,-20.4563,-32.7938,8.2313,,adl
5.902754,0.1705,-0.078,-0.2003,-0.0027,0.0029,-0.0051,-20.4563,-32.7938,8.2313,,adl
5.90713,0.1705,-0.078,-0.2003,0.007,0.1446,0.0329,-20.4563,-32.7938,8.2313,,adl
5.91675,-0.2405,0.0026,0.1541,0.007,0.1446,0.0329,-20.4563,-32.7938,8.2313,,adl
5.936275,0.2133,-0.3323,0.0706,0.007,0.1446,0.0329,-20.4563,-32.7938,8.2313,,adl
5.942605,0.2133,-0.3323,0.0706,0.007,0.1446,0.0329,-20.7375,-32.8875,8.1375,,adl
5.950299,0.2133,-0.3323,0.0706,0.007,0.1446,0.0329,-20.7375,-32.8875,8.1375,,adl
5.955505,0.06,-0.008,-0.0828,0.007,0.1446,0.0329,-20.7375,-32.8875,8.1375,,adl
5.968543,0.06,-0.008,-0.0828,0.2061,0.257,0.0414,-20.7375,-32.8875,8.1375,,adl
5.974031,0.0028,0.1323,0.142,0.2061,0.257,0.0414,-20.7375,-32.8875,8.1375,,adl
5.995929,-0.1454,0.047,0.0756,0.2061,0.257,0.0414,-20.7375,-32.8875,8.1375,,adl
5.997658,-0.1454,0.047,0.0756,0.2061,0.257,0.0414,-20.7375,-32.8875,8.1375,,adl
6.00337,-0.1454,0.047,0.0756,0.2061,0.257,0.0414,-20.85,-32.3813,8.0438,,adl
6.012519,-0.1206,0.0842,0.1746,0.2061,0.257,0.0414,-20.85,-32.3813,8.0438,,adl
6.031484,-0.1206,0.0842,0.1746,0.1486,0.1409,0.0927,-20.85,-32.3813,8.0438,,adl
6.033057,-0.0371,-0.0124,-0.168,0.1486,0.1409,0.0927,-20.85,-32.3813,8.0438,,adl
6.045469,-0.0371,-0.0124,-0.168,0.1486,0.1409,0.0927,-20.85,-32.3813,8.0438,,adl
6.054039,-0.008,0.1174,-0.2885,0.1486,0.1409,0.0927,-20.85,-32.3813,8.0438,,adl
6.064967,-0.008,0.1174,-0.2885,0.1486,0.1409,0.0927,-20.6813,-32.1,8.25,,adl
6.070628,0.0149,0.05,-0.3474,0.1486,0.1409,0.0927,-20.6813,-32.1,8.25,,adl
6.089479,0.0116,-0.0264,-0.2766,0.1486,0.1409,0.0927,-20.6813,-32.1,8.25,,adl
6.09291,0.0116,-0.0264,-0.2766,0.1486,0.1409,0.0927,-20.6813,-32.1,8.25,,adl
6.093646,0.0116,-0.0264,-0.2766,0.0253,0.2655,0.1024,-20.6813,-32.1,8.25,,adl
6.108214,-0.0291,-0.0558,0.0573,0.0253,0.2655,0.1024,-20.6813,-32.1,8.25,,adl
6.12314,-0.0291,-0.0558,0.0573,0.0253,0.2655,0.1024,-21.5438,-32.1375,7.8563,,adl
6.126916,-0.0064,-0.0077,-0.1549,0.0253,0.2655,0.1024,-21.5438,-32.1375,7.8563,,adl
6.140791,-0.0064,-0.0077,-0.1549,0.0253,0.2655,0.1024,-21.5438,-32.1375,7.8563,,adl
6.146069,0.1774,0.1503,-0.0035,0.0253,0.2655,0.1024,-21.5438,-32.1375,7.8563,,adl
6.155351,0.1774,0.1503,-0.0035,-0.1262,0.23,-0.0186,-21.5438,-32.1375,7.8563,,adl
6.165332,-0.1129,0.1377,0.2193,-0.1262,0.23,-0.0186,-21.5438,-32.1375,7.8563,,adl
6.182627,-0.1129,0.1377,0.2193,-0.1262,0.23,-0.0186,-21.6375,-31.9125,7.4438,,adl
6.184188,-0.0727,0.0074,0.5017,-0.1262,0.23,-0.0186,-21.6375,-31.9125,7.4438,,adl
6.188972,-0.0727,0.0074,0.5017,-0.1262,0.23,-0.0186,-21.6375,-31.9125,7.4438,,adl
6.203941,0.2761,-0.4186,0.7711,-0.1262,0.23,-0.0186,-21.6375,-31.9125,7.4438,,adl
6.21957,0.2761,-0.4186,0.7711,0.2122,-0.1389,-0.0588,-21.6375,-31.9125,7.4438,,adl
6.223187,0.1005,-0.4449,0.5833,0.2122,-0.1389,-0.0588,-21.6375,-31.9125,7.4438,,adl
6.236778,0.1005,-0.4449,0.5833,0.2122,-0.1389,-0.0588,-21.6375,-31.9125,7.4438,,adl
6.242638,0.0099,0.0807,0.0601,0.2122,-0.1389,-0.0588,-21.6375,-31.9125,7.4438,,adl
6.243542,0.0099,0.0807,0.0601,0.2122,-0.1389,-0.0588,-21.15,-32.25,7.7438,,adl
6.261434,-0.1255,0.2373,-0.614,0.2122,-0.1389,-0.0588,-21.15,-32.25,7.7438,,adl
6.279812,-0.1255,0.2373,-0.614,0.1511,-0.0411,-0.0246,-21.15,-32.25,7.7438,,adl
6.283406,-0.0179,0.22,-0.807,0.1511,-0.0411,-0.0246,-21.15,-32.25,7.7438,,adl
6.285921,-0.0179,0.22,-0.807,0.1511,-0.0411,-0.0246,-21.15,-32.25,7.7438,,adl
6.299964,0.131,0.1875,-0.9496,0.1511,-0.0411,-0.0246,-21.15,-32.25,7.7438,,adl
6.301925,0.131,0.1875,-0.9496,0.1511,-0.0411,-0.0246,-21.0563,-32.1938,8.5688,,adl
6.318896,0.1391,0.2144,-0.9051,0.1511,-0.0411,-0.0246,-21.0563,-32.1938,8.5688,,adl
6.332879,0.1391,0.2144,-0.9051,0.1511,-0.0411,-0.0246,-21.0563,-32.1938,8.5688,,adl
6.337824,0.1368,0.0131,-0.3985,0.1511,-0.0411,-0.0246,-21.0563,-32.1938,8.5688,,adl
6.343722,0.1368,0.0131,-0.3985,-0.2215,0.2815,-0.0246,-21.0563,-32.1938,8.5688,,adl
6.356088,-0.0897,-0.0368,0.13,-0.2215,0.2815,-0.0246,-21.0563,-32.1938,8.5688,,adl
6.3638,-0.0897,-0.0368,0.13,-0.2215,0.2815,-0.0246,-21.15,-32.1562,7.7438,,adl
6.377137,-0.1193,-0.1211,0.6268,-0.2215,0.2815,-0.0246,-21.15,-32.1562,7.7438,,adl
6.381672,-0.1193,-0.1211,0.6268,-0.2215,0.2815,-0.0246,-21.15,-32.1562,7.7438,,adl
6.395522,-0.046,-0.4712,1.0388,-0.2215,0.2815,-0.0246,-21.15,-32.1562,7.7438,,adl
6.404203,-0.046,-0.4712,1.0388,0.0388,-0.0644,-0.0319,-21.15,-32.1562,7.7438,,adl
6.414082,0.1255,-0.3575,1.0586,0.0388,-0.0644,-0.0319,-21.15,-32.1562,7.7438,,adl
6.422919,0.1255,-0.3575,1.0586,0.0388,-0.0644,-0.0319,-20.9625,-31.9313,7.425,,adl
6.428237,0.1255,-0.3575,1.0586,0.0388,-0.0644,-0.0319,-20.9625,-31.9313,7.425,,adl
6.432823,-0.0067,-0.3476,0.6304,0.0388,-0.0644,-0.0319,-20.9625,-31.9313,7.425,,adl
6.452929,-0.051,-0.0444,0.2471,0.0388,-0.0644,-0.0319,-20.9625,-31.9313,7.425,,adl
6.466134,-0.051,-0.0444,0.2471,0.3271,-0.3514,-0.0491,-20.9625,-31.9313,7.425,,adl
6.471936,-0.109,0.2006,-0.5145,0.3271,-0.3514,-0.0491,-20.9625,-31.9313,7.425,,adl
6.478286,-0.109,0.2006,-0.5145,0.3271,-0.3514,-0.0491,-20.9625,-31.9313,7.425,,adl
6.482471,-0.109,0.2006,-0.5145,0.3271,-0.3514,-0.0491,-20.7563,-32.3063,8.5688,,adl
6.490686,-0.1916,0.3604,-0.4911,0.3271,-0.3514,-0.0491,-20.7563,-32.3063,8.5688,,adl
6.509706,0.0186,0.1222,-0.6951,0.3271,-0.3514,-0.0491,-20.7563,-32.3063,8.5688,,adl
6.524231,0.0186,0.1222,-0.6951,0.3271,-0.3514,-0.0491,-20.7563,-32.3063,8.5688,,adl
6.528156,0.0186,0.1222,-0.6951,0.0093,-0.1523,0.0071,-20.7563,-32.3063,8.5688,,adl
6.530019,0.1533,0.1219,-0.3347,0.0093,-0.1523,0.0071,-20.7563,-32.3063,8.5688,,adl
6.543598,0.1533,0.1219,-0.3347,0.0093,-0.1523,0.0071,-21.0563,-32.2125,8.775,,adl
6.548458,0.0521,-0.0425,-0.363,0.0093,-0.1523,0.0071,-21.0563,-32.2125,8.775,,adl
6.567198,-0.0333,0.0211,-0.1195,0.0093,-0.1523,0.0071,-21.0563,-32.2125,8.775,,adl
6.571462,-0.0333,0.0211,-0.1195,0.0093,-0.1523,0.0071,-21.0563,-32.2125,8.775,,adl
6.589835,-0.0127,0.0058,-0.0516,0.0093,-0.1523,0.0071,-21.0563,-32.2125,8.775,,adl
6.593442,-0.0127,0.0058,-0.0516,-0.0187,0.0261,0.0071,-21.0563,-32.2125,8.775,,adl
6.60165,-0.0127,0.0058,-0.0516,-0.0187,0.0261,0.0071,-20.4938,-31.95,8.9625,,adl
6.605153,-0.03,-0.0738,0.1358,-0.0187,0.0261,0.0071,-20.4938,-31.95,8.9625,,adl
6.620008,-0.03,-0.0738,0.1358,-0.0187,0.0261,0.0071,-20.4938,-31.95,8.9625,,adl
6.624707,0.0338,-0.0178,0.1821,-0.0187,0.0261,0.0071,-20.4938,-31.95,8.9625,,adl
6.644578,0.0112,0.0185,0.0921,-0.0187,0.0261,0.0071,-20.4938,-31.95,8.9625,,adl
6.655034,0.0112,0.0185,0.0921,0.0033,-0.0606,0.0023,-20.4938,-31.95,8.9625,,adl
6.66432,0.0244,-0.0061,-0.0744,0.0033,-0.0606,0.0023,-20.4938,-31.95,8.9625,,adl
6.667034,0.0244,-0.0061,-0.0744,0.0033,-0.0606,0.0023,-20.6625,-32.4375,9.075,,adl
6.667761,0.0244,-0.0061,-0.0744,0.0033,-0.0606,0.0023,-20.6625,-32.4375,9.075,,adl
6.682669,-0.0151,-0.0178,-0.1809,0.0033,-0.0606,0.0023,-20.6625,-32.4375,9.075,,adl
6.701674,-0.0268,0.0266,-0.2649,0.0033,-0.0606,0.0023,-20.6625,-32.4375,9.075,,adl
6.715146,-0.0268,0.0266,-0.2649,0.0033,-0.0606,0.0023,-20.6625,-32.4375,9.075,,adl
6.718566,-0.0268,0.0266,-0.2649,-0.0432,0.0224,0.0084,-20.6625,-32.4375,9.075,,adl
6.720715,-0.0366,0.0364,-0.2791,-0.0432,0.0224,0.0084,-20.6625,-32.4375,9.075,,adl
6.723006,-0.0366,0.0364,-0.2791,-0.0432,0.0224,0.0084,-20.85,-32.5312,9.075,,adl
6.740208,-0.0049,0.0034,-0.1,-0.0432,0.0224,0.0084,-20.85,-32.5312,9.075,,adl
6.758721,-0.0534,-0.0326,0.0922,-0.0432,0.0224,0.0084,-20.85,-32.5312,9.075,,adl
6.762099,-0.0534,-0.0326,0.0922,-0.0432,0.0224,0.0084,-20.85,-32.5312,9.075,,adl
6.776488,-0.0534,-0.0326,0.0922,-0.048,0.0591,0.0157,-20.85,-32.5312,9.075,,adl
6.778126,-0.0463,-0.0327,0.2169,-0.048,0.0591,0.0157,-20.85,-32.5312,9.075,,adl
6.782907,-0.0463,-0.0327,0.2169,-0.048,0.0591,0.0157,-20.5875,-32.1188,8.7563,,adl
6.797285,-0.0035,-0.0566,0.1647,-0.048,0.0591,0.0157,-20.5875,-32.1188,8.7563,,adl
6.811139,-0.0035,-0.0566,0.1647,-0.048,0.0591,0.0157,-20.5875,-32.1188,8.7563,,adl
6.816222,-0.0419,-0.0371,0.0882,-0.048,0.0591,0.0157,-20.5875,-32.1188,8.7563,,adl
6.835348,-0.038,-0.0288,-0.0306,-0.048,0.0591,0.0157,-20.5875,-32.1188,8.7563,,adl
6.839165,-0.038,-0.0288,-0.0306,-0.0187,-0.0143,0.0059,-20.5875,-32.1188,8.7563,,adl
6.844895,-0.038,-0.0288,-0.0306,-0.0187,-0.0143,0.0059,-20.6625,-32.3063,8.55,,adl
6.8541,0.0005,-0.0206,-0.0739,-0.0187,-0.0143,0.0059,-20.6625,-32.3063,8.55,,adl
6.857992,0.0005,-0.0206,-0.0739,-0.0187,-0.0143,0.0059,-20.6625,-32.3063,8.55,,adl
6.873576,-0.0141,-0.0217,-0.0281,-0.0187,-0.0143,0.0059,-20.6625,-32.3063,8.55,,adl
6.893212,-0.0055,-0.0282,-0.0198,-0.0187,-0.0143,0.0059,-20.6625,-32.3063,8.55,,adl
6.901188,-0.0055,-0.0282,-0.0198,-0.0199,0.0102,0.0011,-20.6625,-32.3063,8.55,,adl
6.904123,-0.0055,-0.0282,-0.0198,-0.0199,0.0102,0.0011,-21.0563,-32.4,8.5688,,adl
6.90679,-0.0055,-0.0282,-0.0198,-0.0199,0.0102,0.0011,-21.0563,-32.4,8.5688,,adl
6.911521,-0.0423,-0.0159,0.0194,-0.0199,0.0102,0.0011,-21.0563,-32.4,8.5688,,adl
6.930998,-0.0122,-0.0204,0.0515,-0.0199,0.0102,0.0011,-21.0563,-32.4,8.5688,,adl
6.950475,-0.0117,-0.0211,-0.0112,-0.0199,0.0102,0.0011,-21.0563,-32.4,8.5688,,adl
6.953703,-0.0117,-0.0211,-0.0112,-0.0199,0.0102,0.0011,-21.0563,-32.4,8.5688,,adl
6.96475,-0.0117,-0.0211,-0.0112,-0.0199,0.0102,0.0011,-20.9625,-32.2313,8.8875,,adl
6.966391,-0.0117,-0.0211,-0.0112,-0.015,-0.0008,0.0011,-20.9625,-32.2313,8.8875,,adl
6.968875,-0.0167,-0.0313,-0.0205,-0.015,-0.0008,0.0011,-20.9625,-32.2313,8.8875,,adl
6.987983,0.0164,-0.029,-0.0272,-0.015,-0.0008,0.0011,-20.9625,-32.2313,8.8875,,adl
7.002006,0.0164,-0.029,-0.0272,-0.015,-0.0008,0.0011,-20.9625,-32.2313,8.8875,,adl
7.00965,-0.0057,0.0011,-0.0219,-0.015,-0.0008,0.0011,-20.9625,-32.2313,8.8875,,adl
7.022905,-0.0057,0.0011,-0.0219,-0.015,-0.0008,0.0011,-21.15,-32.3063,8.6813,,adl
7.026126,-0.0057,0.0011,-0.0219,-0.0212,-0.0033,-0.0001,-21.15,-32.3063,8.6813,,adl
7.027852,-0.0158,-0.0208,-0.0214,-0.0212,-0.0033,-0.0001,-21.15,-32.3063,8.6813,,adl
7.045109,-0.0211,-0.0257,0.0079,-0.0212,-0.0033,-0.0001,-21.15,-32.3063,8.6813,,adl
7.049382,-0.0211,-0.0257,0.0079,-0.0212,-0.0033,-0.0001,-21.15,-32.3063,8.6813,,adl
7.064505,-0.0324,-0.0352,0.0312,-0.0212,-0.0033,-0.0001,-21.15,-32.3063,8.6813,,adl
7.083768,-0.0192,-0.0264,0.0085,-0.0212,-0.0033,-0.0001,-21.15,-32.3063,8.6813,,adl
7.085091,-0.0192,-0.0264,0.0085,-0.0212,-0.0033,-0.0001,-21.3563,-32.0813,8.2688,,adl
7.087305,-0.0192,-0.0264,0.0085,-0.0114,0.0004,-0.0001,-21.3563,-32.0813,8.2688,,adl
7.097776,-0.0192,-0.0264,0.0085,-0.0114,0.0004,-0.0001,-21.3563,-32.0813,8.2688,,adl
7.103106,0.0044,-0.0154,-0.0151,-0.0114,0.0004,-0.0001,-21.3563,-32.0813,8.2688,,adl
7.121626,-0.0001,-0.0446,0.0398,-0.0114,0.0004,-0.0001,-21.3563,-32.0813,8.2688,,adl
7.141308,-0.0533,-0.0229,-0.0411,-0.0114,0.0004,-0.0001,-21.3563,-32.0813,8.2688,,adl
7.143076,-0.0533,-0.0229,-0.0411,-0.0114,0.0004,-0.0001,-20.85,-32.5312,8.9813,,adl
7.144199,-0.0533,-0.0229,-0.0411,-0.0114,0.0004,-0.0001,-20.85,-32.5312,8.9813,,adl
7.150455,-0.0533,-0.0229,-0.0411,-0.0065,-0.0056,-0.0026,-20.85,-32.5312,8.9813,,adl
7.16011,-0.0088,-0.0083,-0.033,-0.0065,-0.0056,-0.0026,-20.85,-32.5312,8.9813,,adl
7.180115,0.0126,-0.0377,0.0127,-0.0065,-0.0056,-0.0026,-20.85,-32.5312,8.9813,,adl
7.19354,0.0126,-0.0377,0.0127,-0.0065,-0.0056,-0.0026,-20.85,-32.5312,8.9813,,adl
7.198812,-0.0347,-0.0199,0.0193,-0.0065,-0.0056,-0.0026,-20.85,-32.5312,8.9813,,adl
7.204454,-0.0347,-0.0199,0.0193,-0.0065,-0.0056,-0.0026,-20.775,-32.1188,8.6625,,adl
7.211186,-0.0347,-0.0199,0.0193,-0.0052,0.0041,-0.0001,-20.775,-32.1188,8.6625,,adl
7.217509,-0.015,-0.0055,-0.0124,-0.0052,0.0041,-0.0001,-20.775,-32.1188,8.6625,,adl
7.235855,-0.0214,-0.0239,-0.0083,-0.0052,0.0041,-0.0001,-20.775,-32.1188,8.6625,,adl
7.241598,-0.0214,-0.0239,-0.0083,-0.0052,0.0041,-0.0001,-20.775,-32.1188,8.6625,,adl
7.256104,-0.02,-0.0158,-0.0264,-0.0052,0.0041,-0.0001,-20.775,-32.1188,8.6625,,adl
7.263119,-0.02,-0.0158,-0.0264,-0.0052,0.0041,-0.0001,-20.3625,-32.4188,8.55,,adl
7.273858,-0.02,-0.0158,-0.0264,-0.0065,0.0089,0.0022,-20.3625,-32.4188,8.55,,adl
7.274984,-0.0021,-0.0196,-0.0276,-0.0065,0.0089,0.0022,-20.3625,-32.4188,8.55,,adl
7.288583,-0.0021,-0.0196,-0.0276,-0.0065,0.0089,0.0022,-20.3625,-32.4188,8.55,,adl
7.294854,-0.0081,-0.0158,0.0001,-0.0065,0.0089,0.0022,-20.3625,-32.4188,8.55,,adl
7.313835,-0.0072,-0.029,-0.0008,-0.0065,0.0089,0.0022,-20.3625,-32.4188,8.55,,adl
7.324289,-0.0072,-0.029,-0.0008,-0.0065,0.0089,0.0022,-21.15,-32.3063,8.5688,,adl
7.332493,-0.0046,-0.0279,0.0037,-0.0065,0.0089,0.0022,-21.15,-32.3063,8.5688,,adl
7.335552,-0.0046,-0.0279,0.0037,-0.0065,0.0089,0.0022,-21.15,-32.3063,8.5688,,adl
7.337698,-0.0046,-0.0279,0.0037,-0.0102,-0.0021,-0.0026,-21.15,-32.3063,8.5688,,adl
7.351567,-0.0285,-0.0101,-0.0011,-0.0102,-0.0021,-0.0026,-21.15,-32.3063,8.5688,,adl
7.370086,-0.0076,-0.0587,-0.0171,-0.0102,-0.0021,-0.0026,-21.15,-32.3063,8.5688,,adl
7.381896,-0.0076,-0.0587,-0.0171,-0.0102,-0.0021,-0.0026,-21.15,-32.175,8.0438,,adl
7.384674,-0.0076,-0.0587,-0.0171,-0.0102,-0.0021,-0.0026,-21.15,-32.175,8.0438,,adl
7.389123,-0.0272,-0.0147,0.0001,-0.0102,-0.0021,-0.0026,-21.15,-32.175,8.0438,,adl
7.397826,-0.0272,-0.0147,0.0001,-0.0102,-0.0056,-0.0026,-21.15,-32.175,8.0438,,adl
7.409499,-0.0155,-0.0116,0.0147,-0.0102,-0.0056,-0.0026,-21.15,-32.175,8.0438,,adl
7.428314,-0.0152,0.0045,-0.0311,-0.0102,-0.0056,-0.0026,-21.15,-32.175,8.0438,,adl
7.432227,-0.0152,0.0045,-0.0311,-0.0102,-0.0056,-0.0026,-21.15,-32.175,8.0438,,adl
7.443059,-0.0152,0.0045,-0.0311,-0.0102,-0.0056,-0.0026,-20.8688,-32.3063,8.5688,,adl
7.447713,-0.0133,0.0086,-0.0785,-0.0102,-0.0056,-0.0026,-20.8688,-32.3063,8.5688,,adl
7.460927,-0.0133,0.0086,-0.0785,-0.0175,0.0054,0.0022,-20.8688,-32.3063,8.5688,,adl
7.466432,0.0185,-0.0645,0.0621,-0.0175,0.0054,0.0022,-20.8688,-32.3063,8.5688,,adl
7.480734,0.0185,-0.0645,0.0621,-0.0175,0.0054,0.0022,-20.8688,-32.3063,8.5688,,adl
7.487725,-0.0743,-0.0689,-0.0271,-0.0175,0.0054,0.0022,-20.8688,-32.3063,8.5688,,adl
7.502969,-0.0743,-0.0689,-0.0271,-0.0175,0.0054,0.0022,-21.2625,-32.1188,9.0,,adl
7.506695,0.0268,-0.0595,0.0419,-0.0175,0.0054,0.0022,-21.2625,-32.1188,9.0,,adl
7.522724,0.0268,-0.0595,0.0419,-0.0052,-0.0033,-0.0051,-21.2625,-32.1188,9.0,,adl
7.523261,-0.0213,-0.0061,0.0014,-0.0052,-0.0033,-0.0051,-21.2625,-32.1188,9.0,,adl
7.527471,-0.0213,-0.0061,0.0014,-0.0052,-0.0033,-0.0051,-21.2625,-32.1188,9.0,,adl
7.542742,-0.0551,-0.0073,-0.0176,-0.0052,-0.0033,-0.0051,-21.2625,-32.1188,9.0,,adl
7.562488,-0.0633,-0.0396,-0.0285,-0.0052,-0.0033,-0.0051,-21.2625,-32.1188,9.0,,adl
7.565378,-0.0633,-0.0396,-0.0285,-0.0052,-0.0033,-0.0051,-20.9625,-32.3063,8.4563,,adl
7.575661,-0.0633,-0.0396,-0.0285,-0.0052,-0.0033,-0.0051,-20.9625,-32.3063,8.4563,,adl
7.581372,0.033,-0.0312,-0.0842,-0.0052,-0.0033,-0.0051,-20.9625,-32.3063,8.4563,,adl
7.584934,0.033,-0.0312,-0.0842,-0.0052,-0.0008,0.0034,-20.9625,-32.3063,8.4563,,adl
7.600291,0.0349,-0.0006,-0.0526,-0.0052,-0.0008,0.0034,-20.9625,-32.3063,8.4563,,adl
7.619839,-0.0361,-0.0488,0.0041,-0.0052,-0.0008,0.0034,-20.9625,-32.3063,8.4563,,adl
7.623429,-0.0361,-0.0488,0.0041,-0.0052,-0.0008,0.0034,-20.9625,-31.9688,8.0438,,adl
7.6254,-0.0361,-0.0488,0.0041,-0.0052,-0.0008,0.0034,-20.9625,-31.9688,8.0438,,adl
7.637605,-0.0256,-0.0746,0.0175,-0.0052,-0.0008,0.0034,-20.9625,-31.9688,8.0438,,adl
7.647494,-0.0256,-0.0746,0.0175,-0.0102,0.0029,0.0034,-20.9625,-31.9688,8.0438,,adl
7.657172,-0.0247,-0.0476,0.0406,-0.0102,0.0029,0.0034,-20.9625,-31.9688,8.0438,,adl
7.671094,-0.0247,-0.0476,0.0406,-0.0102,0.0029,0.0034,-20.9625,-31.9688,8.0438,,adl
7.676071,0.0165,-0.069,0.0257,-0.0102,0.0029,0.0034,-20.9625,-31.9688,8.0438,,adl
7.682529,0.0165,-0.069,0.0257,-0.0102,0.0029,0.0034,-20.9438,-32.475,8.1562,,adl
7.697302,0.0016,-0.044,-0.0241,-0.0102,0.0029,0.0034,-20.9438,-32.475,8.1562,,adl
7.709598,0.0016,-0.044,-0.0241,-0.0027,-0.0033,-0.0026,-20.9438,-32.475,8.1562,,adl
7.715315,-0.0179,-0.043,0.0026,-0.0027,-0.0033,-0.0026,-20.9438,-32.475,8.1562,,adl
7.720875,-0.0179,-0.043,0.0026,-0.0027,-0.0033,-0.0026,-20.9438,-32.475,8.1562,,adl
7.733664,-0.0167,-0.0422,0.0253,-0.0027,-0.0033,-0.0026,-20.9438,-32.475,8.1562,,adl
7.742491,-0.0167,-0.0422,0.0253,-0.0027,-0.0033,-0.0026,-21.2438,-32.2875,8.475,,adl
7.754041,-0.0953,0.0115,-0.0302,-0.0027,-0.0033,-0.0026,-21.2438,-32.2875,8.475,,adl
7.766337,-0.0953,0.0115,-0.0302,-0.0027,-0.0033,-0.0026,-21.2438,-32.2875,8.475,,adl
7.771083,-0.0953,0.0115,-0.0302,-0.0102,-0.0191,0.0071,-21.2438,-32.2875,8.475,,adl
7.772086,0.0557,-0.0714,0.0246,-0.0102,-0.0191,0.0071,-21.2438,-32.2875,8.475,,adl
7.791453,0.02,-0.0589,-0.0402,-0.0102,-0.0191,0.0071,-21.2438,-32.2875,8.475,,adl
7.802695,0.02,-0.0589,-0.0402,-0.0102,-0.0191,0.0071,-21.15,-32.475,8.3625,,adl
7.81072,-0.0139,-0.026,-0.0518,-0.0102,-0.0191,0.0071,-21.15,-32.475,8.3625,,adl
7.814525,-0.0139,-0.026,-0.0518,-0.0102,-0.0191,0.0071,-21.15,-32.475,8.3625,,adl
7.829712,-0.0165,-0.0262,-0.0659,-0.0102,-0.0191,0.0071,-21.15,-32.475,8.3625,,adl
7.833588,-0.0165,-0.0262,-0.0659,-0.0089,0.0054,-0.0026,-21.15,-32.475,8.3625,,adl
7.848811,-0.0031,-0.1063,0.0045,-0.0089,0.0054,-0.0026,-21.15,-32.475,8.3625,,adl
7.86307,-0.0031,-0.1063,0.0045,-0.0089,0.0054,-0.0026,-21.15,-32.475,8.3625,,adl
7.866075,-0.0031,-0.1063,0.0045,-0.0089,0.0054,-0.0026,-20.9438,-32.5125,8.775,,adl
7.867225,0.0255,-0.0789,0.0334,-0.0089,0.0054,-0.0026,-20.9438,-32.5125,8.775,,adl
7.887178,-0.0111,-0.027,0.0125,-0.0089,0.0054,-0.0026,-20.9438,-32.5125,8.775,,adl
7.899841,-0.0111,-0.027,0.0125,-0.0004,0.0041,-0.0038,-20.9438,-32.5125,8.775,,adl
7.906343,-0.0294,-0.0374,0.0116,-0.0004,0.0041,-0.0038,-20.9438,-32.5125,8.775,,adl
7.911019,-0.0294,-0.0374,0.0116,-0.0004,0.0041,-0.0038,-20.9438,-32.5125,8.775,,adl
7.922634,-0.0294,-0.0374,0.0116,-0.0004,0.0041,-0.0038,-20.775,-31.9875,8.25,,adl
7.925627,-0.0221,-0.0357,-0.0196,-0.0004,0.0041,-0.0038,-20.775,-31.9875,8.25,,adl
7.944837,-0.0051,-0.0573,-0.0342,-0.0004,0.0041,-0.0038,-20.775,-31.9875,8.25,,adl
7.958589,-0.0051,-0.0573,-0.0342,-0.0004,0.0041,-0.0038,-20.775,-31.9875,8.25,,adl
7.961305,-0.0051,-0.0573,-0.0342,-0.0016,0.0065,0.0011,-20.775,-31.9875,8.25,,adl
7.963674,-0.0071,-0.0333,-0.0203,-0.0016,0.0065,0.0011,-20.775,-31.9875,8.25,,adl
7.98211,-0.0034,-0.0595,-0.0143,-0.0016,0.0065,0.0011,-20.775,-31.9875,8.25,,adl
7.983796,-0.0034,-0.0595,-0.0143,-0.0016,0.0065,0.0011,-21.0375,-32.7,8.6625,,adl
8.001642,0.0003,-0.0474,-0.0012,-0.0016,0.0065,0.0011,-21.0375,-32.7,8.6625,,adl
8.005647,0.0003,-0.0474,-0.0012,-0.0016,0.0065,0.0011,-21.0375,-32.7,8.6625,,adl
8.019228,0.0003,-0.0474,-0.0012,-0.0027,0.0041,0.0011,-21.0375,-32.7,8.6625,,adl
8.020578,-0.0084,-0.0595,0.0002,-0.0027,0.0041,0.0011,-21.0375,-32.7,8.6625,,adl
8.040261,-0.0172,-0.0449,-0.0076,-0.0027,0.0041,0.0011,-21.0375,-32.7,8.6625,,adl
8.044649,-0.0172,-0.0449,-0.0076,-0.0027,0.0041,0.0011,-20.8688,-32.1938,8.4563,,adl
8.054899,-0.0172,-0.0449,-0.0076,-0.0027,0.0041,0.0011,-20.8688,-32.1938,8.4563,,adl
8.060074,-0.01,-0.073,-0.0029,-0.0027,0.0041,0.0011,-20.8688,-32.1938,8.4563,,adl
8.078844,0.0019,-0.0635,-0.0004,-0.0027,0.0041,0.0011,-20.8688,-32.1938,8.4563,,adl
8.082145,0.0019,-0.0635,-0.0004,0.0021,-0.0033,-0.0014,-20.8688,-32.1938,8.4563,,adl
8.098373,-0.0106,-0.052,-0.019,0.0021,-0.0033,-0.0014,-20.8688,-32.1938,8.4563,,adl
8.101505,-0.0106,-0.052,-0.019,0.0021,-0.0033,-0.0014,-20.8688,-32.1938,8.4563,,adl
8.103578,-0.0106,-0.052,-0.019,0.0021,-0.0033,-0.0014,-20.8688,-32.1,8.4563,,adl
8.116747,-0.0089,-0.0592,0.0103,0.0021,-0.0033,-0.0014,-20.8688,-32.1,8.4563,,adl
8.135335,-0.0307,-0.0527,-0.0014,0.0021,-0.0033,-0.0014,-20.8688,-32.1,8.4563,,adl
8.145064,-0.0307,-0.0527,-0.0014,0.0033,-0.0118,-0.0076,-20.8688,-32.1,8.4563,,adl
8.148875,-0.0307,-0.0527,-0.0014,0.0033,-0.0118,-0.0076,-20.8688,-32.1,8.4563,,adl
8.154132,-0.0191,-0.0254,-0.013,0.0033,-0.0118,-0.0076,-20.8688,-32.1,8.4563,,adl
8.16145,-0.0191,-0.0254,-0.013,0.0033,-0.0118,-0.0076,-20.775,-32.2125,8.4563,,adl
8.1734,-0.0078,-0.0569,-0.0004,0.0033,-0.0118,-0.0076,-20.775,-32.2125,8.4563,,adl
8.193067,0.01,-0.0499,-0.0182,0.0033,-0.0118,-0.0076,-20.775,-32.2125,8.4563,,adl
8.199278,0.01,-0.0499,-0.0182,0.0033,-0.0118,-0.0076,-20.775,-32.2125,8.4563,,adl
8.206671,0.01,-0.0499,-0.0182,0.0021,-0.0143,-0.0026,-20.775,-32.2125,8.4563,,adl
8.21461,0.0014,-0.0622,-0.0384,0.0021,-0.0143,-0.0026,-20.775,-32.2125,8.4563,,adl
8.222041,0.0014,-0.0622,-0.0384,0.0021,-0.0143,-0.0026,-21.45,-32.175,8.3813,,adl
8.231523,-0.0182,-0.0483,-0.0571,0.0021,-0.0143,-0.0026,-21.45,-32.175,8.3813,,adl
8.24494,-0.0182,-0.0483,-0.0571,0.0021,-0.0143,-0.0026,-21.45,-32.175,8.3813,,adl
8.249702,0.0086,-0.048,-0.0336,0.0021,-0.0143,-0.0026,-21.45,-32.175,8.3813,,adl
8.268496,0.0086,-0.048,-0.0336,-0.0004,-0.0008,-0.0014,-21.45,-32.175,8.3813,,adl
8.269921,-0.0028,-0.069,-0.0246,-0.0004,-0.0008,-0.0014,-21.45,-32.175,8.3813,,adl
8.281717,-0.0028,-0.069,-0.0246,-0.0004,-0.0008,-0.0014,-20.7563,-32.1938,8.1375,,adl
8.288519,-0.038,-0.0475,0.0035,-0.0004,-0.0008,-0.0014,-20.7563,-32.1938,8.1375,,adl
8.292228,-0.038,-0.0475,0.0035,-0.0004,-0.0008,-0.0014,-20.7563,-32.1938,8.1375,,adl
8.307162,-0.0311,-0.0333,0.0037,-0.0004,-0.0008,-0.0014,-20.7563,-32.1938,8.1375,,adl
8.327073,0.0039,-0.0406,-0.0648,-0.0004,-0.0008,-0.0014,-20.7563,-32.1938,8.1375,,adl
8.330961,0.0039,-0.0406,-0.0648,0.0008,-0.0093,0.001,-20.7563,-32.1938,8.1375,,adl
8.340904,0.0039,-0.0406,-0.0648,0.0008,-0.0093,0.001,-20.7563,-32.1938,8.1375,,adl
8.343455,0.0039,-0.0406,-0.0648,0.0008,-0.0093,0.001,-20.775,-32.2313,8.8688,,adl
8.345794,0.0155,-0.0709,-0.0692,0.0008,-0.0093,0.001,-20.775,-32.2313,8.8688,,adl
8.365046,-0.0005,-0.0579,-0.022,0.0008,-0.0093,0.001,-20.775,-32.2313,8.8688,,adl
8.384454,0.015,-0.0481,-0.0184,0.0008,-0.0093,0.001,-20.775,-32.2313,8.8688,,adl
8.387832,0.015,-0.0481,-0.0184,0.0008,-0.0093,0.001,-20.775,-32.2313,8.8688,,adl
8.392275,0.015,-0.0481,-0.0184,-0.0027,0.0004,-0.0063,-20.775,-32.2313,8.8688,,adl
8.4038,0.0011,-0.0382,0.0123,-0.0027,0.0004,-0.0063,-20.775,-32.2313,8.8688,,adl
8.406947,0.0011,-0.0382,0.0123,-0.0027,0.0004,-0.0063,-20.1562,-32.8125,8.325,,adl
8.423002,-0.0469,-0.0093,-0.002,-0.0027,0.0004,-0.0063,-20.1562,-32.8125,8.325,,adl
8.436532,-0.0469,-0.0093,-0.002,-0.0027,0.0004,-0.0063,-20.1562,-32.8125,8.325,,adl
8.443724,0.0003,-0.0447,0.0107,-0.0027,0.0004,-0.0063,-20.1562,-32.8125,8.325,,adl
8.455869,0.0003,-0.0447,0.0107,-0.0004,-0.0131,-0.0014,-20.1562,-32.8125,8.325,,adl
8.460775,0.0005,-0.0275,-0.0637,-0.0004,-0.0131,-0.0014,-20.1562,-32.8125,8.325,,adl
8.461715,0.0005,-0.0275,-0.0637,-0.0004,-0.0131,-0.0014,-20.6625,-32.3063,8.55,,adl
8.479628,0.0128,-0.0411,-0.0832,-0.0004,-0.0131,-0.0014,-20.6625,-32.3063,8.55,,adl
8.484284,0.0128,-0.0411,-0.0832,-0.0004,-0.0131,-0.0014,-20.6625,-32.3063,8.55,,adl
8.499674,-0.0089,-0.0326,-0.0088,-0.0004,-0.0131,-0.0014,-20.6625,-32.3063,8.55,,adl
8.517433,-0.0089,-0.0326,-0.0088,-0.004,0.0065,0.0047,-20.6625,-32.3063,8.55,,adl
8.520898,-0.0063,-0.0385,-0.0546,-0.004,0.0065,0.0047,-20.6625,-32.3063,8.55,,adl
8.522998,-0.0063,-0.0385,-0.0546,-0.004,0.0065,0.0047,-21.0563,-32.1562,7.8375,,adl
8.531483,-0.0063,-0.0385,-0.0546,-0.004,0.0065,0.0047,-21.0563,-32.1562,7.8375,,adl
8.537022,-0.0299,-0.0272,-0.0213,-0.004,0.0065,0.0047,-21.0563,-32.1562,7.8375,,adl
8.556495,0.0393,-0.079,0.0245,-0.004,0.0065,0.0047,-21.0563,-32.1562,7.8375,,adl
8.575636,0.0168,-0.049,0.0039,-0.004,0.0065,0.0047,-21.0563,-32.1562,7.8375,,adl
8.579391,0.0168,-0.049,0.0039,-0.004,0.0065,0.0047,-21.0563,-32.1562,7.8375,,adl
8.580141,0.0168,-0.049,0.0039,0.0008,-0.0081,-0.0026,-21.0563,-32.1562,7.8375,,adl
8.581495,0.0168,-0.049,0.0039,0.0008,-0.0081,-0.0026,-20.775,-32.1938,8.3625,,adl
8.59425,0.0413,-0.0562,-0.0446,0.0008,-0.0081,-0.0026,-20.775,-32.1938,8.3625,,adl
8.613661,-0.0321,-0.0254,-0.0262,0.0008,-0.0081,-0.0026,-20.775,-32.1938,8.3625,,adl
8.627475,-0.0321,-0.0254,-0.0262,0.0008,-0.0081,-0.0026,-20.775,-32.1938,8.3625,,adl
8.632782,-0.0114,0.0048,-0.0542,0.0008,-0.0081,-0.0026,-20.775,-32.1938,8.3625,,adl
8.642297,-0.0114,0.0048,-0.0542,0.0021,-0.0008,0.001,-20.775,-32.1938,8.3625,,adl
8.643656,-0.0114,0.0048,-0.0542,0.0021,-0.0008,0.001,-20.8688,-31.8938,8.4563,,adl
8.651981,-0.024,-0.0144,-0.0775,0.0021,-0.0008,0.001,-20.8688,-31.8938,8.4563,,adl
8.671209,0.027,-0.0607,-0.047,0.0021,-0.0008,0.001,-20.8688,-31.8938,8.4563,,adl
8.67557,0.027,-0.0607,-0.047,0.0021,-0.0008,0.001,-20.8688,-31.8938,8.4563,,adl
8.690662,0.005,-0.0566,0.0085,0.0021,-0.0008,0.001,-20.8688,-31.8938,8.4563,,adl
8.702779,0.005,-0.0566,0.0085,0.0021,-0.0008,0.001,-20.8688,-32.0813,8.25,,adl
8.706001,0.005,-0.0566,0.0085,-0.0052,0.0089,-0.0063,-20.8688,-32.0813,8.25,,adl
8.711226,-0.0052,-0.0369,0.0308,-0.0052,0.0089,-0.0063,-20.8688,-32.0813,8.25,,adl
8.723866,-0.0052,-0.0369,0.0308,-0.0052,0.0089,-0.0063,-20.8688,-32.0813,8.25,,adl
8.729096,0.0354,-0.0627,0.0165,-0.0052,0.0089,-0.0063,-20.8688,-32.0813,8.25,,adl
8.748105,0.02,-0.0279,-0.028,-0.0052,0.0089,-0.0063,-20.8688,-32.0813,8.25,,adl
8.762353,0.02,-0.0279,-0.028,-0.0052,0.0089,-0.0063,-21.1313,-32.4563,7.95,,adl
8.765749,0.02,-0.0279,-0.028,0.0008,0.0016,-0.0063,-21.1313,-32.4563,7.95,,adl
8.76685,-0.0639,0.0085,-0.0638,0.0008,0.0016,-0.0063,-21.1313,-32.4563,7.95,,adl
8.77063,-0.0639,0.0085,-0.0638,0.0008,0.0016,-0.0063,-21.1313,-32.4563,7.95,,adl
8.786372,-0.0344,-0.015,-0.0575,0.0008,0.0016,-0.0063,-21.1313,-32.4563,7.95,,adl
8.805047,-0.0112,-0.0577,0.0009,0.0008,0.0016,-0.0063,-21.1313,-32.4563,7.95,,adl
8.81879,-0.0112,-0.0577,0.0009,0.0008,0.0016,-0.0063,-21.1313,-32.4563,7.95,,adl
8.824116,-0.0112,-0.0577,0.0009,0.0008,0.0016,-0.0063,-20.7563,-32.3813,8.25,,adl
8.825288,0.0024,-0.0411,0.04,0.0008,0.0016,-0.0063,-20.7563,-32.3813,8.25,,adl
8.827498,0.0024,-0.0411,0.04,-0.0027,0.0029,0.0034,-20.7563,-32.3813,8.25,,adl
8.842506,-0.0087,-0.0661,0.0248,-0.0027,0.0029,0.0034,-20.7563,-32.3813,8.25,,adl
8.862984,-0.0161,-0.042,-0.0301,-0.0027,0.0029,0.0034,-20.7563,-32.3813,8.25,,adl
8.867263,-0.0161,-0.042,-0.0301,-0.0027,0.0029,0.0034,-20.7563,-32.3813,8.25,,adl
8.880548,-0.0116,0.015,-0.0585,-0.0027,0.0029,0.0034,-20.7563,-32.3813,8.25,,adl
8.882384,-0.0116,0.015,-0.0585,-0.0027,0.0029,0.0034,-21.15,-32.2688,8.1562,,adl
8.890655,-0.0116,0.015,-0.0585,-0.0004,-0.0008,-0.0014,-21.15,-32.2688,8.1562,,adl
8.900902,-0.0091,-0.0159,-0.03,-0.0004,-0.0008,-0.0014,-21.15,-32.2688,8.1562,,adl
8.914984,-0.0091,-0.0159,-0.03,-0.0004,-0.0008,-0.0014,-21.15,-32.2688,8.1562,,adl
8.92151,-0.006,-0.0198,-0.0138,-0.0004,-0.0008,-0.0014,-21.15,-32.2688,8.1562,,adl
8.939336,0.0113,-0.0567,-0.0239,-0.0004,-0.0008,-0.0014,-21.15,-32.2688,8.1562,,adl
8.942971,0.0113,-0.0567,-0.0239,-0.0004,-0.0008,-0.0014,-21.0375,-32.4563,7.8375,,adl
8.955986,0.0113,-0.0567,-0.0239,-0.0004,0.0052,0.0022,-21.0375,-32.4563,7.8375,,adl
8.959442,0.0191,-0.0337,-0.0533,-0.0004,0.0052,0.0022,-21.0375,-32.4563,7.8375,,adl
8.962515,0.0191,-0.0337,-0.0533,-0.0004,0.0052,0.0022,-21.0375,-32.4563,7.8375,,adl
8.976656,-0.0346,-0.0138,-0.0259,-0.0004,0.0052,0.0022,-21.0375,-32.4563,7.8375,,adl
8.996124,-0.0,-0.0295,-0.0053,-0.0004,0.0052,0.0022,-21.0375,-32.4563,7.8375,,adl
9.002481,-0.0,-0.0295,-0.0053,-0.0004,0.0052,0.0022,-20.7563,-32.4,8.5688,,adl
9.01148,-0.0,-0.0295,-0.0053,-0.0004,0.0052,0.0022,-20.7563,-32.4,8.5688,,adl
9.01413,-0.0,-0.0295,-0.0053,-0.0027,-0.0033,0.001,-20.7563,-32.4,8.5688,,adl
9.016846,-0.0019,-0.0449,0.0134,-0.0027,-0.0033,0.001,-20.7563,-32.4,8.5688,,adl
9.033937,0.0124,-0.0322,-0.0177,-0.0027,-0.0033,0.001,-20.7563,-32.4,8.5688,,adl
9.054544,-0.0208,-0.0179,-0.0635,-0.0027,-0.0033,0.001,-20.7563,-32.4,8.5688,,adl
9.057653,-0.0208,-0.0179,-0.0635,-0.0027,-0.0033,0.001,-20.7563,-32.4,8.5688,,adl
9.065605,-0.0208,-0.0179,-0.0635,-0.0027,-0.0033,0.001,-21.2625,-32.175,8.3625,,adl
9.072975,0.0372,-0.0387,-0.0616,-0.0027,-0.0033,0.001,-21.2625,-32.175,8.3625,,adl
9.078825,0.0372,-0.0387,-0.0616,-0.0027,0.0126,-0.0014,-21.2625,-32.175,8.3625,,adl
9.092708,-0.0279,-0.0091,-0.042,-0.0027,0.0126,-0.0014,-21.2625,-32.175,8.3625,,adl
9.105735,-0.0279,-0.0091,-0.042,-0.0027,0.0126,-0.0014,-21.2625,-32.175,8.3625,,adl
9.111295,0.0149,-0.0204,0.023,-0.0027,0.0126,-0.0014,-21.2625,-32.175,8.3625,,adl
9.122723,0.0149,-0.0204,0.023,-0.0027,0.0126,-0.0014,-20.9625,-32.1,8.3625,,adl
9.130035,-0.0103,-0.0202,-0.0092,-0.0027,0.0126,-0.0014,-20.9625,-32.1,8.3625,,adl
9.139065,-0.0103,-0.0202,-0.0092,0.0008,0.0004,0.0022,-20.9625,-32.1,8.3625,,adl
9.149552,-0.0077,-0.015,-0.0286,0.0008,0.0004,0.0022,-20.9625,-32.1,8.3625,,adl
9.155456,-0.0077,-0.015,-0.0286,0.0008,0.0004,0.0022,-20.9625,-32.1,8.3625,,adl
9.168071,0.0039,-0.0544,-0.0306,0.0008,0.0004,0.0022,-20.9625,-32.1,8.3625,,adl
9.183146,0.0039,-0.0544,-0.0306,0.0008,0.0004,0.0022,-21.5438,-32.2688,8.3813,,adl
9.18753,0.0181,-0.03,-0.0352,0.0008,0.0004,0.0022,-21.5438,-32.2688,8.3813,,adl
9.201058,0.0181,-0.03,-0.0352,0.0008,0.0004,0.0022,-21.5438,-32.2688,8.3813,,adl
9.202458,0.0181,-0.03,-0.0352,-0.0016,-0.0008,-0.0026,-21.5438,-32.2688,8.3813,,adl
9.206322,0.0106,-0.0155,-0.0517,-0.0016,-0.0008,-0.0026,-21.5438,-32.2688,8.3813,,adl
9.225873,0.0006,-0.0223,-0.0153,-0.0016,-0.0008,-0.0026,-21.5438,-32.2688,8.3813,,adl
9.242145,0.0006,-0.0223,-0.0153,-0.0016,-0.0008,-0.0026,-20.55,-32.4938,8.1375,,adl
9.244592,-0.0259,0.0091,-0.0176,-0.0016,-0.0008,-0.0026,-20.55,-32.4938,8.1375,,adl
9.248332,-0.0259,0.0091,-0.0176,-0.0016,-0.0008,-0.0026,-20.55,-32.4938,8.1375,,adl
9.263051,-0.0259,0.0091,-0.0176,-0.0077,-0.0118,0.0047,-20.55,-32.4938,8.1375,,adl
9.264354,-0.0103,-0.0015,-0.0068,-0.0077,-0.0118,0.0047,-20.55,-32.4938,8.1375,,adl
9.283684,0.0446,-0.0279,-0.0473,-0.0077,-0.0118,0.0047,-20.55,-32.4938,8.1375,,adl
9.297307,0.0446,-0.0279,-0.0473,-0.0077,-0.0118,0.0047,-20.55,-32.4938,8.1375,,adl
9.303167,0.0111,-0.0024,-0.0569,-0.0077,-0.0118,0.0047,-20.55,-32.4938,8.1375,,adl
9.306083,0.0111,-0.0024,-0.0569,-0.0077,-0.0118,0.0047,-20.85,-32.4188,8.6625,,adl
9.321696,-0.0245,-0.032,-0.0142,-0.0077,-0.0118,0.0047,-20.85,-32.4188,8.6625,,adl
9.32448,-0.0245,-0.032,-0.0142,-0.0077,-0.0143,-0.0014,-20.85,-32.4188,8.6625,,adl
9.340777,-0.0338,0.0048,-0.0216,-0.0077,-0.0143,-0.0014,-20.85,-32.4188,8.6625,,adl
9.344979,-0.0338,0.0048,-0.0216,-0.0077,-0.0143,-0.0014,-20.85,-32.4188,8.6625,,adl
9.360457,-0.0238,0.0278,0.0163,-0.0077,-0.0143,-0.0014,-20.85,-32.4188,8.6625,,adl
9.363536,-0.0238,0.0278,0.0163,-0.0077,-0.0143,-0.0014,-21.0563,-32.175,8.25,,adl
9.378485,0.0499,-0.0333,0.0385,-0.0077,-0.0143,-0.0014,-21.0563,-32.175,8.25,,adl
9.387535,0.0499,-0.0333,0.0385,-0.0102,-0.0166,-0.0003,-21.0563,-32.175,8.25,,adl
9.393231,0.0499,-0.0333,0.0385,-0.0102,-0.0166,-0.0003,-21.0563,-32.175,8.25,,adl
9.397656,-0.003,-0.0459,-0.0283,-0.0102,-0.0166,-0.0003,-21.0563,-32.175,8.25,,adl
9.417464,0.0092,-0.0609,0.0337,-0.0102,-0.0166,-0.0003,-21.0563,-32.175,8.25,,adl
9.423295,0.0092,-0.0609,0.0337,-0.0102,-0.0166,-0.0003,-21.2438,-32.2688,8.1562,,adl
9.436042,-0.0084,-0.0263,0.0274,-0.0102,-0.0166,-0.0003,-21.2438,-32.2688,8.1562,,adl
9.439587,-0.0084,-0.0263,0.0274,-0.0102,-0.0166,-0.0003,-21.2438,-32.2688,8.1562,,adl
9.449839,-0.0084,-0.0263,0.0274,-0.0016,-0.0033,-0.0003,-21.2438,-32.2688,8.1562,,adl
9.454994,-0.0115,-0.0143,-0.0151,-0.0016,-0.0033,-0.0003,-21.2438,-32.2688,8.1562,,adl
9.47603,0.0236,-0.0141,-0.007,-0.0016,-0.0033,-0.0003,-21.2438,-32.2688,8.1562,,adl
9.484629,0.0236,-0.0141,-0.007,-0.0016,-0.0033,-0.0003,-20.85,-32.2688,7.9313,,adl
9.4872,0.0236,-0.0141,-0.007,-0.0016,-0.0033,-0.0003,-20.85,-32.2688,7.9313,,adl
9.493396,-0.0176,-0.0145,-0.0377,-0.0016,-0.0033,-0.0003,-20.85,-32.2688,7.9313,,adl
9.512014,-0.0176,-0.0145,-0.0377,-0.0027,0.0016,0.0022,-20.85,-32.2688,7.9313,,adl
9.515325,-0.0199,0.009,-0.0377,-0.0027,0.0016,0.0022,-20.85,-32.2688,7.9313,,adl
9.532499,0.0059,-0.021,-0.0325,-0.0027,0.0016,0.0022,-20.85,-32.2688,7.9313,,adl
9.535696,0.0059,-0.021,-0.0325,-0.0027,0.0016,0.0022,-20.85,-32.2688,7.9313,,adl
9.542749,0.0059,-0.021,-0.0325,-0.0027,0.0016,0.0022,-20.8688,-32.2125,8.775,,adl
9.550648,-0.0126,-0.0362,0.0101,-0.0027,0.0016,0.0022,-20.8688,-32.2125,8.775,,adl
9.570399,0.0041,-0.0426,-0.0018,-0.0027,0.0016,0.0022,-20.8688,-32.2125,8.775,,adl
9.576015,0.0041,-0.0426,-0.0018,-0.0004,0.0016,-0.0014,-20.8688,-32.2125,8.775,,adl
9.583427,0.0041,-0.0426,-0.0018,-0.0004,0.0016,-0.0014,-20.8688,-32.2125,8.775,,adl
9.588811,-0.0012,-0.0211,-0.0157,-0.0004,0.0016,-0.0014,-20.8688,-32.2125,8.775,,adl
9.602425,-0.0012,-0.0211,-0.0157,-0.0004,0.0016,-0.0014,-21.15,-32.4,8.775,,adl
9.610715,-0.0256,-0.0119,-0.0368,-0.0004,0.0016,-0.0014,-21.15,-32.4,8.775,,adl
9.628455,-0.0213,-0.0076,-0.0364,-0.0004,0.0016,-0.0014,-21.15,-32.4,8.775,,adl
9.631401,-0.0213,-0.0076,-0.0364,-0.0004,0.0016,-0.0014,-21.15,-32.4,8.775,,adl
9.635219,-0.0213,-0.0076,-0.0364,-0.0016,0.0004,0.0022,-21.15,-32.4,8.775,,adl
9.646794,-0.0119,-0.0097,-0.0385,-0.0016,0.0004,0.0022,-21.15,-32.4,8.775,,adl
9.663669,-0.0119,-0.0097,-0.0385,-0.0016,0.0004,0.0022,-20.7563,-32.3813,8.25,,adl
9.665138,-0.0212,-0.0302,-0.0388,-0.0016,0.0004,0.0022,-20.7563,-32.3813,8.25,,adl
9.679555,-0.0212,-0.0302,-0.0388,-0.0016,0.0004,0.0022,-20.7563,-32.3813,8.25,,adl
9.685307,-0.0156,-0.0104,-0.0132,-0.0016,0.0004,0.0022,-20.7563,-32.3813,8.25,,adl
9.697871,-0.0156,-0.0104,-0.0132,-0.004,0.0016,-0.0003,-20.7563,-32.3813,8.25,,adl
9.703782,0.0019,-0.0127,0.0172,-0.004,0.0016,-0.0003,-20.7563,-32.3813,8.25,,adl
9.723451,-0.0198,-0.025,0.0053,-0.004,0.0016,-0.0003,-20.7563,-32.3813,8.25,,adl
9.727152,-0.0198,-0.025,0.0053,-0.004,0.0016,-0.0003,-21.0563,-32.3813,8.1562,,adl
9.729135,-0.0198,-0.025,0.0053,-0.004,0.0016,-0.0003,-21.0563,-32.3813,8.1562,,adl
9.742113,-0.0058,-0.0251,-0.0063,-0.004,0.0016,-0.0003,-21.0563,-32.3813,8.1562,,adl
9.760683,-0.0058,-0.0251,-0.0063,0.0021,-0.0033,0.001,-21.0563,-32.3813,8.1562,,adl
9.76199,-0.0252,-0.035,-0.0443,0.0021,-0.0033,0.001,-21.0563,-32.3813,8.1562,,adl
9.775022,-0.0252,-0.035,-0.0443,0.0021,-0.0033,0.001,-21.0563,-32.3813,8.1562,,adl
9.780918,-0.0083,-0.0188,-0.0277,0.0021,-0.0033,0.001,-21.0563,-32.3813,8.1562,,adl
9.783311,-0.0083,-0.0188,-0.0277,0.0021,-0.0033,0.001,-20.475,-32.0063,8.3438,,adl
9.799659,-0.0146,-0.0285,-0.0143,0.0021,-0.0033,0.001,-20.475,-32.0063,8.3438,,adl
9.818638,-0.0013,-0.0357,0.0084,0.0021,-0.0033,0.001,-20.475,-32.0063,8.3438,,adl
9.822681,-0.0013,-0.0357,0.0084,0.0021,-0.0033,0.001,-20.475,-32.0063,8.3438,,adl
9.823607,-0.0013,-0.0357,0.0084,-0.0004,0.0016,-0.0014,-20.475,-32.0063,8.3438,,adl
9.838151,-0.0105,-0.0219,-0.0112,-0.0004,0.0016,-0.0014,-20.475,-32.0063,8.3438,,adl
9.844333,-0.0105,-0.0219,-0.0112,-0.0004,0.0016,-0.0014,-21.0563,-32.1938,8.5688,,adl
9.856756,-0.0081,0.0013,0.0151,-0.0004,0.0016,-0.0014,-21.0563,-32.1938,8.5688,,adl
9.871329,-0.0081,0.0013,0.0151,-0.0004,0.0016,-0.0014,-21.0563,-32.1938,8.5688,,adl
9.877994,0.0009,-0.0137,-0.0226,-0.0004,0.0016,-0.0014,-21.0563,-32.1938,8.5688,,adl
9.885433,0.0009,-0.0137,-0.0226,0.0021,-0.0045,-0.0014,-21.0563,-32.1938,8.5688,,adl
9.896063,-0.0091,-0.0241,-0.0438,0.0021,-0.0045,-0.0014,-21.0563,-32.1938,8.5688,,adl
9.902481,-0.0091,-0.0241,-0.0438,0.0021,-0.0045,-0.0014,-21.0563,-32.0813,8.1562,,adl
9.914115,0.0152,-0.0296,-0.0393,0.0021,-0.0045,-0.0014,-21.0563,-32.0813,8.1562,,adl
9.918253,0.0152,-0.0296,-0.0393,0.0021,-0.0045,-0.0014,-21.0563,-32.0813,8.1562,,adl
9.933953,-0.0246,-0.0159,-0.0235,0.0021,-0.0045,-0.0014,-21.0563,-32.0813,8.1562,,adl
9.947202,-0.0246,-0.0159,-0.0235,-0.0027,0.0029,-0.0003,-21.0563,-32.0813,8.1562,,adl
9.952349,-0.0233,0.0123,0.0183,-0.0027,0.0029,-0.0003,-21.0563,-32.0813,8.1562,,adl
9.962864,-0.0233,0.0123,0.0183,-0.0027,0.0029,-0.0003,-20.9625,-32.4,8.4563,,adl
9.966575,-0.0233,0.0123,0.0183,-0.0027,0.0029,-0.0003,-20.9625,-32.4,8.4563,,adl
9.971382,-0.009,-0.0092,-0.0032,-0.0027,0.0029,-0.0003,-20.9625,-32.4,8.4563,,adl
9.990832,-0.0165,-0.0165,-0.0292,-0.0027,0.0029,-0.0003,-20.9625,-32.4,8.4563,,adl
10.009368,-0.0165,-0.0165,-0.0292,0.0008,-0.0033,0.0034,-20.9625,-32.4,8.4563,,adl
10.012289,0.0283,-0.0186,-0.0381,0.0008,-0.0033,0.0034,-20.9625,-32.4,8.4563,,adl
10.014118,0.0283,-0.0186,-0.0381,0.0008,-0.0033,0.0034,-20.9625,-32.4,8.4563,,adl
10.022489,0.0283,-0.0186,-0.0381,0.0008,-0.0033,0.0034,-20.6625,-32.3438,8.9813,,adl
10.029062,-0.0134,-0.0418,-0.018,0.0008,-0.0033,0.0034,-20.6625,-32.3438,8.9813,,adl
10.048162,0.0026,-0.0391,-0.0028,0.0008,-0.0033,0.0034,-20.6625,-32.3438,8.9813,,adl
10.061882,0.0026,-0.0391,-0.0028,0.0008,-0.0033,0.0034,-20.6625,-32.3438,8.9813,,adl
10.067194,0.0164,-0.0418,-0.0023,0.0008,-0.0033,0.0034,-20.6625,-32.3438,8.9813,,adl
10.071036,0.0164,-0.0418,-0.0023,0.0033,-0.0008,-0.0063,-20.6625,-32.3438,8.9813,,adl
10.082837,0.0164,-0.0418,-0.0023,0.0033,-0.0008,-0.0063,-21.15,-32.4,8.5688,,adl
10.08814,-0.0391,-0.0072,-0.0282,0.0033,-0.0008,-0.0063,-21.15,-32.4,8.5688,,adl
10.105692,-0.0417,0.0061,-0.0233,0.0033,-0.0008,-0.0063,-21.15,-32.4,8.5688,,adl
10.109567,-0.0417,0.0061,-0.0233,0.0033,-0.0008,-0.0063,-21.15,-32.4,8.5688,,adl
10.125015,-0.0046,-0.0171,-0.0388,0.0033,-0.0008,-0.0063,-21.15,-32.4,8.5688,,adl
10.133712,-0.0046,-0.0171,-0.0388,-0.0004,0.0016,0.0022,-21.15,-32.4,8.5688,,adl
10.143829,-0.0046,-0.0171,-0.0388,-0.0004,0.0016,0.0022,-20.85,-32.3813,8.1562,,adl
10.145091,0.0094,-0.0332,-0.0264,-0.0004,0.0016,0.0022,-20.85,-32.3813,8.1562,,adl
10.157272,0.0094,-0.0332,-0.0264,-0.0004,0.0016,0.0022,-20.85,-32.3813,8.1562,,adl
10.162933,-0.0285,0.0051,-0.0412,-0.0004,0.0016,0.0022,-20.85,-32.3813,8.1562,,adl
10.182064,-0.0202,-0.0276,0.0008,-0.0004,0.0016,0.0022,-20.85,-32.3813,8.1562,,adl
10.196105,-0.0202,-0.0276,0.0008,-0.0004,0.0016,0.0022,-20.85,-32.3813,8.1562,,adl
10.201087,-0.0101,-0.0363,0.0027,-0.0004,0.0016,0.0022,-20.85,-32.3813,8.1562,,adl
10.20347,-0.0101,-0.0363,0.0027,-0.0004,0.0016,0.0022,-20.775,-32.2125,8.5688,,adl
10.20563,-0.0101,-0.0363,0.0027,-0.0004,0.0016,0.0022,-20.775,-32.2125,8.5688,,adl
10.220195,0.0112,-0.0358,-0.0018,-0.0004,0.0016,0.0022,-20.775,-32.2125,8.5688,,adl
10.239243,-0.0156,-0.0149,0.001,-0.0004,0.0016,0.0022,-20.775,-32.2125,8.5688,,adl
10.252485,-0.0156,-0.0149,0.001,-0.0004,0.0016,0.0022,-20.775,-32.2125,8.5688,,adl
10.256966,-0.0156,-0.0149,0.001,0.0021,-0.0058,-0.0026,-20.775,-32.2125,8.5688,,adl
10.258115,-0.0189,-0.0107,-0.0508,0.0021,-0.0058,-0.0026,-20.775,-32.2125,8.5688,,adl
10.262995,-0.0189,-0.0107,-0.0508,0.0021,-0.0058,-0.0026,-20.7563,-32.175,7.8375,,adl
10.279073,-0.0242,-0.0132,-0.0359,0.0021,-0.0058,-0.0026,-20.7563,-32.175,7.8375,,adl
10.297643,-0.0149,-0.0013,-0.0141,0.0021,-0.0058,-0.0026,-20.7563,-32.175,7.8375,,adl
10.300628,-0.0149,-0.0013,-0.0141,0.0021,-0.0058,-0.0026,-20.7563,-32.175,7.8375,,adl
10.316278,-0.001,-0.0175,-0.0041,0.0021,-0.0058,-0.0026,-20.7563,-32.175,7.8375,,adl
10.319948,-0.001,-0.0175,-0.0041,0.0008,-0.0033,-0.0003,-20.7563,-32.175,7.8375,,adl
10.322082,-0.001,-0.0175,-0.0041,0.0008,-0.0033,-0.0003,-20.85,-32.5125,8.6625,,adl
10.334623,-0.0064,-0.0458,-0.0154,0.0008,-0.0033,-0.0003,-20.85,-32.5125,8.6625,,adl
10.348946,-0.0064,-0.0458,-0.0154,0.0008,-0.0033,-0.0003,-20.85,-32.5125,8.6625,,adl
10.354351,-0.0092,-0.0121,-0.0246,0.0008,-0.0033,-0.0003,-20.85,-32.5125,8.6625,,adl
10.37256,-0.0332,-0.0071,-0.0245,0.0008,-0.0033,-0.0003,-20.85,-32.5125,8.6625,,adl
10.381661,-0.0332,-0.0071,-0.0245,-0.0029,-0.0008,-0.0003,-20.85,-32.5125,8.6625,,adl
10.382769,-0.0332,-0.0071,-0.0245,-0.0029,-0.0008,-0.0003,-20.7563,-32.2688,7.9313,,adl
10.391905,0.017,-0.0352,0.0235,-0.0029,-0.0008,-0.0003,-20.7563,-32.2688,7.9313,,adl
10.396604,0.017,-0.0352,0.0235,-0.0029,-0.0008,-0.0003,-20.7563,-32.2688,7.9313,,adl
10.411027,-0.0196,-0.0036,0.0002,-0.0029,-0.0008,-0.0003,-20.7563,-32.2688,7.9313,,adl
10.430844,-0.0036,-0.0043,-0.0086,-0.0029,-0.0008,-0.0003,-20.7563,-32.2688,7.9313,,adl
10.443482,-0.0036,-0.0043,-0.0086,-0.0029,-0.0008,-0.0003,-20.85,-32.2875,8.1562,,adl
10.444547,-0.0036,-0.0043,-0.0086,-0.0029,-0.0008,-0.0003,-20.85,-32.2875,8.1562,,adl
10.445103,-0.0036,-0.0043,-0.0086,0.0021,-0.0106,-0.0026,-20.85,-32.2875,8.1562,,adl
10.449565,-0.0432,0.0215,-0.0504,0.0021,-0.0106,-0.0026,-20.85,-32.2875,8.1562,,adl
10.469138,-0.0108,-0.0021,-0.0373,0.0021,-0.0106,-0.0026,-20.85,-32.2875,8.1562,,adl
10.488856,-0.0281,-0.0113,-0.0392,0.0021,-0.0106,-0.0026,-20.85,-32.2875,8.1562,,adl
10.492623,-0.0281,-0.0113,-0.0392,0.0021,-0.0106,-0.0026,-20.85,-32.2875,8.1562,,adl
10.505693,-0.0281,-0.0113,-0.0392,0.0021,-0.0106,-0.0026,-21.3375,-32.3813,8.2688,,adl
10.508166,-0.0281,-0.0113,-0.0392,-0.004,0.0004,0.0034,-21.3375,-32.3813,8.2688,,adl
10.509258,-0.0186,0.0041,-0.0224,-0.004,0.0004,0.0034,-21.3375,-32.3813,8.2688,,adl
10.525526,-0.004,-0.0354,0.0326,-0.004,0.0004,0.0034,-21.3375,-32.3813,8.2688,,adl
10.540223,-0.004,-0.0354,0.0326,-0.004,0.0004,0.0034,-21.3375,-32.3813,8.2688,,adl
10.545179,-0.0119,-0.0132,-0.0123,-0.004,0.0004,0.0034,-21.3375,-32.3813,8.2688,,adl
10.562917,-0.0119,-0.0132,-0.0123,-0.004,0.0004,0.0034,-20.7563,-32.4375,8.9813,,adl
10.565704,0.0347,-0.044,0.0225,-0.004,0.0004,0.0034,-20.7563,-32.4375,8.9813,,adl
10.568811,0.0347,-0.044,0.0225,-0.0004,-0.0106,-0.0051,-20.7563,-32.4375,8.9813,,adl
10.583942,-0.0092,-0.0086,-0.0125,-0.0004,-0.0106,-0.0051,-20.7563,-32.4375,8.9813,,adl
10.588643,-0.0092,-0.0086,-0.0125,-0.0004,-0.0106,-0.0051,-20.7563,-32.4375,8.9813,,adl
10.602295,-0.0267,0.0169,-0.0286,-0.0004,-0.0106,-0.0051,-20.7563,-32.4375,8.9813,,adl
10.621922,-0.0209,-0.0029,-0.0225,-0.0004,-0.0106,-0.0051,-20.7563,-32.4375,8.9813,,adl
10.623463,-0.0209,-0.0029,-0.0225,-0.0004,-0.0106,-0.0051,-21.0563,-32.25,7.5375,,adl
10.631371,-0.0209,-0.0029,-0.0225,-0.0016,-0.0045,0.001,-21.0563,-32.25,7.5375,,adl
10.636597,-0.0209,-0.0029,-0.0225,-0.0016,-0.0045,0.001,-21.0563,-32.25,7.5375,,adl
10.640861,0.0025,-0.0334,-0.0219,-0.0016,-0.0045,0.001,-21.0563,-32.25,7.5375,,adl
10.659654,-0.0051,-0.0184,0.0001,-0.0016,-0.0045,0.001,-21.0563,-32.25,7.5375,,adl
10.679395,0.002,-0.0019,-0.0094,-0.0016,-0.0045,0.001,-21.0563,-32.25,7.5375,,adl
10.68287,0.002,-0.0019,-0.0094,-0.0016,-0.0045,0.001,-21.075,-32.1188,8.8875,,adl
10.684749,0.002,-0.0019,-0.0094,-0.0016,-0.0045,0.001,-21.075,-32.1188,8.8875,,adl
10.692384,0.002,-0.0019,-0.0094,0.0021,-0.0069,-0.0038,-21.075,-32.1188,8.8875,,adl
10.700148,0.0038,-0.0071,-0.0256,0.0021,-0.0069,-0.0038,-21.075,-32.1188,8.8875,,adl
10.717369,0.0083,-0.0096,-0.0158,0.0021,-0.0069,-0.0038,-21.075,-32.1188,8.8875,,adl
10.732086,0.0083,-0.0096,-0.0158,0.0021,-0.0069,-0.0038,-21.075,-32.1188,8.8875,,adl
10.736483,-0.0088,0.0047,-0.0346,0.0021,-0.0069,-0.0038,-21.075,-32.1188,8.8875,,adl
10.74202,-0.0088,0.0047,-0.0346,0.0021,-0.0069,-0.0038,-20.6625,-32.475,8.0438,,adl
10.755068,-0.0088,0.0047,-0.0346,0.0033,0.0016,-0.0026,-20.6625,-32.475,8.0438,,adl
10.757901,0.0008,-0.0406,-0.0226,0.0033,0.0016,-0.0026,-20.6625,-32.475,8.0438,,adl
10.774671,-0.0058,0.0213,-0.0088,0.0033,0.0016,-0.0026,-20.6625,-32.475,8.0438,,adl
10.779607,-0.0058,0.0213,-0.0088,0.0033,0.0016,-0.0026,-20.6625,-32.475,8.0438,,adl
10.79344,-0.02,0.0068,-0.0162,0.0033,0.0016,-0.0026,-20.6625,-32.475,8.0438,,adl
10.80773,-0.02,0.0068,-0.0162,0.0033,0.0016,-0.0026,-20.7375,-32.5688,7.9313,,adl
10.812522,-0.0172,0.0285,-0.0501,0.0033,0.0016,-0.0026,-20.7375,-32.5688,7.9313,,adl
10.817259,-0.0172,0.0285,-0.0501,-0.0016,0.0041,0.0047,-20.7375,-32.5688,7.9313,,adl
10.826726,-0.0172,0.0285,-0.0501,-0.0016,0.0041,0.0047,-20.7375,-32.5688,7.9313,,adl
10.832965,0.0027,-0.0178,-0.0532,-0.0016,0.0041,0.0047,-20.7375,-32.5688,7.9313,,adl
10.851561,-0.0054,-0.0157,0.0124,-0.0016,0.0041,0.0047,-20.7375,-32.5688,7.9313,,adl
10.863053,-0.0054,-0.0157,0.0124,-0.0016,0.0041,0.0047,-21.15,-32.2125,8.6813,,adl
10.870716,0.0343,-0.0267,0.0182,-0.0016,0.0041,0.0047,-21.15,-32.2125,8.6813,,adl
10.874798,0.0343,-0.0267,0.0182,-0.0016,0.0041,0.0047,-21.15,-32.2125,8.6813,,adl
10.87859,0.0343,-0.0267,0.0182,0.0033,0.0052,-0.0038,-21.15,-32.2125,8.6813,,adl
10.889732,-0.0056,0.0114,-0.0233,0.0033,0.0052,-0.0038,-21.15,-32.2125,8.6813,,adl
10.909515,-0.0356,0.0066,-0.0339,0.0033,0.0052,-0.0038,-21.15,-32.2125,8.6813,,adl
10.923795,-0.0356,0.0066,-0.0339,0.0033,0.0052,-0.0038,-21.15,-32.2125,8.6813,,adl
10.927139,-0.0356,0.0066,-0.0339,0.0033,0.0052,-0.0038,-20.775,-32.0813,8.0438,,adl
10.929152,-0.0298,0.0002,-0.0469,0.0033,0.0052,-0.0038,-20.775,-32.0813,8.0438,,adl
10.940668,-0.0298,0.0002,-0.0469,-0.004,0.0114,0.0059,-20.775,-32.0813,8.0438,,adl
10.946004,0.017,-0.0056,-0.0577,-0.004,0.0114,0.0059,-20.775,-32.0813,8.0438,,adl
10.965558,0.0025,-0.0109,-0.0168,-0.004,0.0114,0.0059,-20.775,-32.0813,8.0438,,adl
10.969999,0.0025,-0.0109,-0.0168,-0.004,0.0114,0.0059,-20.775,-32.0813,8.0438,,adl
10.982553,0.0025,-0.0109,-0.0168,-0.004,0.0114,0.0059,-20.5688,-32.3063,8.55,,adl
10.98414,-0.0209,0.005,-0.003,-0.004,0.0114,0.0059,-20.5688,-32.3063,8.55,,adl
11.003755,-0.0209,0.005,-0.003,-0.0029,0.0114,0.0034,-20.5688,-32.3063,8.55,,adl
11.006999,0.0007,-0.0079,-0.0054,-0.0029,0.0114,0.0034,-20.5688,-32.3063,8.55,,adl
11.017957,0.0007,-0.0079,-0.0054,-0.0029,0.0114,0.0034,-20.5688,-32.3063,8.55,,adl
11.023186,-0.009,-0.0235,-0.0315,-0.0029,0.0114,0.0034,-20.5688,-32.3063,8.55,,adl
11.042092,0.0191,-0.008,-0.0045,-0.0029,0.0114,0.0034,-20.5688,-32.3063,8.55,,adl
11.043414,0.0191,-0.008,-0.0045,-0.0029,0.0114,0.0034,-21.1313,-32.6625,8.0438,,adl
11.062017,-0.0154,0.0161,-0.0107,-0.0029,0.0114,0.0034,-21.1313,-32.6625,8.0438,,adl
11.06568,-0.0154,0.0161,-0.0107,-0.0029,0.0114,0.0034,-21.1313,-32.6625,8.0438,,adl
11.067726,-0.0154,0.0161,-0.0107,0.0008,0.0016,-0.0003,-21.1313,-32.6625,8.0438,,adl
11.080743,0.007,-0.0168,-0.0092,0.0008,0.0016,-0.0003,-21.1313,-32.6625,8.0438,,adl
11.100114,-0.0019,0.0072,-0.0266,0.0008,0.0016,-0.0003,-21.1313,-32.6625,8.0438,,adl
11.101727,-0.0019,0.0072,-0.0266,0.0008,0.0016,-0.0003,-21.2625,-31.9875,8.475,,adl
11.113701,-0.0019,0.0072,-0.0266,0.0008,0.0016,-0.0003,-21.2625,-31.9875,8.475,,adl
11.118616,-0.0084,0.0261,-0.032,0.0008,0.0016,-0.0003,-21.2625,-31.9875,8.475,,adl
11.127794,-0.0084,0.0261,-0.032,-0.0004,-0.0008,-0.0003,-21.2625,-31.9875,8.475,,adl
11.138117,-0.0136,0.0043,-0.0269,-0.0004,-0.0008,-0.0003,-21.2625,-31.9875,8.475,,adl
11.157773,-0.0138,-0.0076,-0.053,-0.0004,-0.0008,-0.0003,-21.2625,-31.9875,8.475,,adl
11.160954,-0.0138,-0.0076,-0.053,-0.0004,-0.0008,-0.0003,-21.2625,-31.9875,8.475,,adl
11.162947,-0.0138,-0.0076,-0.053,-0.0004,-0.0008,-0.0003,-20.8688,-32.0813,8.1562,,adl
11.176735,-0.0162,0.0073,-0.0506,-0.0004,-0.0008,-0.0003,-20.8688,-32.0813,8.1562,,adl
11.189666,-0.0162,0.0073,-0.0506,-0.0029,0.0041,0.001,-20.8688,-32.0813,8.1562,,adl
11.195765,-0.0064,-0.0253,-0.0053,-0.0029,0.0041,0.001,-20.8688,-32.0813,8.1562,,adl
11.210149,-0.0064,-0.0253,-0.0053,-0.0029,0.0041,0.001,-20.8688,-32.0813,8.1562,,adl
11.214922,0.0058,-0.013,-0.0031,-0.0029,0.0041,0.001,-20.8688,-32.0813,8.1562,,adl
11.222754,0.0058,-0.013,-0.0031,-0.0029,0.0041,0.001,-20.85,-32.4,8.3625,,adl
11.234706,-0.0065,0.0083,-0.0076,-0.0029,0.0041,0.001,-20.85,-32.4,8.3625,,adl
11.252938,-0.0065,0.0083,-0.0076,0.0008,-0.0033,-0.0003,-20.85,-32.4,8.3625,,adl
11.25598,-0.0022,-0.0084,-0.0047,0.0008,-0.0033,-0.0003,-20.85,-32.4,8.3625,,adl
11.257734,-0.0022,-0.0084,-0.0047,0.0008,-0.0033,-0.0003,-20.85,-32.4,8.3625,,adl
11.271915,-0.0174,0.0056,-0.0517,0.0008,-0.0033,-0.0003,-20.85,-32.4,8.3625,,adl
11.282016,-0.0174,0.0056,-0.0517,0.0008,-0.0033,-0.0003,-21.0375,-32.3438,7.7438,,adl
11.291302,0.0035,0.0245,-0.0487,0.0008,-0.0033,-0.0003,-21.0375,-32.3438,7.7438,,adl
11.305417,0.0035,0.0245,-0.0487,0.0008,-0.0033,-0.0003,-21.0375,-32.3438,7.7438,,adl
11.312441,0.0013,-0.0108,-0.0226,0.0008,-0.0033,-0.0003,-21.0375,-32.3438,7.7438,,adl
11.31514,0.0013,-0.0108,-0.0226,-0.0016,0.0065,0.0022,-21.0375,-32.3438,7.7438,,adl
11.330657,0.0064,-0.0103,-0.0205,-0.0016,0.0065,0.0022,-21.0375,-32.3438,7.7438,,adl
11.342969,0.0064,-0.0103,-0.0205,-0.0016,0.0065,0.0022,-20.55,-32.475,8.025,,adl
11.348483,0.008,-0.0059,0.0066,-0.0016,0.0065,0.0022,-20.55,-32.475,8.025,,adl
11.353081,0.008,-0.0059,0.0066,-0.0016,0.0065,0.0022,-20.55,-32.475,8.025,,adl
11.367909,-0.017,-0.0039,0.0053,-0.0016,0.0065,0.0022,-20.55,-32.475,8.025,,adl
11.376829,-0.017,-0.0039,0.0053,0.0008,0.0004,-0.0003,-20.55,-32.475,8.025,,adl
11.386956,-0.0089,0.0071,-0.0124,0.0008,0.0004,-0.0003,-20.55,-32.475,8.025,,adl
11.400347,-0.0089,0.0071,-0.0124,0.0008,0.0004,-0.0003,-20.55,-32.475,8.025,,adl
11.401901,-0.0089,0.0071,-0.0124,0.0008,0.0004,-0.0003,-20.6813,-32.0063,8.5688,,adl
11.405579,-0.0034,0.0038,-0.0467,0.0008,0.0004,-0.0003,-20.6813,-32.0063,8.5688,,adl
11.425353,-0.0119,0.0034,-0.0335,0.0008,0.0004,-0.0003,-20.6813,-32.0063,8.5688,,adl
11.438781,-0.0119,0.0034,-0.0335,-0.0016,0.0052,0.001,-20.6813,-32.0063,8.5688,,adl
11.444076,-0.0057,0.0221,-0.0349,-0.0016,0.0052,0.001,-20.6813,-32.0063,8.5688,,adl
11.44786,-0.0057,0.0221,-0.0349,-0.0016,0.0052,0.001,-20.6813,-32.0063,8.5688,,adl
11.462103,-0.0057,0.0221,-0.0349,-0.0016,0.0052,0.001,-20.6438,-32.5688,7.9313,,adl
11.463747,-0.0083,-0.0091,-0.0107,-0.0016,0.0052,0.001,-20.6438,-32.5688,7.9313,,adl
11.482135,-0.0181,-0.0017,0.0182,-0.0016,0.0052,0.001,-20.6438,-32.5688,7.9313,,adl
11.49515,-0.0181,-0.0017,0.0182,-0.0016,0.0052,0.001,-20.6438,-32.5688,7.9313,,adl
11.500479,-0.0181,-0.0017,0.0182,0.0008,0.0029,-0.0003,-20.6438,-32.5688,7.9313,,adl
11.501232,-0.0117,-0.0116,-0.0001,0.0008,0.0029,-0.0003,-20.6438,-32.5688,7.9313,,adl
11.520645,-0.0173,-0.0146,0.0007,0.0008,0.0029,-0.0003,-20.6438,-32.5688,7.9313,,adl
11.521989,-0.0173,-0.0146,0.0007,0.0008,0.0029,-0.0003,-20.475,-32.0813,8.025,,adl
11.540249,-0.0184,-0.0103,-0.0007,0.0008,0.0029,-0.0003,-20.475,-32.0813,8.025,,adl
11.544305,-0.0184,-0.0103,-0.0007,0.0008,0.0029,-0.0003,-20.475,-32.0813,8.025,,adl
11.559495,-0.0387,-0.0035,-0.0187,0.0008,0.0029,-0.0003,-20.475,-32.0813,8.025,,adl
11.563448,-0.0387,-0.0035,-0.0187,0.0008,0.0004,-0.0015,-20.475,-32.0813,8.025,,adl
11.577911,-0.0205,-0.0043,-0.0034,0.0008,0.0004,-0.0015,-20.475,-32.0813,8.025,,adl
11.58354,-0.0205,-0.0043,-0.0034,0.0008,0.0004,-0.0015,-20.6625,-32.2125,8.4563,,adl
11.591961,-0.0205,-0.0043,-0.0034,0.0008,0.0004,-0.0015,-20.6625,-32.2125,8.4563,,adl
11.597331,0.0072,-0.0169,-0.0119,0.0008,0.0004,-0.0015,-20.6625,-32.2125,8.4563,,adl
11.616818,0.17,-0.3145,0.2512,0.0008,0.0004,-0.0015,-20.6625,-32.2125,8.4563,,adl
11.624972,0.17,-0.3145,0.2512,0.0631,-0.0924,-0.2592,-20.6625,-32.2125,8.4563,,adl
11.635961,-0.1404,0.0077,-0.0785,0.0631,-0.0924,-0.2592,-20.6625,-32.2125,8.4563,,adl
11.639358,-0.1404,0.0077,-0.0785,0.0631,-0.0924,-0.2592,-20.6625,-32.2125,8.4563,,adl
11.642075,-0.1404,0.0077,-0.0785,0.0631,-0.0924,-0.2592,-20.7375,-32.5688,7.9313,,adl
11.654507,0.0721,0.0191,0.2305,0.0631,-0.0924,-0.2592,-20.7375,-32.5688,7.9313,,adl
11.673971,-0.0745,0.1472,0.0392,0.0631,-0.0924,-0.2592,-20.7375,-32.5688,7.9313,,adl
11.691327,-0.0745,0.1472,0.0392,0.0631,-0.0924,-0.2592,-20.7375,-32.5688,7.9313,,adl
11.694489,-0.0745,0.1472,0.0392,0.0619,-0.0093,-0.0686,-20.7375,-32.5688,7.9313,,adl
11.696649,-0.0246,-0.2001,-0.8895,0.0619,-0.0093,-0.0686,-20.7375,-32.5688,7.9313,,adl
11.702982,-0.0246,-0.2001,-0.8895,0.0619,-0.0093,-0.0686,-20.55,-32.4938,8.3438,,adl
11.71289,0.0073,0.0376,-0.2488,0.0619,-0.0093,-0.0686,-20.55,-32.4938,8.3438,,adl
11.730919,-0.1911,0.4422,-0.0073,0.0619,-0.0093,-0.0686,-20.55,-32.4938,8.3438,,adl
11.735104,-0.1911,0.4422,-0.0073,0.0619,-0.0093,-0.0686,-20.55,-32.4938,8.3438,,adl
11.749293,-0.1911,0.4422,-0.0073,-0.186,-0.0363,0.122,-20.55,-32.4938,8.3438,,adl
11.750966,-0.0056,0.2339,0.6121,-0.186,-0.0363,0.122,-20.55,-32.4938,8.3438,,adl
11.764042,-0.0056,0.2339,0.6121,-0.186,-0.0363,0.122,-20.9438,-32.55,7.8375,,adl
11.774652,0.0541,-0.0308,0.3971,-0.186,-0.0363,0.122,-20.9438,-32.55,7.8375,,adl
