time,ax,ay,az,wx,wy,wz,Bx,By,Bz,Unnamed: 10,label
0.026939,0.4587,-0.3671,-0.6646,0.0,0.0,0.0,0.0,0.0,0.0,,adl
0.039998,0.4587,-0.3671,-0.6646,0.0,0.0,0.0,0.0,0.0,0.0,,adl
0.046122,0.2394,-0.2864,-0.9493,0.0,0.0,0.0,0.0,0.0,0.0,,adl
0.053527,0.2394,-0.2864,-0.9493,0.0,0.0,0.0,-25.1813,-40.0125,-2.625,,adl
0.064003,0.2394,-0.2864,-0.9493,-0.1493,0.1957,0.0681,-25.1813,-40.0125,-2.625,,adl
0.065463,-0.0813,-0.2627,-0.9247,-0.1493,0.1957,0.0681,-25.1813,-40.0125,-2.625,,adl
0.084669,-0.36,-0.3675,-0.685,-0.1493,0.1957,0.0681,-25.1813,-40.0125,-2.625,,adl
0.087842,-0.36,-0.3675,-0.685,-0.1493,0.1957,0.0681,-25.1813,-40.0125,-2.625,,adl
0.104773,-0.3452,-0.2815,0.2895,-0.1493,0.1957,0.0681,-25.1813,-40.0125,-2.625,,adl
0.113812,-0.3452,-0.2815,0.2895,-0.1493,0.1957,0.0681,-25.6875,-39.375,-3.2438,,adl
0.122711,-0.1642,-0.6623,-0.2858,-0.1493,0.1957,0.0681,-25.6875,-39.375,-3.2438,,adl
0.126569,-0.1642,-0.6623,-0.2858,-0.0382,-0.111,0.2135,-25.6875,-39.375,-3.2438,,adl
0.135939,-0.1642,-0.6623,-0.2858,-0.0382,-0.111,0.2135,-25.6875,-39.375,-3.2438,,adl
0.141361,0.1329,-0.3239,-0.6999,-0.0382,-0.111,0.2135,-25.6875,-39.375,-3.2438,,adl
0.160271,-0.0417,-0.2556,-1.2081,-0.0382,-0.111,0.2135,-25.6875,-39.375,-3.2438,,adl
0.173923,-0.0417,-0.2556,-1.2081,-0.0382,-0.111,0.2135,-26.175,-39.525,-2.175,,adl
0.179603,-0.2712,-0.3215,-1.4904,-0.0382,-0.111,0.2135,-26.175,-39.525,-2.175,,adl
0.184477,-0.2712,-0.3215,-1.4904,-0.0382,-0.111,0.2135,-26.175,-39.525,-2.175,,adl
0.188488,-0.2712,-0.3215,-1.4904,-0.1763,-0.6044,0.2294,-26.175,-39.525,-2.175,,adl
0.199007,0.0716,-0.5171,-1.1013,-0.1763,-0.6044,0.2294,-26.175,-39.525,-2.175,,adl
0.221453,0.4144,-0.6273,-0.6762,-0.1763,-0.6044,0.2294,-26.175,-39.525,-2.175,,adl
0.231387,0.4144,-0.6273,-0.6762,-0.1763,-0.6044,0.2294,-26.175,-39.525,-2.175,,adl
0.233277,0.4144,-0.6273,-0.6762,-0.1763,-0.6044,0.2294,-26.4938,-38.9625,-1.3313,,adl
0.238194,0.3457,-0.6765,-0.7855,-0.1763,-0.6044,0.2294,-26.4938,-38.9625,-1.3313,,adl
0.252975,0.3457,-0.6765,-0.7855,-0.1946,-0.7524,0.2245,-26.4938,-38.9625,-1.3313,,adl
0.256655,0.3937,-0.5069,-1.1343,-0.1946,-0.7524,0.2245,-26.4938,-38.9625,-1.3313,,adl
0.276434,0.2773,-0.4661,-1.382,-0.1946,-0.7524,0.2245,-26.4938,-38.9625,-1.3313,,adl
0.279051,0.2773,-0.4661,-1.382,-0.1946,-0.7524,0.2245,-26.4938,-38.9625,-1.3313,,adl
0.294347,0.2773,-0.4661,-1.382,-0.1946,-0.7524,0.2245,-26.925,-38.4938,-0.6,,adl
0.297493,0.4672,-0.471,-1.1145,-0.1946,-0.7524,0.2245,-26.925,-38.4938,-0.6,,adl
0.312366,0.4672,-0.471,-1.1145,-0.5184,-0.5813,0.1743,-26.925,-38.4938,-0.6,,adl
0.313204,0.2097,-0.6407,-0.7744,-0.5184,-0.5813,0.1743,-26.925,-38.4938,-0.6,,adl
0.327102,0.2097,-0.6407,-0.7744,-0.5184,-0.5813,0.1743,-26.925,-38.4938,-0.6,,adl
0.33255,0.0781,-0.7461,-0.4053,-0.5184,-0.5813,0.1743,-26.925,-38.4938,-0.6,,adl
0.352571,0.3281,-0.6974,-0.054,-0.5184,-0.5813,0.1743,-26.925,-38.4938,-0.6,,adl
0.355878,0.3281,-0.6974,-0.054,-0.5184,-0.5813,0.1743,-27.5063,-38.1562,-1.0875,,adl
0.372269,0.1508,-0.6545,-0.0673,-0.5184,-0.5813,0.1743,-27.5063,-38.1562,-1.0875,,adl
0.375623,0.1508,-0.6545,-0.0673,-0.5184,-0.5813,0.1743,-27.5063,-38.1562,-1.0875,,adl
0.377519,0.1508,-0.6545,-0.0673,-0.4927,-0.5837,0.172,-27.5063,-38.1562,-1.0875,,adl
0.389712,0.0063,-0.6435,-0.2587,-0.4927,-0.5837,0.172,-27.5063,-38.1562,-1.0875,,adl
0.409863,-0.0258,-0.548,-0.3368,-0.4927,-0.5837,0.172,-27.5063,-38.1562,-1.0875,,adl
0.413632,-0.0258,-0.548,-0.3368,-0.4927,-0.5837,0.172,-27.6188,-38.1562,-1.0875,,adl
0.423265,-0.0258,-0.548,-0.3368,-0.4927,-0.5837,0.172,-27.6188,-38.1562,-1.0875,,adl
0.429349,0.0022,-0.5295,-0.237,-0.4927,-0.5837,0.172,-27.6188,-38.1562,-1.0875,,adl
0.438289,0.0022,-0.5295,-0.237,-0.638,-0.7145,0.2513,-27.6188,-38.1562,-1.0875,,adl
0.448141,0.3065,-0.5904,0.1139,-0.638,-0.7145,0.2513,-27.6188,-38.1562,-1.0875,,adl
0.465918,0.1604,-0.6278,0.304,-0.638,-0.7145,0.2513,-27.6188,-38.1562,-1.0875,,adl
0.471651,0.1604,-0.6278,0.304,-0.638,-0.7145,0.2513,-27.6188,-38.1562,-1.0875,,adl
0.47224,0.1604,-0.6278,0.304,-0.638,-0.7145,0.2513,-27.9188,-37.7063,-1.7063,,adl
0.485087,0.0723,-0.5472,0.4338,-0.638,-0.7145,0.2513,-27.9188,-37.7063,-1.7063,,adl
0.500158,0.0723,-0.5472,0.4338,-0.5757,-0.2845,0.3112,-27.9188,-37.7063,-1.7063,,adl
0.504326,-0.0198,-0.4094,0.3585,-0.5757,-0.2845,0.3112,-27.9188,-37.7063,-1.7063,,adl
0.518647,-0.0198,-0.4094,0.3585,-0.5757,-0.2845,0.3112,-27.9188,-37.7063,-1.7063,,adl
0.524523,-0.1069,-0.2136,0.1711,-0.5757,-0.2845,0.3112,-27.9188,-37.7063,-1.7063,,adl
0.533953,-0.1069,-0.2136,0.1711,-0.5757,-0.2845,0.3112,-28.9125,-36.9188,-3.0188,,adl
0.542552,-0.0772,-0.0786,0.1213,-0.5757,-0.2845,0.3112,-28.9125,-36.9188,-3.0188,,adl
0.562427,-0.0772,-0.0786,0.1213,-0.627,-0.6412,0.1414,-28.9125,-36.9188,-3.0188,,adl
0.563613,-0.0673,-0.1415,0.1032,-0.627,-0.6412,0.1414,-28.9125,-36.9188,-3.0188,,adl
0.565836,-0.0673,-0.1415,0.1032,-0.627,-0.6412,0.1414,-28.9125,-36.9188,-3.0188,,adl
0.58173,-0.391,-0.2123,0.1145,-0.627,-0.6412,0.1414,-28.9125,-36.9188,-3.0188,,adl
0.592484,-0.391,-0.2123,0.1145,-0.627,-0.6412,0.1414,-29.1188,-36.6562,-2.2875,,adl
0.599994,-0.6,-0.1957,-0.1295,-0.627,-0.6412,0.1414,-29.1188,-36.6562,-2.2875,,adl
0.614096,-0.6,-0.1957,-0.1295,-0.627,-0.6412,0.1414,-29.1188,-36.6562,-2.2875,,adl
0.619994,-0.6878,-0.1163,-0.5794,-0.627,-0.6412,0.1414,-29.1188,-36.6562,-2.2875,,adl
0.623806,-0.6878,-0.1163,-0.5794,-0.5611,-0.5361,0.1915,-29.1188,-36.6562,-2.2875,,adl
0.639189,-0.8499,-0.0825,-0.6702,-0.5611,-0.5361,0.1915,-29.1188,-36.6562,-2.2875,,adl
0.653635,-0.8499,-0.0825,-0.6702,-0.5611,-0.5361,0.1915,-29.0625,-35.7563,-2.3813,,adl
0.658165,-0.9123,-0.1703,-0.416,-0.5611,-0.5361,0.1915,-29.0625,-35.7563,-2.3813,,adl
0.661823,-0.9123,-0.1703,-0.416,-0.5611,-0.5361,0.1915,-29.0625,-35.7563,-2.3813,,adl
0.677172,-0.7712,-0.3572,-0.096,-0.5611,-0.5361,0.1915,-29.0625,-35.7563,-2.3813,,adl
0.68633,-0.7712,-0.3572,-0.096,-0.8115,-0.3113,0.3809,-29.0625,-35.7563,-2.3813,,adl
0.696358,-0.9068,-0.5269,-0.0979,-0.8115,-0.3113,0.3809,-29.0625,-35.7563,-2.3813,,adl
0.710249,-0.9068,-0.5269,-0.0979,-0.8115,-0.3113,0.3809,-29.0625,-35.7563,-2.3813,,adl
0.713101,-0.9068,-0.5269,-0.0979,-0.8115,-0.3113,0.3809,-29.7563,-35.1562,-3.8063,,adl
0.715102,-1.0202,-0.4308,-0.2525,-0.8115,-0.3113,0.3809,-29.7563,-35.1562,-3.8063,,adl
0.734787,-1.2487,-0.4739,-0.3852,-0.8115,-0.3113,0.3809,-29.7563,-35.1562,-3.8063,,adl
0.749187,-1.2487,-0.4739,-0.3852,-0.7089,-0.9527,0.4602,-29.7563,-35.1562,-3.8063,,adl
0.754529,-1.6297,-0.4341,-0.6293,-0.7089,-0.9527,0.4602,-29.7563,-35.1562,-3.8063,,adl
0.757794,-1.6297,-0.4341,-0.6293,-0.7089,-0.9527,0.4602,-29.7563,-35.1562,-3.8063,,adl
0.773755,-1.9898,-0.4666,-0.7918,-0.7089,-0.9527,0.4602,-29.7563,-35.1562,-3.8063,,adl
0.776531,-1.9898,-0.4666,-0.7918,-0.7089,-0.9527,0.4602,-31.2563,-34.4438,-3.2438,,adl
0.791854,-1.9797,-0.5364,-0.9515,-0.7089,-0.9527,0.4602,-31.2563,-34.4438,-3.2438,,adl
0.805239,-1.9797,-0.5364,-0.9515,-0.7089,-0.9527,0.4602,-31.2563,-34.4438,-3.2438,,adl
0.810563,-1.9797,-0.5364,-0.9515,-0.6222,-1.9166,0.7853,-31.2563,-34.4438,-3.2438,,adl
0.814022,-2.4032,-0.3939,-1.3495,-0.6222,-1.9166,0.7853,-31.2563,-34.4438,-3.2438,,adl
0.830005,-2.7247,-0.8122,-1.4092,-0.6222,-1.9166,0.7853,-31.2563,-34.4438,-3.2438,,adl
0.832652,-2.7247,-0.8122,-1.4092,-0.6222,-1.9166,0.7853,-32.6063,-32.8125,-1.6313,,adl
0.850181,-2.9207,-1.2588,-1.5639,-0.6222,-1.9166,0.7853,-32.6063,-32.8125,-1.6313,,adl
0.853329,-2.9207,-1.2588,-1.5639,-0.6222,-1.9166,0.7853,-32.6063,-32.8125,-1.6313,,adl
0.868224,-2.6137,-1.3879,-0.815,-0.6222,-1.9166,0.7853,-32.6063,-32.8125,-1.6313,,adl
0.872312,-2.6137,-1.3879,-0.815,-0.9471,-1.4035,1.7381,-32.6063,-32.8125,-1.6313,,adl
0.888047,-2.0013,-1.5089,-0.3969,-0.9471,-1.4035,1.7381,-32.6063,-32.8125,-1.6313,,adl
0.893149,-2.0013,-1.5089,-0.3969,-0.9471,-1.4035,1.7381,-35.1188,-29.0625,-0.1875,,adl
0.901394,-2.0013,-1.5089,-0.3969,-0.9471,-1.4035,1.7381,-35.1188,-29.0625,-0.1875,,adl
0.909351,-1.4676,-1.6965,0.0013,-0.9471,-1.4035,1.7381,-35.1188,-29.0625,-0.1875,,adl
0.925717,-0.984,-1.9374,-0.0182,-0.9471,-1.4035,1.7381,-35.1188,-29.0625,-0.1875,,adl
0.935083,-0.984,-1.9374,-0.0182,-0.8788,-1.8018,1.9789,-35.1188,-29.0625,-0.1875,,adl
0.945258,-0.5229,-2.6867,-0.028,-0.8788,-1.8018,1.9789,-35.1188,-29.0625,-0.1875,,adl
0.949413,-0.5229,-2.6867,-0.028,-0.8788,-1.8018,1.9789,-35.1188,-29.0625,-0.1875,,adl
0.952559,-0.5229,-2.6867,-0.028,-0.8788,-1.8018,1.9789,-38.7188,-25.2,1.9125,,adl
0.964234,-0.2761,-2.907,0.4118,-0.8788,-1.8018,1.9789,-38.7188,-25.2,1.9125,,adl
0.987245,0.2064,-2.5678,1.0997,-0.8788,-1.8018,1.9789,-38.7188,-25.2,1.9125,,adl
0.997191,0.2064,-2.5678,1.0997,-0.8788,-1.8018,1.9789,-38.7188,-25.2,1.9125,,adl
0.998051,0.2064,-2.5678,1.0997,-0.8383,-1.8811,2.2538,-38.7188,-25.2,1.9125,,adl
1.002711,1.4256,-2.263,1.2731,-0.8383,-1.8811,2.2538,-38.7188,-25.2,1.9125,,adl
1.012418,1.4256,-2.263,1.2731,-0.8383,-1.8811,2.2538,-41.025,-19.8938,5.55,,adl
1.021071,2.2363,-2.1278,1.2668,-0.8383,-1.8811,2.2538,-41.025,-19.8938,5.55,,adl
1.041795,2.8694,-2.1886,1.4354,-0.8383,-1.8811,2.2538,-41.025,-19.8938,5.55,,adl
1.045521,2.8694,-2.1886,1.4354,-0.8383,-1.8811,2.2538,-41.025,-19.8938,5.55,,adl
1.05903,2.8694,-2.1886,1.4354,-0.6893,-1.0908,1.7174,-41.025,-19.8938,5.55,,adl
1.06218,3.2559,-2.4852,1.9746,-0.6893,-1.0908,1.7174,-41.025,-19.8938,5.55,,adl
1.072455,3.2559,-2.4852,1.9746,-0.6893,-1.0908,1.7174,-41.9813,-16.1813,8.625,,adl
1.078388,3.5774,-2.503,1.7287,-0.6893,-1.0908,1.7174,-41.9813,-16.1813,8.625,,adl
1.092309,3.5774,-2.503,1.7287,-0.6893,-1.0908,1.7174,-41.9813,-16.1813,8.625,,adl
1.098355,3.7824,-2.1151,1.88,-0.6893,-1.0908,1.7174,-41.9813,-16.1813,8.625,,adl
1.117555,4.1185,-1.4906,1.9255,-0.6893,-1.0908,1.7174,-41.9813,-16.1813,8.625,,adl
1.121649,4.1185,-1.4906,1.9255,-0.2398,0.1028,1.1334,-41.9813,-16.1813,8.625,,adl
1.132407,4.1185,-1.4906,1.9255,-0.2398,0.1028,1.1334,-42.825,-12.9375,9.6188,,adl
1.135733,4.1444,-0.637,1.7043,-0.2398,0.1028,1.1334,-42.825,-12.9375,9.6188,,adl
1.141075,4.1444,-0.637,1.7043,-0.2398,0.1028,1.1334,-42.825,-12.9375,9.6188,,adl
1.15477,3.7805,0.2556,1.4113,-0.2398,0.1028,1.1334,-42.825,-12.9375,9.6188,,adl
1.175311,3.2366,0.9585,1.2038,-0.2398,0.1028,1.1334,-42.825,-12.9375,9.6188,,adl
1.183959,3.2366,0.9585,1.2038,0.2746,1.3135,0.4236,-42.825,-12.9375,9.6188,,adl
1.190731,3.2366,0.9585,1.2038,0.2746,1.3135,0.4236,-42.825,-12.9375,9.6188,,adl
1.19449,2.7521,1.3059,1.0816,0.2746,1.3135,0.4236,-42.825,-12.9375,9.6188,,adl
1.197834,2.7521,1.3059,1.0816,0.2746,1.3135,0.4236,-43.575,-10.5938,7.1625,,adl
1.21221,2.5264,1.2436,0.8928,0.2746,1.3135,0.4236,-43.575,-10.5938,7.1625,,adl
1.232173,2.2519,1.0886,0.7488,0.2746,1.3135,0.4236,-43.575,-10.5938,7.1625,,adl
1.235419,2.2519,1.0886,0.7488,0.2746,1.3135,0.4236,-43.575,-10.5938,7.1625,,adl
1.246104,2.2519,1.0886,0.7488,0.6533,0.5342,-0.1371,-43.575,-10.5938,7.1625,,adl
1.250964,2.066,0.9167,0.3098,0.6533,0.5342,-0.1371,-43.575,-10.5938,7.1625,,adl
1.257721,2.066,0.9167,0.3098,0.6533,0.5342,-0.1371,-43.8563,-10.2563,4.875,,adl
1.269817,1.8326,0.6623,-0.3121,0.6533,0.5342,-0.1371,-43.8563,-10.2563,4.875,,adl
1.285336,1.8326,0.6623,-0.3121,0.6533,0.5342,-0.1371,-43.8563,-10.2563,4.875,,adl
1.289601,1.6096,0.5972,-0.596,0.6533,0.5342,-0.1371,-43.8563,-10.2563,4.875,,adl
1.307678,1.6096,0.5972,-0.596,0.1951,-0.4921,-0.2434,-43.8563,-10.2563,4.875,,adl
1.310204,1.5445,0.4003,-0.6982,0.1951,-0.4921,-0.2434,-43.8563,-10.2563,4.875,,adl
1.314164,1.5445,0.4003,-0.6982,0.1951,-0.4921,-0.2434,-44.2125,-11.0438,4.8938,,adl
1.327275,1.728,0.2465,-0.0715,0.1951,-0.4921,-0.2434,-44.2125,-11.0438,4.8938,,adl
1.331123,1.728,0.2465,-0.0715,0.1951,-0.4921,-0.2434,-44.2125,-11.0438,4.8938,,adl
1.346565,1.9011,0.0315,1.0108,0.1951,-0.4921,-0.2434,-44.2125,-11.0438,4.8938,,adl
1.365759,1.8494,-0.2936,1.5547,0.1951,-0.4921,-0.2434,-44.2125,-11.0438,4.8938,,adl
1.370151,1.8494,-0.2936,1.5547,-0.1506,-0.6766,-0.5354,-44.2125,-11.0438,4.8938,,adl
1.373359,1.8494,-0.2936,1.5547,-0.1506,-0.6766,-0.5354,-43.3875,-12.5438,6.5063,,adl
1.379005,1.8494,-0.2936,1.5547,-0.1506,-0.6766,-0.5354,-43.3875,-12.5438,6.5063,,adl
1.385873,1.198,-0.4604,1.7833,-0.1506,-0.6766,-0.5354,-43.3875,-12.5438,6.5063,,adl
1.404019,0.48,-0.7001,1.7105,-0.1506,-0.6766,-0.5354,-43.3875,-12.5438,6.5063,,adl
1.427468,0.1938,-0.6252,2.2574,-0.1506,-0.6766,-0.5354,-43.3875,-12.5438,6.5063,,adl
1.428607,0.1938,-0.6252,2.2574,-0.1506,-0.6766,-0.5354,-43.3875,-12.5438,6.5063,,adl
1.431646,0.1938,-0.6252,2.2574,0.3589,-1.5184,-0.8933,-43.3875,-12.5438,6.5063,,adl
1.433819,0.1938,-0.6252,2.2574,0.3589,-1.5184,-0.8933,-42.375,-13.9125,8.9625,,adl
1.442252,0.4398,-1.0118,2.2418,0.3589,-1.5184,-0.8933,-42.375,-13.9125,8.9625,,adl
1.461939,-0.0341,-1.1784,1.9209,0.3589,-1.5184,-0.8933,-42.375,-13.9125,8.9625,,adl
1.475594,-0.0341,-1.1784,1.9209,0.3589,-1.5184,-0.8933,-42.375,-13.9125,8.9625,,adl
1.479737,-0.5856,-0.9752,1.2767,0.3589,-1.5184,-0.8933,-42.375,-13.9125,8.9625,,adl
1.492583,-0.5856,-0.9752,1.2767,0.3589,-1.5184,-0.8933,-40.6688,-16.2,13.575,,adl
1.493875,-0.5856,-0.9752,1.2767,1.0088,-1.5379,-0.8971,-40.6688,-16.2,13.575,,adl
1.500052,-0.9051,-0.8438,0.4557,1.0088,-1.5379,-0.8971,-40.6688,-16.2,13.575,,adl
1.519321,-1.1131,-0.5925,0.0865,1.0088,-1.5379,-0.8971,-40.6688,-16.2,13.575,,adl
1.522749,-1.1131,-0.5925,0.0865,1.0088,-1.5379,-0.8971,-40.6688,-16.2,13.575,,adl
1.538064,-1.0231,-0.2783,0.2986,1.0088,-1.5379,-0.8971,-40.6688,-16.2,13.575,,adl
1.553016,-1.0231,-0.2783,0.2986,1.0088,-1.5379,-0.8971,-39.3,-17.3063,16.5375,,adl
1.556159,-1.0231,-0.2783,0.2986,0.8256,-0.5727,-0.4731,-39.3,-17.3063,16.5375,,adl
1.559006,-0.9785,-0.169,0.3211,0.8256,-0.5727,-0.4731,-39.3,-17.3063,16.5375,,adl
1.571272,-0.9785,-0.169,0.3211,0.8256,-0.5727,-0.4731,-39.3,-17.3063,16.5375,,adl
1.575749,-1.1865,-0.1871,0.0477,0.8256,-0.5727,-0.4731,-39.3,-17.3063,16.5375,,adl
1.595686,-1.2399,-0.318,-0.1416,0.8256,-0.5727,-0.4731,-39.3,-17.3063,16.5375,,adl
1.613198,-1.2399,-0.318,-0.1416,0.8256,-0.5727,-0.4731,-38.0438,-17.2125,17.6438,,adl
1.615619,-1.2548,-0.3452,-0.1952,0.8256,-0.5727,-0.4731,-38.0438,-17.2125,17.6438,,adl
1.618404,-1.2548,-0.3452,-0.1952,0.8256,-0.5727,-0.4731,-38.0438,-17.2125,17.6438,,adl
1.620209,-1.2548,-0.3452,-0.1952,0.701,-0.3125,-0.3021,-38.0438,-17.2125,17.6438,,adl
1.633571,-1.3158,-0.4887,-0.057,0.701,-0.3125,-0.3021,-38.0438,-17.2125,17.6438,,adl
1.653167,-1.3409,-0.5433,0.0243,0.701,-0.3125,-0.3021,-38.0438,-17.2125,17.6438,,adl
1.666331,-1.3409,-0.5433,0.0243,0.701,-0.3125,-0.3021,-38.0438,-17.2125,17.6438,,adl
1.670884,-1.4952,-0.8087,-0.3449,0.701,-0.3125,-0.3021,-38.0438,-17.2125,17.6438,,adl
1.671902,-1.4952,-0.8087,-0.3449,0.701,-0.3125,-0.3021,-35.7938,-17.625,18.3,,adl
1.679561,-1.4952,-0.8087,-0.3449,0.4799,-0.315,-0.2116,-35.7938,-17.625,18.3,,adl
1.690826,-1.4997,-1.1872,-0.3878,0.4799,-0.315,-0.2116,-35.7938,-17.625,18.3,,adl
1.710478,-1.3673,-1.3876,-0.2504,0.4799,-0.315,-0.2116,-35.7938,-17.625,18.3,,adl
1.714475,-1.3673,-1.3876,-0.2504,0.4799,-0.315,-0.2116,-35.7938,-17.625,18.3,,adl
1.729469,-1.421,-1.5657,0.148,0.4799,-0.315,-0.2116,-35.7938,-17.625,18.3,,adl
1.732721,-1.421,-1.5657,0.148,0.4799,-0.315,-0.2116,-35.8125,-17.3813,19.4438,,adl
1.74263,-1.421,-1.5657,0.148,0.2416,-0.095,-0.054,-35.8125,-17.3813,19.4438,,adl
1.747761,-1.6598,-1.5487,0.383,0.2416,-0.095,-0.054,-35.8125,-17.3813,19.4438,,adl
1.761973,-1.6598,-1.5487,0.383,0.2416,-0.095,-0.054,-35.8125,-17.3813,19.4438,,adl
1.76717,-1.9367,-1.4073,0.2495,0.2416,-0.095,-0.054,-35.8125,-17.3813,19.4438,,adl
1.787262,-2.0832,-1.3049,0.0121,0.2416,-0.095,-0.054,-35.8125,-17.3813,19.4438,,adl
1.793226,-2.0832,-1.3049,0.0121,0.2416,-0.095,-0.054,-35.4375,-17.3438,20.3813,,adl
1.805706,-2.0832,-1.3049,0.0121,0.2648,-0.084,0.2526,-35.4375,-17.3438,20.3813,,adl
1.809184,-1.5243,-1.8003,-0.4654,0.2648,-0.084,0.2526,-35.4375,-17.3438,20.3813,,adl
1.809887,-1.5243,-1.8003,-0.4654,0.2648,-0.084,0.2526,-35.4375,-17.3438,20.3813,,adl
1.824963,-1.1295,-2.3022,-1.0753,0.2648,-0.084,0.2526,-35.4375,-17.3438,20.3813,,adl
1.844177,-1.1111,-2.32,-0.7929,0.2648,-0.084,0.2526,-35.4375,-17.3438,20.3813,,adl
1.855692,-1.1111,-2.32,-0.7929,0.2648,-0.084,0.2526,-35.0813,-16.5563,20.2688,,adl
1.857943,-1.1111,-2.32,-0.7929,0.2648,-0.084,0.2526,-35.0813,-16.5563,20.2688,,adl
1.863766,-1.0491,-2.048,-0.3056,0.2648,-0.084,0.2526,-35.0813,-16.5563,20.2688,,adl
1.866737,-1.0491,-2.048,-0.3056,-0.2984,-0.3052,0.2941,-35.0813,-16.5563,20.2688,,adl
1.881634,-0.8653,-1.7072,0.222,-0.2984,-0.3052,0.2941,-35.0813,-16.5563,20.2688,,adl
1.901624,-0.569,-1.0698,0.3133,-0.2984,-0.3052,0.2941,-35.0813,-16.5563,20.2688,,adl
1.904916,-0.569,-1.0698,0.3133,-0.2984,-0.3052,0.2941,-35.0813,-16.5563,20.2688,,adl
1.913051,-0.569,-1.0698,0.3133,-0.2984,-0.3052,0.2941,-35.1938,-16.1813,20.6813,,adl
1.921933,-0.1797,-0.1527,0.0198,-0.2984,-0.3052,0.2941,-35.1938,-16.1813,20.6813,,adl
1.930417,-0.1797,-0.1527,0.0198,0.2098,0.2201,0.4749,-35.1938,-16.1813,20.6813,,adl
1.939568,-0.3101,0.4336,-0.3425,0.2098,0.2201,0.4749,-35.1938,-16.1813,20.6813,,adl
1.953079,-0.3101,0.4336,-0.3425,0.2098,0.2201,0.4749,-35.1938,-16.1813,20.6813,,adl
1.959499,-0.6459,0.8593,-0.8111,0.2098,0.2201,0.4749,-35.1938,-16.1813,20.6813,,adl
1.973522,-0.6459,0.8593,-0.8111,0.2098,0.2201,0.4749,-35.925,-14.9813,18.9563,,adl
1.977386,-0.5481,1.1224,-0.8441,0.2098,0.2201,0.4749,-35.925,-14.9813,18.9563,,adl
1.991562,-0.5481,1.1224,-0.8441,0.1708,0.2458,0.4371,-35.925,-14.9813,18.9563,,adl
1.99921,-0.1246,1.2117,-0.867,0.1708,0.2458,0.4371,-35.925,-14.9813,18.9563,,adl
2.000529,-0.1246,1.2117,-0.867,0.1708,0.2458,0.4371,-35.925,-14.9813,18.9563,,adl
2.015867,-0.0175,1.0594,-1.1271,0.1708,0.2458,0.4371,-35.925,-14.9813,18.9563,,adl
2.033327,-0.0175,1.0594,-1.1271,0.1708,0.2458,0.4371,-38.2313,-15.2813,18.7125,,adl
2.03664,-0.0413,0.506,-1.3467,0.1708,0.2458,0.4371,-38.2313,-15.2813,18.7125,,adl
2.048412,-0.0413,0.506,-1.3467,0.1708,0.2458,0.4371,-38.2313,-15.2813,18.7125,,adl
2.054132,-0.0413,0.506,-1.3467,-0.522,0.0894,0.062,-38.2313,-15.2813,18.7125,,adl
2.055227,-0.317,-0.3848,-1.075,-0.522,0.0894,0.062,-38.2313,-15.2813,18.7125,,adl
2.074608,-0.2226,-1.3527,-0.2191,-0.522,0.0894,0.062,-38.2313,-15.2813,18.7125,,adl
2.092552,-0.1461,-1.9545,1.2233,-0.522,0.0894,0.062,-38.2313,-15.2813,18.7125,,adl
2.094029,-0.1461,-1.9545,1.2233,-0.522,0.0894,0.062,-39.8438,-16.4625,19.3688,,adl
2.097191,-0.1461,-1.9545,1.2233,-0.522,0.0894,0.062,-39.8438,-16.4625,19.3688,,adl
2.111847,0.0009,-1.6671,1.8932,-0.522,0.0894,0.062,-39.8438,-16.4625,19.3688,,adl
2.115743,0.0009,-1.6671,1.8932,-0.5292,-0.2905,0.1928,-39.8438,-16.4625,19.3688,,adl
2.131283,0.0746,-0.918,1.7481,-0.5292,-0.2905,0.1928,-39.8438,-16.4625,19.3688,,adl
2.144519,0.0746,-0.918,1.7481,-0.5292,-0.2905,0.1928,-39.8438,-16.4625,19.3688,,adl
2.150409,-0.0711,0.0131,1.1861,-0.5292,-0.2905,0.1928,-39.8438,-16.4625,19.3688,,adl
2.153325,-0.0711,0.0131,1.1861,-0.5292,-0.2905,0.1928,-38.8125,-16.2375,21.9375,,adl
2.16947,-0.3777,0.7385,0.2907,-0.5292,-0.2905,0.1928,-38.8125,-16.2375,21.9375,,adl
2.177591,-0.3777,0.7385,0.2907,0.0547,-0.106,0.1573,-38.8125,-16.2375,21.9375,,adl
2.187968,-0.5276,0.9274,-0.5041,0.0547,-0.106,0.1573,-38.8125,-16.2375,21.9375,,adl
2.191766,-0.5276,0.9274,-0.5041,0.0547,-0.106,0.1573,-38.8125,-16.2375,21.9375,,adl
2.207538,-0.6359,0.7007,-0.6737,0.0547,-0.106,0.1573,-38.8125,-16.2375,21.9375,,adl
2.21311,-0.6359,0.7007,-0.6737,0.0547,-0.106,0.1573,-37.6688,-15.9563,23.0438,,adl
2.226547,-0.6038,0.2619,-0.288,0.0547,-0.106,0.1573,-37.6688,-15.9563,23.0438,,adl
2.240059,-0.6038,0.2619,-0.288,0.0547,-0.106,0.1573,-37.6688,-15.9563,23.0438,,adl
2.241223,-0.6038,0.2619,-0.288,-0.1763,0.0198,0.3259,-37.6688,-15.9563,23.0438,,adl
2.245112,-0.3595,0.1783,-0.0412,-0.1763,0.0198,0.3259,-37.6688,-15.9563,23.0438,,adl
2.265646,-0.1727,0.2551,0.0105,-0.1763,0.0198,0.3259,-37.6688,-15.9563,23.0438,,adl
2.272322,-0.1727,0.2551,0.0105,-0.1763,0.0198,0.3259,-36.6188,-15.5625,22.6125,,adl
2.283361,-0.0535,0.3953,-0.1718,-0.1763,0.0198,0.3259,-36.6188,-15.5625,22.6125,,adl
2.287469,-0.0535,0.3953,-0.1718,-0.1763,0.0198,0.3259,-36.6188,-15.5625,22.6125,,adl
2.302727,-0.0535,0.3953,-0.1718,-0.0553,0.0601,0.4249,-36.6188,-15.5625,22.6125,,adl
2.304031,0.1529,0.4508,-0.4201,-0.0553,0.0601,0.4249,-36.6188,-15.5625,22.6125,,adl
2.32236,0.0828,0.3512,-0.532,-0.0553,0.0601,0.4249,-36.6188,-15.5625,22.6125,,adl
2.333366,0.0828,0.3512,-0.532,-0.0553,0.0601,0.4249,-37.6313,-14.55,22.95,,adl
2.336073,0.0828,0.3512,-0.532,-0.0553,0.0601,0.4249,-37.6313,-14.55,22.95,,adl
2.342191,-0.0482,0.1791,-0.4276,-0.0553,0.0601,0.4249,-37.6313,-14.55,22.95,,adl
2.361631,0.1834,0.3072,-0.7435,-0.0553,0.0601,0.4249,-37.6313,-14.55,22.95,,adl
2.364744,0.1834,0.3072,-0.7435,-0.0688,0.1871,0.6643,-37.6313,-14.55,22.95,,adl
2.379808,0.696,0.4971,-1.0376,-0.0688,0.1871,0.6643,-37.6313,-14.55,22.95,,adl
2.382982,0.696,0.4971,-1.0376,-0.0688,0.1871,0.6643,-37.6313,-14.55,22.95,,adl
2.394501,0.696,0.4971,-1.0376,-0.0688,0.1871,0.6643,-37.7812,-13.4438,22.65,,adl
2.398494,1.0215,0.6685,-1.337,-0.0688,0.1871,0.6643,-37.7812,-13.4438,22.65,,adl
2.417888,1.2092,0.6823,-1.6911,-0.0688,0.1871,0.6643,-37.7812,-13.4438,22.65,,adl
2.426526,1.2092,0.6823,-1.6911,0.0632,0.0503,0.4469,-37.7812,-13.4438,22.65,,adl
2.430933,1.2092,0.6823,-1.6911,0.0632,0.0503,0.4469,-37.7812,-13.4438,22.65,,adl
2.43636,1.1441,0.444,-2.0267,0.0632,0.0503,0.4469,-37.7812,-13.4438,22.65,,adl
2.452951,1.1441,0.444,-2.0267,0.0632,0.0503,0.4469,-37.425,-12.3188,21.7125,,adl
2.455544,1.1196,0.2303,-1.9105,0.0632,0.0503,0.4469,-37.425,-12.3188,21.7125,,adl
2.474473,1.3686,0.0747,-1.8031,0.0632,0.0503,0.4469,-37.425,-12.3188,21.7125,,adl
2.478424,1.3686,0.0747,-1.8031,0.0632,0.0503,0.4469,-37.425,-12.3188,21.7125,,adl
2.488211,1.3686,0.0747,-1.8031,0.0241,-0.205,0.2416,-37.425,-12.3188,21.7125,,adl
2.494467,1.6215,0.1588,-1.7699,0.0241,-0.205,0.2416,-37.425,-12.3188,21.7125,,adl
2.513348,1.9201,-0.0601,-1.9809,0.0241,-0.205,0.2416,-37.425,-12.3188,21.7125,,adl
2.514645,1.9201,-0.0601,-1.9809,0.0241,-0.205,0.2416,-37.6688,-11.3438,22.05,,adl
2.52722,1.9201,-0.0601,-1.9809,0.0241,-0.205,0.2416,-37.6688,-11.3438,22.05,,adl
2.533181,1.8571,-1.4636,-2.1094,0.0241,-0.205,0.2416,-37.6688,-11.3438,22.05,,adl
2.551038,1.8571,-1.4636,-2.1094,-0.5562,-0.0609,-0.0578,-37.6688,-11.3438,22.05,,adl
2.552042,1.3334,-2.3886,-1.3014,-0.5562,-0.0609,-0.0578,-37.6688,-11.3438,22.05,,adl
2.57087,1.4382,-2.4012,-0.1993,-0.5562,-0.0609,-0.0578,-37.6688,-11.3438,22.05,,adl
2.575334,1.4382,-2.4012,-0.1993,-0.5562,-0.0609,-0.0578,-36.75,-11.9625,22.0125,,adl
2.577564,1.4382,-2.4012,-0.1993,-0.5562,-0.0609,-0.0578,-36.75,-11.9625,22.0125,,adl
2.589556,1.9872,-1.8021,0.1718,-0.5562,-0.0609,-0.0578,-36.75,-11.9625,22.0125,,adl
2.609115,2.3136,-1.4709,0.1431,-0.5562,-0.0609,-0.0578,-36.75,-11.9625,22.0125,,adl
2.613286,2.3136,-1.4709,0.1431,-0.0846,-0.2881,-0.0076,-36.75,-11.9625,22.0125,,adl
2.62282,2.3136,-1.4709,0.1431,-0.0846,-0.2881,-0.0076,-36.75,-11.9625,22.0125,,adl
2.627587,2.1452,-0.9148,0.0642,-0.0846,-0.2881,-0.0076,-36.75,-11.9625,22.0125,,adl
2.633161,2.1452,-0.9148,0.0642,-0.0846,-0.2881,-0.0076,-36.7688,-11.9813,22.425,,adl
2.646595,1.8805,-0.3599,-0.102,-0.0846,-0.2881,-0.0076,-36.7688,-11.9813,22.425,,adl
2.666797,1.5786,0.1761,-0.1633,-0.0846,-0.2881,-0.0076,-36.7688,-11.9813,22.425,,adl
2.670858,1.5786,0.1761,-0.1633,-0.0846,-0.2881,-0.0076,-36.7688,-11.9813,22.425,,adl
2.677755,1.5786,0.1761,-0.1633,0.0278,-0.5581,-0.4377,-36.7688,-11.9813,22.425,,adl
2.688355,1.2203,0.6243,-0.1019,0.0278,-0.5581,-0.4377,-36.7688,-11.9813,22.425,,adl
2.693342,1.2203,0.6243,-0.1019,0.0278,-0.5581,-0.4377,-36.3375,-13.35,23.6438,,adl
2.704738,0.6252,1.0126,-0.1042,0.0278,-0.5581,-0.4377,-36.3375,-13.35,23.6438,,adl
2.720782,0.6252,1.0126,-0.1042,0.0278,-0.5581,-0.4377,-36.3375,-13.35,23.6438,,adl
2.723651,-0.0327,1.4036,-0.0576,0.0278,-0.5581,-0.4377,-36.3375,-13.35,23.6438,,adl
2.737696,-0.0327,1.4036,-0.0576,0.1598,-0.5373,-0.5745,-36.3375,-13.35,23.6438,,adl
2.742597,-0.4241,1.5576,-0.0646,0.1598,-0.5373,-0.5745,-36.3375,-13.35,23.6438,,adl
2.753469,-0.4241,1.5576,-0.0646,0.1598,-0.5373,-0.5745,-35.4938,-14.9438,25.0688,,adl
2.765189,-0.5148,1.1817,-0.0878,0.1598,-0.5373,-0.5745,-35.4938,-14.9438,25.0688,,adl
2.768355,-0.5148,1.1817,-0.0878,0.1598,-0.5373,-0.5745,-35.4938,-14.9438,25.0688,,adl
2.780632,-0.5229,0.1558,-0.1161,0.1598,-0.5373,-0.5745,-35.4938,-14.9438,25.0688,,adl
2.799191,-0.5229,0.1558,-0.1161,-0.0663,-1.0125,-0.5171,-35.4938,-14.9438,25.0688,,adl
2.800153,-0.3793,-1.0884,0.2122,-0.0663,-1.0125,-0.5171,-35.4938,-14.9438,25.0688,,adl
2.813974,-0.3793,-1.0884,0.2122,-0.0663,-1.0125,-0.5171,-33.9188,-15.975,26.5688,,adl
2.816392,-0.3793,-1.0884,0.2122,-0.0663,-1.0125,-0.5171,-33.9188,-15.975,26.5688,,adl
2.82051,-0.2239,-1.7596,0.5801,-0.0663,-1.0125,-0.5171,-33.9188,-15.975,26.5688,,adl
2.838691,0.2432,-1.8425,0.9808,-0.0663,-1.0125,-0.5171,-33.9188,-15.975,26.5688,,adl
2.857684,0.7787,-1.4097,1.2929,-0.0663,-1.0125,-0.5171,-33.9188,-15.975,26.5688,,adl
2.862415,0.7787,-1.4097,1.2929,-0.0663,-1.0125,-0.5171,-33.9188,-15.975,26.5688,,adl
2.864621,0.7787,-1.4097,1.2929,0.051,-1.2459,-0.2716,-33.9188,-15.975,26.5688,,adl
2.873822,0.7787,-1.4097,1.2929,0.051,-1.2459,-0.2716,-32.3438,-16.3875,27.8813,,adl
2.876703,1.1344,-0.8908,1.3199,0.051,-1.2459,-0.2716,-32.3438,-16.3875,27.8813,,adl
2.895458,1.0083,-0.5725,1.2204,0.051,-1.2459,-0.2716,-32.3438,-16.3875,27.8813,,adl
2.909664,1.0083,-0.5725,1.2204,0.051,-1.2459,-0.2716,-32.3438,-16.3875,27.8813,,adl
2.915128,0.5583,-0.5066,1.2344,0.051,-1.2459,-0.2716,-32.3438,-16.3875,27.8813,,adl
2.92346,0.5583,-0.5066,1.2344,-0.0773,-0.5691,-0.8383,-32.3438,-16.3875,27.8813,,adl
2.93309,0.5583,-0.5066,1.2344,-0.0773,-0.5691,-0.8383,-29.1938,-17.7188,28.7063,,adl
2.934208,-0.173,-0.6899,1.2911,-0.0773,-0.5691,-0.8383,-29.1938,-17.7188,28.7063,,adl
2.953634,-0.697,-0.9798,1.393,-0.0773,-0.5691,-0.8383,-29.1938,-17.7188,28.7063,,adl
2.957481,-0.697,-0.9798,1.393,-0.0773,-0.5691,-0.8383,-29.1938,-17.7188,28.7063,,adl
2.972607,-1.0895,-1.1342,1.4331,-0.0773,-0.5691,-0.8383,-29.1938,-17.7188,28.7063,,adl
2.986792,-1.0895,-1.1342,1.4331,-0.0748,-0.4041,-0.9923,-29.1938,-17.7188,28.7063,,adl
2.99156,-1.4864,-1.037,1.4322,-0.0748,-0.4041,-0.9923,-29.1938,-17.7188,28.7063,,adl
2.992961,-1.4864,-1.037,1.4322,-0.0748,-0.4041,-0.9923,-27.2625,-19.5188,29.475,,adl
3.005633,-1.4864,-1.037,1.4322,-0.0748,-0.4041,-0.9923,-27.2625,-19.5188,29.475,,adl
3.01101,-1.7624,-0.9467,1.3598,-0.0748,-0.4041,-0.9923,-27.2625,-19.5188,29.475,,adl
3.031439,-2.0025,-0.8498,1.3103,-0.0748,-0.4041,-0.9923,-27.2625,-19.5188,29.475,,adl
3.04859,-2.0025,-0.8498,1.3103,-0.0675,-0.2783,-0.7858,-27.2625,-19.5188,29.475,,adl
3.052557,-2.2377,-0.714,1.2817,-0.0675,-0.2783,-0.7858,-27.2625,-19.5188,29.475,,adl
3.053771,-2.2377,-0.714,1.2817,-0.0675,-0.2783,-0.7858,-27.2625,-19.5188,29.475,,adl
3.054255,-2.2377,-0.714,1.2817,-0.0675,-0.2783,-0.7858,-24.675,-21.0188,30.0188,,adl
3.068599,-2.4825,-0.5787,1.3439,-0.0675,-0.2783,-0.7858,-24.675,-21.0188,30.0188,,adl
3.086746,-2.5629,-0.3959,1.2041,-0.0675,-0.2783,-0.7858,-24.675,-21.0188,30.0188,,adl
3.100603,-2.5629,-0.3959,1.2041,-0.0675,-0.2783,-0.7858,-24.675,-21.0188,30.0188,,adl
3.106667,-2.6192,-0.3985,1.0841,-0.0675,-0.2783,-0.7858,-24.675,-21.0188,30.0188,,adl
3.110361,-2.6192,-0.3985,1.0841,0.0363,0.0308,-0.4169,-24.675,-21.0188,30.0188,,adl
3.113448,-2.6192,-0.3985,1.0841,0.0363,0.0308,-0.4169,-23.55,-22.2375,29.9625,,adl
3.125571,-2.7988,-0.5005,1.0049,0.0363,0.0308,-0.4169,-23.55,-22.2375,29.9625,,adl
3.144667,-2.7652,-0.8079,0.8702,0.0363,0.0308,-0.4169,-23.55,-22.2375,29.9625,,adl
3.14879,-2.7652,-0.8079,0.8702,0.0363,0.0308,-0.4169,-23.55,-22.2375,29.9625,,adl
3.164249,-2.6638,-1.2486,0.729,0.0363,0.0308,-0.4169,-23.55,-22.2375,29.9625,,adl
3.171705,-2.6638,-1.2486,0.729,-0.0125,-0.0609,-0.0675,-23.55,-22.2375,29.9625,,adl
3.176434,-2.6638,-1.2486,0.729,-0.0125,-0.0609,-0.0675,-22.8563,-22.65,29.9438,,adl
3.184665,-2.5831,-1.6958,0.539,-0.0125,-0.0609,-0.0675,-22.8563,-22.65,29.9438,,adl
3.196114,-2.5831,-1.6958,0.539,-0.0125,-0.0609,-0.0675,-22.8563,-22.65,29.9438,,adl
3.201738,-2.4028,-2.0079,0.4383,-0.0125,-0.0609,-0.0675,-22.8563,-22.65,29.9438,,adl
3.220925,-1.9585,-2.1571,0.2791,-0.0125,-0.0609,-0.0675,-22.8563,-22.65,29.9438,,adl
3.233272,-1.9585,-2.1571,0.2791,-0.0125,-0.0609,-0.0675,-22.8563,-22.575,30.3563,,adl
3.2361,-1.9585,-2.1571,0.2791,0.0045,-0.0377,0.3711,-22.8563,-22.575,30.3563,,adl
3.239859,-1.3242,-2.7547,-0.5013,0.0045,-0.0377,0.3711,-22.8563,-22.575,30.3563,,adl
3.244043,-1.3242,-2.7547,-0.5013,0.0045,-0.0377,0.3711,-22.8563,-22.575,30.3563,,adl
3.259109,-1.1652,-3.3251,-0.9226,0.0045,-0.0377,0.3711,-22.8563,-22.575,30.3563,,adl
3.278435,-1.136,-3.7209,-0.6991,0.0045,-0.0377,0.3711,-22.8563,-22.575,30.3563,,adl
3.292683,-1.136,-3.7209,-0.6991,0.0045,-0.0377,0.3711,-22.8563,-22.575,30.3563,,adl
3.295577,-1.136,-3.7209,-0.6991,0.0045,-0.0377,0.3711,-23.175,-21.9938,29.2313,,adl
3.297264,-1.136,-3.7209,-0.6991,-0.522,0.2006,0.74,-23.175,-21.9938,29.2313,,adl
3.297853,-1.2091,-3.6429,0.3177,-0.522,0.2006,0.74,-23.175,-21.9938,29.2313,,adl
3.316408,-0.9817,-2.4541,1.4349,-0.522,0.2006,0.74,-23.175,-21.9938,29.2313,,adl
3.336607,-0.1197,-0.3829,1.8307,-0.522,0.2006,0.74,-23.175,-21.9938,29.2313,,adl
3.340388,-0.1197,-0.3829,1.8307,-0.522,0.2006,0.74,-23.175,-21.9938,29.2313,,adl
3.353791,-0.1197,-0.3829,1.8307,-0.522,0.2006,0.74,-25.3688,-20.4938,28.275,,adl
3.357512,0.1071,1.0968,0.894,-0.522,0.2006,0.74,-25.3688,-20.4938,28.275,,adl
3.360014,0.1071,1.0968,0.894,0.6447,0.5475,0.8536,-25.3688,-20.4938,28.275,,adl
3.37441,-0.2622,1.9483,-0.3417,0.6447,0.5475,0.8536,-25.3688,-20.4938,28.275,,adl
3.388306,-0.2622,1.9483,-0.3417,0.6447,0.5475,0.8536,-25.3688,-20.4938,28.275,,adl
3.393051,-0.6962,2.169,-1.4289,0.6447,0.5475,0.8536,-25.3688,-20.4938,28.275,,adl
3.412246,-1.2271,1.7029,-1.9851,0.6447,0.5475,0.8536,-25.3688,-20.4938,28.275,,adl
3.415982,-1.2271,1.7029,-1.9851,0.6447,0.5475,0.8536,-28.425,-19.2,26.4938,,adl
3.421529,-1.2271,1.7029,-1.9851,0.2721,0.2971,0.3894,-28.425,-19.2,26.4938,,adl
3.431718,-1.3363,0.5666,-1.9995,0.2721,0.2971,0.3894,-28.425,-19.2,26.4938,,adl
3.435183,-1.3363,0.5666,-1.9995,0.2721,0.2971,0.3894,-28.425,-19.2,26.4938,,adl
3.449864,-1.0753,-0.682,-1.4125,0.2721,0.2971,0.3894,-28.425,-19.2,26.4938,,adl
3.469647,-0.5088,-1.751,-0.4068,0.2721,0.2971,0.3894,-28.425,-19.2,26.4938,,adl
3.473929,-0.5088,-1.751,-0.4068,0.2721,0.2971,0.3894,-30.5813,-19.2,29.2688,,adl
3.483571,-0.5088,-1.751,-0.4068,0.2721,0.2971,0.3894,-30.5813,-19.2,29.2688,,adl
3.48503,-0.5088,-1.751,-0.4068,-0.3814,0.1273,0.927,-30.5813,-19.2,29.2688,,adl
3.487887,0.2553,-2.0039,0.6774,-0.3814,0.1273,0.927,-30.5813,-19.2,29.2688,,adl
3.50869,1.2562,-1.2515,1.2468,-0.3814,0.1273,0.927,-30.5813,-19.2,29.2688,,adl
3.52764,2.0552,-0.3091,0.979,-0.3814,0.1273,0.927,-30.5813,-19.2,29.2688,,adl
3.53126,2.0552,-0.3091,0.979,-0.3814,0.1273,0.927,-30.5813,-19.2,29.2688,,adl
3.533342,2.0552,-0.3091,0.979,-0.3814,0.1273,0.927,-29.7,-17.3063,30.2813,,adl
3.545057,2.0552,-0.3091,0.979,0.58,0.1933,0.696,-29.7,-17.3063,30.2813,,adl
3.546557,2.2098,0.4639,0.1387,0.58,0.1933,0.696,-29.7,-17.3063,30.2813,,adl
3.565047,1.6181,0.9432,-0.774,0.58,0.1933,0.696,-29.7,-17.3063,30.2813,,adl
3.57921,1.6181,0.9432,-0.774,0.58,0.1933,0.696,-29.7,-17.3063,30.2813,,adl
3.58449,1.1187,1.136,-1.2724,0.58,0.1933,0.696,-29.7,-17.3063,30.2813,,adl
3.593093,1.1187,1.136,-1.2724,0.58,0.1933,0.696,-29.5875,-15.3188,30.0938,,adl
3.603659,0.8121,1.277,-1.5914,0.58,0.1933,0.696,-29.5875,-15.3188,30.0938,,adl
3.609706,0.8121,1.277,-1.5914,0.4126,0.1651,0.2721,-29.5875,-15.3188,30.0938,,adl
3.621785,0.8716,1.3024,-1.6851,0.4126,0.1651,0.2721,-29.5875,-15.3188,30.0938,,adl
3.625734,0.8716,1.3024,-1.6851,0.4126,0.1651,0.2721,-29.5875,-15.3188,30.0938,,adl
3.642026,0.8383,1.1208,-1.5465,0.4126,0.1651,0.2721,-29.5875,-15.3188,30.0938,,adl
3.655714,0.8383,1.1208,-1.5465,0.4126,0.1651,0.2721,-29.9625,-13.6313,30.3188,,adl
3.661688,0.8532,0.8377,-1.1973,0.4126,0.1651,0.2721,-29.9625,-13.6313,30.3188,,adl
3.669822,0.8532,0.8377,-1.1973,-0.0785,0.1823,0.2183,-29.9625,-13.6313,30.3188,,adl
3.674585,0.8532,0.8377,-1.1973,-0.0785,0.1823,0.2183,-29.9625,-13.6313,30.3188,,adl
3.679482,0.9818,0.5756,-0.7997,-0.0785,0.1823,0.2183,-29.9625,-13.6313,30.3188,,adl
3.699095,0.9265,0.3531,-0.2837,-0.0785,0.1823,0.2183,-29.9625,-13.6313,30.3188,,adl
3.714422,0.9265,0.3531,-0.2837,-0.0785,0.1823,0.2183,-29.9813,-12.9938,29.7,,adl
3.717605,0.9328,0.478,-0.0861,-0.0785,0.1823,0.2183,-29.9813,-12.9938,29.7,,adl
3.721699,0.9328,0.478,-0.0861,-0.0785,0.1823,0.2183,-29.9813,-12.9938,29.7,,adl
3.731595,0.9328,0.478,-0.0861,0.1695,0.2629,0.2746,-29.9813,-12.9938,29.7,,adl
3.737104,1.118,0.7555,-0.3245,0.1695,0.2629,0.2746,-29.9813,-12.9938,29.7,,adl
3.762111,1.1718,0.8026,-0.7066,0.1695,0.2629,0.2746,-29.9813,-12.9938,29.7,,adl
3.7704,1.1718,0.8026,-0.7066,0.1695,0.2629,0.2746,-29.9813,-12.9938,29.7,,adl
3.772521,1.1718,0.8026,-0.7066,0.1695,0.2629,0.2746,-30.2813,-12.5625,29.1938,,adl
3.778227,1.0399,0.67,-0.9936,0.1695,0.2629,0.2746,-30.2813,-12.5625,29.1938,,adl
3.794172,1.0399,0.67,-0.9936,0.3076,-0.0707,0.106,-30.2813,-12.5625,29.1938,,adl
3.79609,1.0536,0.5925,-1.2671,0.3076,-0.0707,0.106,-30.2813,-12.5625,29.1938,,adl
3.814439,1.2584,0.3541,-1.4841,0.3076,-0.0707,0.106,-30.2813,-12.5625,29.1938,,adl
3.818314,1.2584,0.3541,-1.4841,0.3076,-0.0707,0.106,-30.2813,-12.5625,29.1938,,adl
3.833469,1.149,-0.0273,-1.6368,0.3076,-0.0707,0.106,-30.2813,-12.5625,29.1938,,adl
3.837509,1.149,-0.0273,-1.6368,0.3076,-0.0707,0.106,-29.6438,-11.7563,30.1125,,adl
3.852144,0.9856,-0.2727,-1.7831,0.3076,-0.0707,0.106,-29.6438,-11.7563,30.1125,,adl
3.857075,0.9856,-0.2727,-1.7831,0.2526,-0.4286,0.034,-29.6438,-11.7563,30.1125,,adl
3.866001,0.9856,-0.2727,-1.7831,0.2526,-0.4286,0.034,-29.6438,-11.7563,30.1125,,adl
3.871102,1.1817,-0.3078,-1.674,0.2526,-0.4286,0.034,-29.6438,-11.7563,30.1125,,adl
3.894765,1.3959,-0.1664,-1.3,0.2526,-0.4286,0.034,-29.6438,-11.7563,30.1125,,adl
3.896275,1.3959,-0.1664,-1.3,0.2526,-0.4286,0.034,-28.6875,-11.3813,30.1875,,adl
3.911063,1.3816,-0.0204,-1.1526,0.2526,-0.4286,0.034,-28.6875,-11.3813,30.1875,,adl
3.914995,1.3816,-0.0204,-1.1526,0.2526,-0.4286,0.034,-28.6875,-11.3813,30.1875,,adl
3.920249,1.3816,-0.0204,-1.1526,0.2526,-0.172,-0.0272,-28.6875,-11.3813,30.1875,,adl
3.928717,1.1609,-1.0611,-1.73,0.2526,-0.172,-0.0272,-28.6875,-11.3813,30.1875,,adl
3.948039,0.6347,-2.4924,-1.5426,0.2526,-0.172,-0.0272,-28.6875,-11.3813,30.1875,,adl
3.954506,0.6347,-2.4924,-1.5426,0.2526,-0.172,-0.0272,-28.275,-10.0875,31.3313,,adl
3.960929,0.6347,-2.4924,-1.5426,0.2526,-0.172,-0.0272,-28.275,-10.0875,31.3313,,adl
3.967043,0.6472,-2.8316,-0.813,0.2526,-0.172,-0.0272,-28.275,-10.0875,31.3313,,adl
3.980341,0.6472,-2.8316,-0.813,0.0583,-0.3761,0.4396,-28.275,-10.0875,31.3313,,adl
3.988571,1.3228,-2.9677,0.0164,0.0583,-0.3761,0.4396,-28.275,-10.0875,31.3313,,adl
4.004643,2.1586,-2.4517,0.6927,0.0583,-0.3761,0.4396,-28.275,-10.0875,31.3313,,adl
4.00974,2.1586,-2.4517,0.6927,0.0583,-0.3761,0.4396,-28.275,-10.0875,31.3313,,adl
4.01217,2.1586,-2.4517,0.6927,0.0583,-0.3761,0.4396,-27.6563,-8.5125,31.425,,adl
4.023977,2.2835,-0.8725,0.7666,0.0583,-0.3761,0.4396,-27.6563,-8.5125,31.425,,adl
4.042825,2.2835,-0.8725,0.7666,0.8745,-0.9148,0.0363,-27.6563,-8.5125,31.425,,adl
4.04619,1.8696,0.4879,0.2124,0.8745,-0.9148,0.0363,-27.6563,-8.5125,31.425,,adl
4.056676,1.8696,0.4879,0.2124,0.8745,-0.9148,0.0363,-27.6563,-8.5125,31.425,,adl
4.062477,0.9878,1.2492,-0.2735,0.8745,-0.9148,0.0363,-27.6563,-8.5125,31.425,,adl
4.072379,0.9878,1.2492,-0.2735,0.8745,-0.9148,0.0363,-24.6563,-6.0563,33.45,,adl
4.082541,-0.224,1.1871,-0.0275,0.8745,-0.9148,0.0363,-24.6563,-6.0563,33.45,,adl
4.101039,-1.0053,1.7241,-0.5773,0.8745,-0.9148,0.0363,-24.6563,-6.0563,33.45,,adl
4.104733,-1.0053,1.7241,-0.5773,0.8745,-0.9148,0.0363,-24.6563,-6.0563,33.45,,adl
4.105652,-1.0053,1.7241,-0.5773,1.0394,-0.9038,-0.164,-24.6563,-6.0563,33.45,,adl
4.119559,-0.5963,0.6591,-0.3149,1.0394,-0.9038,-0.164,-24.6563,-6.0563,33.45,,adl
4.134298,-0.5963,0.6591,-0.3149,1.0394,-0.9038,-0.164,-23.1375,-3.2063,34.7625,,adl
4.13922,-0.7494,-0.3848,0.4548,1.0394,-0.9038,-0.164,-23.1375,-3.2063,34.7625,,adl
4.151773,-0.7494,-0.3848,0.4548,1.0394,-0.9038,-0.164,-23.1375,-3.2063,34.7625,,adl
4.158554,-0.4842,-2.0269,1.8745,1.0394,-0.9038,-0.164,-23.1375,-3.2063,34.7625,,adl
4.16717,-0.4842,-2.0269,1.8745,1.2372,-1.5892,-0.5782,-23.1375,-3.2063,34.7625,,adl
4.177467,-1.6805,-2.2527,2.3922,1.2372,-1.5892,-0.5782,-23.1375,-3.2063,34.7625,,adl
4.193895,-1.6805,-2.2527,2.3922,1.2372,-1.5892,-0.5782,-21.3,-0.8813,34.8375,,adl
4.197792,-2.5778,-2.118,2.1899,1.2372,-1.5892,-0.5782,-21.3,-0.8813,34.8375,,adl
4.200306,-2.5778,-2.118,2.1899,1.2372,-1.5892,-0.5782,-21.3,-0.8813,34.8375,,adl
4.216585,-1.9675,-1.5419,1.1484,1.2372,-1.5892,-0.5782,-21.3,-0.8813,34.8375,,adl
4.228993,-1.9675,-1.5419,1.1484,1.346,-2.1989,0.5519,-21.3,-0.8813,34.8375,,adl
4.233997,-0.8013,-1.1252,0.6966,1.346,-2.1989,0.5519,-21.3,-0.8813,34.8375,,adl
4.2487,-0.8013,-1.1252,0.6966,1.346,-2.1989,0.5519,-21.3,-0.8813,34.8375,,adl
4.256087,0.1472,-0.5106,0.0485,1.346,-2.1989,0.5519,-21.3,-0.8813,34.8375,,adl
4.257844,0.1472,-0.5106,0.0485,1.346,-2.1989,0.5519,-18.9,2.7,33.225,,adl
4.273146,0.2639,0.6217,1.161,1.346,-2.1989,0.5519,-18.9,2.7,33.225,,adl
4.291684,0.2639,0.6217,1.161,0.5006,-1.9301,0.2953,-18.9,2.7,33.225,,adl
4.295715,0.8212,0.3266,0.3616,0.5006,-1.9301,0.2953,-18.9,2.7,33.225,,adl
4.297474,0.8212,0.3266,0.3616,0.5006,-1.9301,0.2953,-18.9,2.7,33.225,,adl
4.310696,1.1475,0.6829,1.1803,0.5006,-1.9301,0.2953,-18.9,2.7,33.225,,adl
4.312382,1.1475,0.6829,1.1803,0.5006,-1.9301,0.2953,-14.3625,4.95,29.3813,,adl
4.330472,0.8638,0.7168,0.1633,0.5006,-1.9301,0.2953,-14.3625,4.95,29.3813,,adl
4.344794,0.8638,0.7168,0.1633,0.5006,-1.9301,0.2953,-14.3625,4.95,29.3813,,adl
4.349496,0.7014,0.5294,0.0687,0.5006,-1.9301,0.2953,-14.3625,4.95,29.3813,,adl
4.354103,0.7014,0.5294,0.0687,0.15,-2.0534,-1.1084,-14.3625,4.95,29.3813,,adl
4.367972,0.0449,0.3442,-0.5913,0.15,-2.0534,-1.1084,-14.3625,4.95,29.3813,,adl
4.376299,0.0449,0.3442,-0.5913,0.15,-2.0534,-1.1084,-8.8875,4.7625,28.1813,,adl
4.387904,-0.6879,-0.1007,-0.8949,0.15,-2.0534,-1.1084,-8.8875,4.7625,28.1813,,adl
4.39158,-0.6879,-0.1007,-0.8949,0.15,-2.0534,-1.1084,-8.8875,4.7625,28.1813,,adl
4.407102,-1.3771,-0.6919,-0.5447,0.15,-2.0534,-1.1084,-8.8875,4.7625,28.1813,,adl
4.415129,-1.3771,-0.6919,-0.5447,-1.0119,-0.8403,-1.6728,-8.8875,4.7625,28.1813,,adl
4.425474,-2.0577,-1.314,0.3794,-1.0119,-0.8403,-1.6728,-8.8875,4.7625,28.1813,,adl
4.432779,-2.0577,-1.314,0.3794,-1.0119,-0.8403,-1.6728,-6.075,1.6875,31.7063,,adl
4.439508,-2.0577,-1.314,0.3794,-1.0119,-0.8403,-1.6728,-6.075,1.6875,31.7063,,adl
4.44505,-2.6053,-1.646,1.3451,-1.0119,-0.8403,-1.6728,-6.075,1.6875,31.7063,,adl
4.464351,-2.6457,-1.6294,2.0588,-1.0119,-0.8403,-1.6728,-6.075,1.6875,31.7063,,adl
4.477507,-2.6457,-1.6294,2.0588,-0.792,0.9922,-0.8506,-6.075,1.6875,31.7063,,adl
4.483344,-2.3353,-1.5225,2.1711,-0.792,0.9922,-0.8506,-6.075,1.6875,31.7063,,adl
4.488568,-2.3353,-1.5225,2.1711,-0.792,0.9922,-0.8506,-6.075,1.6875,31.7063,,adl
4.493103,-2.3353,-1.5225,2.1711,-0.792,0.9922,-0.8506,-7.275,-2.6063,33.0563,,adl
4.502615,-2.3914,-1.6151,1.9881,-0.792,0.9922,-0.8506,-7.275,-2.6063,33.0563,,adl
4.521892,-2.7296,-1.8333,1.3581,-0.792,0.9922,-0.8506,-7.275,-2.6063,33.0563,,adl
4.536266,-2.7296,-1.8333,1.3581,-0.792,0.9922,-0.8506,-7.275,-2.6063,33.0563,,adl
4.539705,-2.7296,-1.8333,1.3581,-0.4389,0.7271,-0.8995,-7.275,-2.6063,33.0563,,adl
4.541927,-3.3885,-2.1814,1.0734,-0.4389,0.7271,-0.8995,-7.275,-2.6063,33.0563,,adl
4.553371,-3.3885,-2.1814,1.0734,-0.4389,0.7271,-0.8995,-9.6938,-5.3438,33.6375,,adl
4.559935,-3.8024,-2.1459,0.9979,-0.4389,0.7271,-0.8995,-9.6938,-5.3438,33.6375,,adl
4.579732,-3.7571,-2.212,0.7872,-0.4389,0.7271,-0.8995,-9.6938,-5.3438,33.6375,,adl
4.583865,-3.7571,-2.212,0.7872,-0.4389,0.7271,-0.8995,-9.6938,-5.3438,33.6375,,adl
4.598179,-3.5932,-2.1027,0.9637,-0.4389,0.7271,-0.8995,-9.6938,-5.3438,33.6375,,adl
4.602602,-3.5932,-2.1027,0.9637,-0.2849,0.2164,0.0058,-9.6938,-5.3438,33.6375,,adl
4.613348,-3.5932,-2.1027,0.9637,-0.2849,0.2164,0.0058,-10.9688,-7.275,33.45,,adl
4.617039,-3.5528,-2.2787,0.2006,-0.2849,0.2164,0.0058,-10.9688,-7.275,33.45,,adl
4.630961,-3.5528,-2.2787,0.2006,-0.2849,0.2164,0.0058,-10.9688,-7.275,33.45,,adl
4.63676,-2.1678,-2.497,0.2319,-0.2849,0.2164,0.0058,-10.9688,-7.275,33.45,,adl
4.655746,-2.8184,-3.4095,0.3068,-0.2849,0.2164,0.0058,-10.9688,-7.275,33.45,,adl
4.667334,-2.8184,-3.4095,0.3068,-0.6698,0.1847,0.3809,-10.9688,-7.275,33.45,,adl
4.672713,-2.8184,-3.4095,0.3068,-0.6698,0.1847,0.3809,-10.8,-9.1313,33.0188,,adl
4.673957,-2.8827,-3.4445,0.721,-0.6698,0.1847,0.3809,-10.8,-9.1313,33.0188,,adl
4.677843,-2.8827,-3.4445,0.721,-0.6698,0.1847,0.3809,-10.8,-9.1313,33.0188,,adl
4.693502,-2.4186,-3.158,1.277,-0.6698,0.1847,0.3809,-10.8,-9.1313,33.0188,,adl
4.713079,-2.0947,-2.1742,1.4779,-0.6698,0.1847,0.3809,-10.8,-9.1313,33.0188,,adl
4.727,-2.0947,-2.1742,1.4779,-0.6698,0.1847,0.3809,-10.8,-9.1313,33.0188,,adl
4.730072,-2.0947,-2.1742,1.4779,0.0473,0.7956,1.2935,-10.8,-9.1313,33.0188,,adl
4.733278,-1.4854,-0.7283,1.3994,0.0473,0.7956,1.2935,-10.8,-9.1313,33.0188,,adl
4.734109,-1.4854,-0.7283,1.3994,0.0473,0.7956,1.2935,-11.3813,-8.6625,31.8938,,adl
4.750783,-1.2757,0.5764,0.4526,0.0473,0.7956,1.2935,-11.3813,-8.6625,31.8938,,adl
4.770649,-1.057,1.4517,0.0721,0.0473,0.7956,1.2935,-11.3813,-8.6625,31.8938,,adl
4.774718,-1.057,1.4517,0.0721,0.0473,0.7956,1.2935,-11.3813,-8.6625,31.8938,,adl
4.78904,-1.057,1.4517,0.0721,0.5959,0.7443,1.2189,-11.3813,-8.6625,31.8938,,adl
4.792995,-0.9295,1.8075,-0.3745,0.5959,0.7443,1.2189,-11.3813,-8.6625,31.8938,,adl
4.793908,-0.9295,1.8075,-0.3745,0.5959,0.7443,1.2189,-15.0375,-8.1562,25.1438,,adl
4.807891,-0.6843,1.5708,-0.8223,0.5959,0.7443,1.2189,-15.0375,-8.1562,25.1438,,adl
4.822491,-0.6843,1.5708,-0.8223,0.5959,0.7443,1.2189,-15.0375,-8.1562,25.1438,,adl
4.828028,-0.4842,0.9031,-1.3901,0.5959,0.7443,1.2189,-15.0375,-8.1562,25.1438,,adl
4.847389,-0.3542,-0.5214,-1.881,0.5959,0.7443,1.2189,-15.0375,-8.1562,25.1438,,adl
4.850267,-0.3542,-0.5214,-1.881,0.1108,-0.0389,0.938,-15.0375,-8.1562,25.1438,,adl
4.856154,-0.3542,-0.5214,-1.881,0.1108,-0.0389,0.938,-24.15,-12.45,29.025,,adl
4.865201,-0.2524,-1.8516,-1.4321,0.1108,-0.0389,0.938,-24.15,-12.45,29.025,,adl
4.8695,-0.2524,-1.8516,-1.4321,0.1108,-0.0389,0.938,-24.15,-12.45,29.025,,adl
4.885209,-0.1891,-2.7227,-0.2042,0.1108,-0.0389,0.938,-24.15,-12.45,29.025,,adl
4.904488,0.2571,-2.2119,1.3814,0.1108,-0.0389,0.938,-24.15,-12.45,29.025,,adl
4.91374,0.2571,-2.2119,1.3814,-0.2434,-0.3785,1.6478,-24.15,-12.45,29.025,,adl
4.92034,0.2571,-2.2119,1.3814,-0.2434,-0.3785,1.6478,-17.4563,-6.675,35.1,,adl
4.921855,0.2571,-2.2119,1.3814,-0.2434,-0.3785,1.6478,-17.4563,-6.675,35.1,,adl
4.922563,1.2034,-1.3394,2.2552,-0.2434,-0.3785,1.6478,-17.4563,-6.675,35.1,,adl
4.942602,2.392,-0.716,1.7783,-0.2434,-0.3785,1.6478,-17.4563,-6.675,35.1,,adl
4.961716,3.139,-0.3929,0.5359,-0.2434,-0.3785,1.6478,-17.4563,-6.675,35.1,,adl
4.965723,3.139,-0.3929,0.5359,-0.2434,-0.3785,1.6478,-17.4563,-6.675,35.1,,adl
4.97363,3.139,-0.3929,0.5359,-0.2434,-0.3785,1.6478,-14.4,-2.55,34.2,,adl
4.976404,3.139,-0.3929,0.5359,1.1957,-0.8342,1.2592,-14.4,-2.55,34.2,,adl
4.983958,2.9251,-0.1497,-1.0464,1.1957,-0.8342,1.2592,-14.4,-2.55,34.2,,adl
4.999283,2.3479,0.0119,-2.3196,1.1957,-0.8342,1.2592,-14.4,-2.55,34.2,,adl
5.013921,2.3479,0.0119,-2.3196,1.1957,-0.8342,1.2592,-14.4,-2.55,34.2,,adl
5.019085,2.1685,0.3598,-3.1447,1.1957,-0.8342,1.2592,-14.4,-2.55,34.2,,adl
5.034202,2.1685,0.3598,-3.1447,1.1957,-0.8342,1.2592,-11.7,0.6188,34.4625,,adl
5.038236,2.1685,0.3598,-3.1447,0.9991,-1.1151,1.0479,-11.7,0.6188,34.4625,,adl
5.040431,2.3844,0.6408,-3.1938,0.9991,-1.1151,1.0479,-11.7,0.6188,34.4625,,adl
5.057067,2.6617,0.5808,-2.5865,0.9991,-1.1151,1.0479,-11.7,0.6188,34.4625,,adl
5.061128,2.6617,0.5808,-2.5865,0.9991,-1.1151,1.0479,-11.7,0.6188,34.4625,,adl
5.075386,2.8667,0.4216,-2.1045,0.9991,-1.1151,1.0479,-11.7,0.6188,34.4625,,adl
5.093734,2.8667,0.4216,-2.1045,0.9991,-1.1151,1.0479,-9.375,2.9625,35.3438,,adl
5.097412,2.7925,0.3386,-1.9369,0.9991,-1.1151,1.0479,-9.375,2.9625,35.3438,,adl
5.100046,2.7925,0.3386,-1.9369,0.5605,-1.1481,0.8513,-9.375,2.9625,35.3438,,adl
5.108646,2.7925,0.3386,-1.9369,0.5605,-1.1481,0.8513,-9.375,2.9625,35.3438,,adl
5.114674,2.6863,0.2854,-1.9624,0.5605,-1.1481,0.8513,-9.375,2.9625,35.3438,,adl
5.134129,2.4968,0.3338,-2.1346,0.5605,-1.1481,0.8513,-9.375,2.9625,35.3438,,adl
5.153009,2.3917,0.3589,-2.3212,0.5605,-1.1481,0.8513,-9.375,2.9625,35.3438,,adl
5.156371,2.3917,0.3589,-2.3212,0.5605,-1.1481,0.8513,-5.9438,4.425,35.6625,,adl
5.159202,2.3917,0.3589,-2.3212,0.5605,-1.1481,0.8513,-5.9438,4.425,35.6625,,adl
5.161313,2.3917,0.3589,-2.3212,0.6057,-1.6858,0.6692,-5.9438,4.425,35.6625,,adl
5.171412,2.4952,0.3331,-2.4854,0.6057,-1.6858,0.6692,-5.9438,4.425,35.6625,,adl
5.190903,2.674,0.3948,-2.4187,0.6057,-1.6858,0.6692,-5.9438,4.425,35.6625,,adl
5.204733,2.674,0.3948,-2.4187,0.6057,-1.6858,0.6692,-5.9438,4.425,35.6625,,adl
5.21014,2.7316,0.4966,-2.1645,0.6057,-1.6858,0.6692,-5.9438,4.425,35.6625,,adl
5.212438,2.7316,0.4966,-2.1645,0.6057,-1.6858,0.6692,-1.6875,4.8375,36.4875,,adl
5.224591,2.7316,0.4966,-2.1645,0.1341,-2.299,0.0522,-1.6875,4.8375,36.4875,,adl
5.229342,2.5022,0.6435,-1.7424,0.1341,-2.299,0.0522,-1.6875,4.8375,36.4875,,adl
5.249357,1.8153,0.6299,-1.1628,0.1341,-2.299,0.0522,-1.6875,4.8375,36.4875,,adl
5.251915,1.8153,0.6299,-1.1628,0.1341,-2.299,0.0522,-1.6875,4.8375,36.4875,,adl
5.266872,1.2166,0.7671,-0.3971,0.1341,-2.299,0.0522,-1.6875,4.8375,36.4875,,adl
5.272639,1.2166,0.7671,-0.3971,0.1341,-2.299,0.0522,3.2063,3.9375,37.6875,,adl
5.285748,1.2166,0.7671,-0.3971,-0.3033,-2.6143,-0.2971,3.2063,3.9375,37.6875,,adl
5.287347,0.9104,0.5288,0.4284,-0.3033,-2.6143,-0.2971,3.2063,3.9375,37.6875,,adl
5.300011,0.9104,0.5288,0.4284,-0.3033,-2.6143,-0.2971,3.2063,3.9375,37.6875,,adl
5.305731,0.3221,0.07,1.4975,-0.3033,-2.6143,-0.2971,3.2063,3.9375,37.6875,,adl
5.324549,-0.1841,-0.4214,2.2398,-0.3033,-2.6143,-0.2971,3.2063,3.9375,37.6875,,adl
5.333241,-0.1841,-0.4214,2.2398,-0.3033,-2.6143,-0.2971,9.6375,1.9688,37.4813,,adl
5.34495,-0.5301,-0.6291,2.702,-0.3033,-2.6143,-0.2971,9.6375,1.9688,37.4813,,adl
5.34877,-0.5301,-0.6291,2.702,-0.3033,-2.6143,-0.2971,9.6375,1.9688,37.4813,,adl
5.350752,-0.5301,-0.6291,2.702,-0.4389,-2.6839,-0.3461,9.6375,1.9688,37.4813,,adl
5.363027,-0.6531,-1.2634,2.8579,-0.4389,-2.6839,-0.3461,9.6375,1.9688,37.4813,,adl
5.382804,-1.0184,-1.8644,2.8743,-0.4389,-2.6839,-0.3461,9.6375,1.9688,37.4813,,adl
5.3932,-1.0184,-1.8644,2.8743,-0.4389,-2.6839,-0.3461,15.15,0.8438,36.6938,,adl
5.397269,-1.0184,-1.8644,2.8743,-0.4389,-2.6839,-0.3461,15.15,0.8438,36.6938,,adl
5.400383,-1.9087,-1.899,2.8109,-0.4389,-2.6839,-0.3461,15.15,0.8438,36.6938,,adl
5.409902,-1.9087,-1.899,2.8109,0.1023,-2.1402,-0.4682,15.15,0.8438,36.6938,,adl
5.421473,-2.4122,-1.3364,2.7879,0.1023,-2.1402,-0.4682,15.15,0.8438,36.6938,,adl
5.43999,-2.0936,-0.5479,2.5317,0.1023,-2.1402,-0.4682,15.15,0.8438,36.6938,,adl
5.443786,-2.0936,-0.5479,2.5317,0.1023,-2.1402,-0.4682,15.15,0.8438,36.6938,,adl
5.456418,-2.0936,-0.5479,2.5317,0.1023,-2.1402,-0.4682,20.1938,1.575,34.9875,,adl
5.460238,-1.6553,0.0387,2.1587,0.1023,-2.1402,-0.4682,20.1938,1.575,34.9875,,adl
5.472578,-1.6553,0.0387,2.1587,0.4517,-1.5929,-0.004,20.1938,1.575,34.9875,,adl
5.478751,-1.3698,0.0787,2.0289,0.4517,-1.5929,-0.004,20.1938,1.575,34.9875,,adl
5.491453,-1.3698,0.0787,2.0289,0.4517,-1.5929,-0.004,20.1938,1.575,34.9875,,adl
5.496634,-1.4419,-0.2184,2.0012,0.4517,-1.5929,-0.004,20.1938,1.575,34.9875,,adl
5.513501,-1.4419,-0.2184,2.0012,0.4517,-1.5929,-0.004,23.4938,2.2688,33.3375,,adl
5.517191,-1.5218,-0.8996,2.2014,0.4517,-1.5929,-0.004,23.4938,2.2688,33.3375,,adl
5.534022,-1.5218,-0.8996,2.2014,0.1255,-1.9326,-0.1176,23.4938,2.2688,33.3375,,adl
5.535646,-1.3735,-1.2643,2.4243,0.1255,-1.9326,-0.1176,23.4938,2.2688,33.3375,,adl
5.539966,-1.3735,-1.2643,2.4243,0.1255,-1.9326,-0.1176,23.4938,2.2688,33.3375,,adl
5.554679,-1.1701,-1.2669,2.46,0.1255,-1.9326,-0.1176,23.4938,2.2688,33.3375,,adl
5.573792,-1.1537,-0.953,2.4017,0.1255,-1.9326,-0.1176,23.4938,2.2688,33.3375,,adl
5.577351,-1.1537,-0.953,2.4017,0.1255,-1.9326,-0.1176,27.3938,2.9062,30.4313,,adl
5.588534,-1.1537,-0.953,2.4017,0.1255,-1.9326,-0.1176,27.3938,2.9062,30.4313,,adl
5.592776,-1.177,-0.6173,2.0928,0.1255,-1.9326,-0.1176,27.3938,2.9062,30.4313,,adl
5.596275,-1.177,-0.6173,2.0928,0.0877,-1.5342,0.007,27.3938,2.9062,30.4313,,adl
5.611828,-0.7199,-0.2199,1.7314,0.0877,-1.5342,0.007,27.3938,2.9062,30.4313,,adl
5.631041,-0.2167,-0.1337,1.3418,0.0877,-1.5342,0.007,27.3938,2.9062,30.4313,,adl
5.634469,-0.2167,-0.1337,1.3418,0.0877,-1.5342,0.007,30.15,2.7563,28.1625,,adl
5.637151,-0.2167,-0.1337,1.3418,0.0877,-1.5342,0.007,30.15,2.7563,28.1625,,adl
5.649949,-0.0725,-0.5647,1.0158,0.0877,-1.5342,0.007,30.15,2.7563,28.1625,,adl
5.65853,-0.0725,-0.5647,1.0158,-0.0455,-1.5868,-0.0503,30.15,2.7563,28.1625,,adl
5.668732,-0.2201,-1.2444,0.8809,-0.0455,-1.5868,-0.0503,30.15,2.7563,28.1625,,adl
5.68345,-0.2201,-1.2444,0.8809,-0.0455,-1.5868,-0.0503,30.15,2.7563,28.1625,,adl
5.69006,-0.2723,-1.0206,1.0561,-0.0455,-1.5868,-0.0503,30.15,2.7563,28.1625,,adl
5.693706,-0.2723,-1.0206,1.0561,-0.0455,-1.5868,-0.0503,32.7188,2.925,25.3875,,adl
5.70762,-0.4217,0.2533,1.3345,-0.0455,-1.5868,-0.0503,32.7188,2.925,25.3875,,adl
5.722098,-0.4217,0.2533,1.3345,0.2123,-1.3949,0.1268,32.7188,2.925,25.3875,,adl
5.726857,-1.0028,1.1275,0.3346,0.2123,-1.3949,0.1268,32.7188,2.925,25.3875,,adl
5.730783,-1.0028,1.1275,0.3346,0.2123,-1.3949,0.1268,32.7188,2.925,25.3875,,adl
5.745813,-0.4466,-2.0035,2.1844,0.2123,-1.3949,0.1268,32.7188,2.925,25.3875,,adl
5.753343,-0.4466,-2.0035,2.1844,0.2123,-1.3949,0.1268,36.2625,2.8875,20.8125,,adl
5.764749,0.107,-1.2226,1.9647,0.2123,-1.3949,0.1268,36.2625,2.8875,20.8125,,adl
5.778512,0.107,-1.2226,1.9647,0.2123,-1.3949,0.1268,36.2625,2.8875,20.8125,,adl
5.782851,0.107,-1.2226,1.9647,-0.3473,-1.0871,0.0975,36.2625,2.8875,20.8125,,adl
5.783932,0.3679,-0.9967,1.9896,-0.3473,-1.0871,0.0975,36.2625,2.8875,20.8125,,adl
5.802948,0.653,-1.0287,1.5321,-0.3473,-1.0871,0.0975,36.2625,2.8875,20.8125,,adl
5.813308,0.653,-1.0287,1.5321,-0.3473,-1.0871,0.0975,37.4813,2.3063,19.8375,,adl
5.822189,0.3808,-0.7315,-0.0996,-0.3473,-1.0871,0.0975,37.4813,2.3063,19.8375,,adl
5.826434,0.3808,-0.7315,-0.0996,-0.3473,-1.0871,0.0975,37.4813,2.3063,19.8375,,adl
5.841843,0.4221,-0.1612,-0.7255,-0.3473,-1.0871,0.0975,37.4813,2.3063,19.8375,,adl
5.845477,0.4221,-0.1612,-0.7255,0.6105,-1.6039,0.0143,37.4813,2.3063,19.8375,,adl
5.860335,0.6908,-0.0454,-1.1083,0.6105,-1.6039,0.0143,37.4813,2.3063,19.8375,,adl
5.87325,0.6908,-0.0454,-1.1083,0.6105,-1.6039,0.0143,39.4125,3.2438,16.2563,,adl
5.87495,0.6908,-0.0454,-1.1083,0.6105,-1.6039,0.0143,39.4125,3.2438,16.2563,,adl
5.879471,0.8896,0.0582,-1.04,0.6105,-1.6039,0.0143,39.4125,3.2438,16.2563,,adl
5.899114,0.9032,-0.0159,-0.9565,0.6105,-1.6039,0.0143,39.4125,3.2438,16.2563,,adl
5.907604,0.9032,-0.0159,-0.9565,0.3759,-2.3222,-0.4694,39.4125,3.2438,16.2563,,adl
5.918193,0.7303,-0.1675,-0.753,0.3759,-2.3222,-0.4694,39.4125,3.2438,16.2563,,adl
5.922378,0.7303,-0.1675,-0.753,0.3759,-2.3222,-0.4694,39.4125,3.2438,16.2563,,adl
5.934395,0.7303,-0.1675,-0.753,0.3759,-2.3222,-0.4694,40.8563,5.3438,10.2,,adl
5.938147,0.4168,-0.4916,-0.304,0.3759,-2.3222,-0.4694,40.8563,5.3438,10.2,,adl
5.956604,0.4946,-0.6472,0.5212,0.3759,-2.3222,-0.4694,40.8563,5.3438,10.2,,adl
5.970144,0.4946,-0.6472,0.5212,0.3759,-2.3222,-0.4694,40.8563,5.3438,10.2,,adl
5.971415,0.4946,-0.6472,0.5212,0.3479,-3.1567,-0.7908,40.8563,5.3438,10.2,,adl
5.977189,0.3851,-0.6491,0.8002,0.3479,-3.1567,-0.7908,40.8563,5.3438,10.2,,adl
5.993702,0.3851,-0.6491,0.8002,0.3479,-3.1567,-0.7908,40.6125,8.2125,3.2625,,adl
5.997889,0.2773,-0.7644,0.9061,0.3479,-3.1567,-0.7908,40.6125,8.2125,3.2625,,adl
6.013058,0.4788,-1.05,0.7374,0.3479,-3.1567,-0.7908,40.6125,8.2125,3.2625,,adl
6.017156,0.4788,-1.05,0.7374,0.3479,-3.1567,-0.7908,40.6125,8.2125,3.2625,,adl
6.031613,0.4788,-1.05,0.7374,0.4029,-3.1163,-0.7565,40.6125,8.2125,3.2625,,adl
6.03334,0.7736,-1.357,0.845,0.4029,-3.1163,-0.7565,40.6125,8.2125,3.2625,,adl
6.05249,1.0418,-1.3956,1.2264,0.4029,-3.1163,-0.7565,40.6125,8.2125,3.2625,,adl
6.056116,1.0418,-1.3956,1.2264,0.4029,-3.1163,-0.7565,39.6938,11.5688,-4.6875,,adl
6.067558,1.0418,-1.3956,1.2264,0.4029,-3.1163,-0.7565,39.6938,11.5688,-4.6875,,adl
6.07194,1.2376,-1.0922,1.955,0.4029,-3.1163,-0.7565,39.6938,11.5688,-4.6875,,adl
6.090418,1.1881,-0.3907,2.4992,0.4029,-3.1163,-0.7565,39.6938,11.5688,-4.6875,,adl
6.093944,1.1881,-0.3907,2.4992,0.2183,-1.72,-0.5415,39.6938,11.5688,-4.6875,,adl
6.108713,1.1395,-0.2017,2.4566,0.2183,-1.72,-0.5415,39.6938,11.5688,-4.6875,,adl
6.113053,1.1395,-0.2017,2.4566,0.2183,-1.72,-0.5415,39.6938,11.5688,-4.6875,,adl
6.114029,1.1395,-0.2017,2.4566,0.2183,-1.72,-0.5415,36.525,14.55,-11.5312,,adl
6.128172,1.0964,-0.1944,2.0812,0.2183,-1.72,-0.5415,36.525,14.55,-11.5312,,adl
6.148033,0.8528,-0.3893,1.7289,0.2183,-1.72,-0.5415,36.525,14.55,-11.5312,,adl
6.157137,0.8528,-0.3893,1.7289,0.2111,-0.3443,-0.6795,36.525,14.55,-11.5312,,adl
6.162173,0.8528,-0.3893,1.7289,0.2111,-0.3443,-0.6795,36.525,14.55,-11.5312,,adl
6.166302,0.4542,-0.5906,1.5158,0.2111,-0.3443,-0.6795,36.525,14.55,-11.5312,,adl
6.173332,0.4542,-0.5906,1.5158,0.2111,-0.3443,-0.6795,35.8688,16.8,-14.3063,,adl
6.186169,-0.0557,-0.5844,1.5841,0.2111,-0.3443,-0.6795,35.8688,16.8,-14.3063,,adl
6.204565,-0.3873,-0.4167,1.7261,0.2111,-0.3443,-0.6795,35.8688,16.8,-14.3063,,adl
6.208736,-0.3873,-0.4167,1.7261,0.2111,-0.3443,-0.6795,35.8688,16.8,-14.3063,,adl
6.218608,-0.3873,-0.4167,1.7261,0.172,0.076,-0.61,35.8688,16.8,-14.3063,,adl
6.223506,-0.4976,-0.327,1.6275,0.172,0.076,-0.61,35.8688,16.8,-14.3063,,adl
6.235303,-0.4976,-0.327,1.6275,0.172,0.076,-0.61,35.6063,18.7125,-16.2563,,adl
6.245042,-0.536,-0.477,1.4575,0.172,0.076,-0.61,35.6063,18.7125,-16.2563,,adl
6.256319,-0.536,-0.477,1.4575,0.172,0.076,-0.61,35.6063,18.7125,-16.2563,,adl
6.261263,-0.6769,-0.6402,1.3485,0.172,0.076,-0.61,35.6063,18.7125,-16.2563,,adl
6.279815,-0.6769,-0.6402,1.3485,0.0645,-0.5422,-0.6392,35.6063,18.7125,-16.2563,,adl
6.280965,-0.8617,-0.9573,1.8073,0.0645,-0.5422,-0.6392,35.6063,18.7125,-16.2563,,adl
6.292898,-0.8617,-0.9573,1.8073,0.0645,-0.5422,-0.6392,32.7188,20.1562,-15.9563,,adl
6.301098,-1.0756,-1.2749,1.9232,0.0645,-0.5422,-0.6392,32.7188,20.1562,-15.9563,,adl
6.30531,-1.0756,-1.2749,1.9232,0.0645,-0.5422,-0.6392,32.7188,20.1562,-15.9563,,adl
6.319614,-1.3209,-1.6246,1.8899,0.0645,-0.5422,-0.6392,32.7188,20.1562,-15.9563,,adl
6.339041,-1.5868,-1.9009,2.108,0.0645,-0.5422,-0.6392,32.7188,20.1562,-15.9563,,adl
6.344096,-1.5868,-1.9009,2.108,0.4407,-1.2618,-0.8163,32.7188,20.1562,-15.9563,,adl
6.3519,-1.5868,-1.9009,2.108,0.4407,-1.2618,-0.8163,32.7188,20.1562,-15.9563,,adl
6.354655,-1.5868,-1.9009,2.108,0.4407,-1.2618,-0.8163,29.3813,21.5625,-17.8125,,adl
6.357142,-2.0544,-1.7042,1.8717,0.4407,-1.2618,-0.8163,29.3813,21.5625,-17.8125,,adl
6.37723,-2.5833,-1.5196,0.9867,0.4407,-1.2618,-0.8163,29.3813,21.5625,-17.8125,,adl
6.3961,-2.8168,-1.1296,0.1627,0.4407,-1.2618,-0.8163,29.3813,21.5625,-17.8125,,adl
6.3999,-2.8168,-1.1296,0.1627,0.4407,-1.2618,-0.8163,29.3813,21.5625,-17.8125,,adl
6.40417,-2.8168,-1.1296,0.1627,1.0308,-1.2301,-0.7138,29.3813,21.5625,-17.8125,,adl
6.412623,-2.8168,-1.1296,0.1627,1.0308,-1.2301,-0.7138,25.7813,21.9563,-21.1313,,adl
6.414565,-2.883,-0.821,-0.4574,1.0308,-1.2301,-0.7138,25.7813,21.9563,-21.1313,,adl
6.433544,-2.7212,-0.7884,-0.196,1.0308,-1.2301,-0.7138,25.7813,21.9563,-21.1313,,adl
6.447765,-2.7212,-0.7884,-0.196,1.0308,-1.2301,-0.7138,25.7813,21.9563,-21.1313,,adl
6.45328,-2.5763,-0.8191,-0.6264,1.0308,-1.2301,-0.7138,25.7813,21.9563,-21.1313,,adl
6.467044,-2.5763,-0.8191,-0.6264,0.8011,-1.0968,-0.6722,25.7813,21.9563,-21.1313,,adl
6.47185,-2.7144,-0.656,-0.4171,0.8011,-1.0968,-0.6722,25.7813,21.9563,-21.1313,,adl
6.473006,-2.7144,-0.656,-0.4171,0.8011,-1.0968,-0.6722,22.9688,22.1625,-23.025,,adl
6.491553,-2.8092,-0.7299,-0.428,0.8011,-1.0968,-0.6722,22.9688,22.1625,-23.025,,adl
6.495179,-2.8092,-0.7299,-0.428,0.8011,-1.0968,-0.6722,22.9688,22.1625,-23.025,,adl
6.510503,-2.7217,-0.7419,-0.4249,0.8011,-1.0968,-0.6722,22.9688,22.1625,-23.025,,adl
6.529734,-2.7217,-0.7419,-0.4249,0.6142,-0.888,-0.5672,22.9688,22.1625,-23.025,,adl
6.531303,-2.5107,-0.8242,-0.443,0.6142,-0.888,-0.5672,22.9688,22.1625,-23.025,,adl
6.532193,-2.5107,-0.8242,-0.443,0.6142,-0.888,-0.5672,22.425,21.8063,-25.2,,adl
6.544988,-2.5107,-0.8242,-0.443,0.6142,-0.888,-0.5672,22.425,21.8063,-25.2,,adl
6.548892,-2.433,-0.821,-0.5035,0.6142,-0.888,-0.5672,22.425,21.8063,-25.2,,adl
6.568453,-2.513,-0.7401,-0.408,0.6142,-0.888,-0.5672,22.425,21.8063,-25.2,,adl
6.586553,-2.5079,-0.6474,-0.5801,0.6142,-0.888,-0.5672,22.425,21.8063,-25.2,,adl
6.591064,-2.5079,-0.6474,-0.5801,0.6142,-0.888,-0.5672,22.425,21.8063,-25.2,,adl
6.593525,-2.5079,-0.6474,-0.5801,0.6765,-0.8245,-0.1689,22.425,21.8063,-25.2,,adl
6.59603,-2.5079,-0.6474,-0.5801,0.6765,-0.8245,-0.1689,20.7375,21.2438,-28.1625,,adl
6.606413,-2.1632,-0.5445,-0.72,0.6765,-0.8245,-0.1689,20.7375,21.2438,-28.1625,,adl
6.624726,-1.7879,-0.5073,-0.7789,0.6765,-0.8245,-0.1689,20.7375,21.2438,-28.1625,,adl
6.639628,-1.7879,-0.5073,-0.7789,0.6765,-0.8245,-0.1689,20.7375,21.2438,-28.1625,,adl
6.646429,-1.4086,-0.4293,-0.9129,0.6765,-0.8245,-0.1689,20.7375,21.2438,-28.1625,,adl
6.653067,-1.4086,-0.4293,-0.9129,0.6765,-0.8245,-0.1689,19.2375,19.9875,-29.7938,,adl
6.654309,-1.4086,-0.4293,-0.9129,0.6717,-0.9845,0.3271,19.2375,19.9875,-29.7938,,adl
6.663254,-0.9163,-0.3508,-0.9088,0.6717,-0.9845,0.3271,19.2375,19.9875,-29.7938,,adl
6.683327,-0.5263,-0.3147,-0.8555,0.6717,-0.9845,0.3271,19.2375,19.9875,-29.7938,,adl
6.687626,-0.5263,-0.3147,-0.8555,0.6717,-0.9845,0.3271,19.2375,19.9875,-29.7938,,adl
6.701967,-0.2509,-0.3073,-0.6442,0.6717,-0.9845,0.3271,19.2375,19.9875,-29.7938,,adl
6.712418,-0.2509,-0.3073,-0.6442,0.6717,-0.9845,0.3271,18.9375,18.975,-32.8125,,adl
6.715189,-0.2509,-0.3073,-0.6442,0.4652,-0.976,0.2465,18.9375,18.975,-32.8125,,adl
6.722855,-0.1132,-0.1578,-0.5731,0.4652,-0.976,0.2465,18.9375,18.975,-32.8125,,adl
6.734714,-0.1132,-0.1578,-0.5731,0.4652,-0.976,0.2465,18.9375,18.975,-32.8125,,adl
6.740121,-0.079,-0.0411,-0.7641,0.4652,-0.976,0.2465,18.9375,18.975,-32.8125,,adl
6.76535,0.0574,0.173,-0.6562,0.4652,-0.976,0.2465,18.9375,18.975,-32.8125,,adl
6.773584,0.0574,0.173,-0.6562,0.4652,-0.976,0.2465,16.9313,17.7375,-32.3438,,adl
6.779184,0.0574,0.173,-0.6562,0.4273,-0.5202,0.1951,16.9313,17.7375,-32.3438,,adl
6.783032,0.2767,0.379,-0.8317,0.4273,-0.5202,0.1951,16.9313,17.7375,-32.3438,,adl
6.785493,0.2767,0.379,-0.8317,0.4273,-0.5202,0.1951,16.9313,17.7375,-32.3438,,adl
6.798337,0.2292,0.4849,-0.796,0.4273,-0.5202,0.1951,16.9313,17.7375,-32.3438,,adl
6.817029,0.1988,0.4465,-0.9474,0.4273,-0.5202,0.1951,16.9313,17.7375,-32.3438,,adl
6.830229,0.1988,0.4465,-0.9474,0.4273,-0.5202,0.1951,16.9313,17.7375,-32.3438,,adl
6.832008,0.1988,0.4465,-0.9474,0.4273,-0.5202,0.1951,15.4125,17.1188,-32.925,,adl
6.834683,0.318,-0.4882,-1.5205,0.4273,-0.5202,0.1951,15.4125,17.1188,-32.925,,adl
6.838825,0.318,-0.4882,-1.5205,0.0778,-0.0107,0.0192,15.4125,17.1188,-32.925,,adl
6.855197,0.2397,-1.7761,-1.5555,0.0778,-0.0107,0.0192,15.4125,17.1188,-32.925,,adl
6.874123,0.256,-2.8011,-0.9124,0.0778,-0.0107,0.0192,15.4125,17.1188,-32.925,,adl
6.877699,0.256,-2.8011,-0.9124,0.0778,-0.0107,0.0192,15.4125,17.1188,-32.925,,adl
6.893276,0.6199,-2.5586,-0.3277,0.0778,-0.0107,0.0192,15.4125,17.1188,-32.925,,adl
6.896112,0.6199,-2.5586,-0.3277,0.0778,-0.0107,0.0192,15.3938,17.7563,-33.5438,,adl
6.901501,0.6199,-2.5586,-0.3277,-0.1358,-0.3981,0.2966,15.3938,17.7563,-33.5438,,adl
6.911987,1.1693,-1.7136,0.0988,-0.1358,-0.3981,0.2966,15.3938,17.7563,-33.5438,,adl
6.926187,1.1693,-1.7136,0.0988,-0.1358,-0.3981,0.2966,15.3938,17.7563,-33.5438,,adl
6.931561,1.5749,-0.414,0.4689,-0.1358,-0.3981,0.2966,15.3938,17.7563,-33.5438,,adl
6.950988,1.7632,0.6689,0.4796,-0.1358,-0.3981,0.2966,15.3938,17.7563,-33.5438,,adl
6.954666,1.7632,0.6689,0.4796,-0.1358,-0.3981,0.2966,14.925,17.0438,-33.1125,,adl
6.964118,1.7632,0.6689,0.4796,0.3979,-0.1647,0.0352,14.925,17.0438,-33.1125,,adl
6.969931,1.5546,1.4427,0.5033,0.3979,-0.1647,0.0352,14.925,17.0438,-33.1125,,adl
6.97339,1.5546,1.4427,0.5033,0.3979,-0.1647,0.0352,14.925,17.0438,-33.1125,,adl
6.988497,0.9179,1.6902,0.451,0.3979,-0.1647,0.0352,14.925,17.0438,-33.1125,,adl
7.008224,0.2762,1.4886,0.2098,0.3979,-0.1647,0.0352,14.925,17.0438,-33.1125,,adl
7.013628,0.2762,1.4886,0.2098,0.3979,-0.1647,0.0352,14.6625,16.5375,-34.4625,,adl
7.023487,0.2762,1.4886,0.2098,0.3979,-0.1647,0.0352,14.6625,16.5375,-34.4625,,adl
7.026888,0.2762,1.4886,0.2098,0.2465,-0.3516,-0.6197,14.6625,16.5375,-34.4625,,adl
7.029815,-0.1652,0.7017,-0.2247,0.2465,-0.3516,-0.6197,14.6625,16.5375,-34.4625,,adl
7.045851,-0.4059,-0.6255,-0.6834,0.2465,-0.3516,-0.6197,14.6625,16.5375,-34.4625,,adl
7.065459,-0.6127,-1.6717,-0.525,0.2465,-0.3516,-0.6197,14.6625,16.5375,-34.4625,,adl
7.06929,-0.6127,-1.6717,-0.525,0.2465,-0.3516,-0.6197,14.6625,16.5375,-34.4625,,adl
7.073125,-0.6127,-1.6717,-0.525,0.2465,-0.3516,-0.6197,11.9438,16.6313,-34.6875,,adl
7.083871,-0.7495,-2.0969,0.108,0.2465,-0.3516,-0.6197,11.9438,16.6313,-34.6875,,adl
7.08846,-0.7495,-2.0969,0.108,0.0571,-1.0896,-0.3436,11.9438,16.6313,-34.6875,,adl
7.103516,-0.0852,-2.0901,0.6089,0.0571,-1.0896,-0.3436,11.9438,16.6313,-34.6875,,adl
7.117577,-0.0852,-2.0901,0.6089,0.0571,-1.0896,-0.3436,11.9438,16.6313,-34.6875,,adl
7.122341,0.8745,-1.3951,0.7608,0.0571,-1.0896,-0.3436,11.9438,16.6313,-34.6875,,adl
7.133889,0.8745,-1.3951,0.7608,0.0571,-1.0896,-0.3436,8.0625,16.3313,-35.9438,,adl
7.141938,1.5305,-0.4734,0.4095,0.0571,-1.0896,-0.3436,8.0625,16.3313,-35.9438,,adl
7.150752,1.5305,-0.4734,0.4095,0.4921,-1.2471,-0.3924,8.0625,16.3313,-35.9438,,adl
7.160483,1.7816,0.1677,-0.0579,0.4921,-1.2471,-0.3924,8.0625,16.3313,-35.9438,,adl
7.166346,1.7816,0.1677,-0.0579,0.4921,-1.2471,-0.3924,8.0625,16.3313,-35.9438,,adl
7.180295,1.4669,0.2698,-0.3676,0.4921,-1.2471,-0.3924,8.0625,16.3313,-35.9438,,adl
7.194444,1.4669,0.2698,-0.3676,0.4921,-1.2471,-0.3924,6.3563,16.5375,-40.2563,,adl
7.200746,0.702,-0.1783,-0.3431,0.4921,-1.2471,-0.3924,6.3563,16.5375,-40.2563,,adl
7.212481,0.702,-0.1783,-0.3431,0.4921,-1.2471,-0.3924,6.3563,16.5375,-40.2563,,adl
7.213842,0.702,-0.1783,-0.3431,-0.2861,-0.4408,-1.2427,6.3563,16.5375,-40.2563,,adl
7.218395,-0.121,-0.7888,0.0529,-0.2861,-0.4408,-1.2427,6.3563,16.5375,-40.2563,,adl
7.237308,-0.7629,-1.3333,0.5899,-0.2861,-0.4408,-1.2427,6.3563,16.5375,-40.2563,,adl
7.253575,-0.7629,-1.3333,0.5899,-0.2861,-0.4408,-1.2427,3.7313,18.7313,-40.9875,,adl
7.257292,-1.2863,-1.4546,0.926,-0.2861,-0.4408,-1.2427,3.7313,18.7313,-40.9875,,adl
7.260453,-1.2863,-1.4546,0.926,-0.2861,-0.4408,-1.2427,3.7313,18.7313,-40.9875,,adl
7.275041,-1.2863,-1.4546,0.926,-0.2629,-0.0718,-1.233,3.7313,18.7313,-40.9875,,adl
7.276789,-1.6923,-1.4872,0.8496,-0.2629,-0.0718,-1.233,3.7313,18.7313,-40.9875,,adl
7.294742,-2.1579,-1.347,0.6694,-0.2629,-0.0718,-1.233,3.7313,18.7313,-40.9875,,adl
7.310426,-2.1579,-1.347,0.6694,-0.2629,-0.0718,-1.233,3.7313,18.7313,-40.9875,,adl
7.314427,-2.5813,-1.0874,0.5063,-0.2629,-0.0718,-1.233,3.7313,18.7313,-40.9875,,adl
7.317316,-2.5813,-1.0874,0.5063,-0.2629,-0.0718,-1.233,3.8813,19.6688,-40.05,,adl
7.333629,-2.81,-0.9236,0.4619,-0.2629,-0.0718,-1.233,3.8813,19.6688,-40.05,,adl
7.336595,-2.81,-0.9236,0.4619,-0.3778,0.0674,-0.8323,3.8813,19.6688,-40.05,,adl
7.352537,-2.8927,-0.9742,0.4245,-0.3778,0.0674,-0.8323,3.8813,19.6688,-40.05,,adl
7.356307,-2.8927,-0.9742,0.4245,-0.3778,0.0674,-0.8323,3.8813,19.6688,-40.05,,adl
7.371347,-2.7618,-1.1203,0.5062,-0.3778,0.0674,-0.8323,3.8813,19.6688,-40.05,,adl
7.373762,-2.7618,-1.1203,0.5062,-0.3778,0.0674,-0.8323,4.575,21.1688,-38.8125,,adl
7.391017,-2.6603,-1.1624,0.6622,-0.3778,0.0674,-0.8323,4.575,21.1688,-38.8125,,adl
7.401957,-2.6603,-1.1624,0.6622,-0.5635,0.1541,-0.3717,4.575,21.1688,-38.8125,,adl
7.405544,-2.6603,-1.1624,0.6622,-0.5635,0.1541,-0.3717,4.575,21.1688,-38.8125,,adl
7.412346,-2.529,-1.351,0.8336,-0.5635,0.1541,-0.3717,4.575,21.1688,-38.8125,,adl
7.430041,-2.5684,-1.5645,0.8877,-0.5635,0.1541,-0.3717,4.575,21.1688,-38.8125,,adl
7.434583,-2.5684,-1.5645,0.8877,-0.5635,0.1541,-0.3717,4.8188,22.2188,-38.2875,,adl
7.448178,-2.5914,-1.799,0.9358,-0.5635,0.1541,-0.3717,4.8188,22.2188,-38.2875,,adl
7.452163,-2.5914,-1.799,0.9358,-0.5635,0.1541,-0.3717,4.8188,22.2188,-38.2875,,adl
7.461583,-2.5914,-1.799,0.9358,-0.5732,0.2226,-0.015,4.8188,22.2188,-38.2875,,adl
7.466784,-2.627,-1.9721,1.1615,-0.5732,0.2226,-0.015,4.8188,22.2188,-38.2875,,adl
7.48651,-2.6325,-2.0237,1.3187,-0.5732,0.2226,-0.015,4.8188,22.2188,-38.2875,,adl
7.493086,-2.6325,-2.0237,1.3187,-0.5732,0.2226,-0.015,4.5563,23.4375,-37.0312,,adl
7.501337,-2.6325,-2.0237,1.3187,-0.5732,0.2226,-0.015,4.5563,23.4375,-37.0312,,adl
7.505147,-2.4138,-2.0683,1.2839,-0.5732,0.2226,-0.015,4.5563,23.4375,-37.0312,,adl
7.523873,-2.4138,-2.0683,1.2839,-0.2531,0.3154,0.4419,4.5563,23.4375,-37.0312,,adl
7.527698,-1.6158,-2.9846,-0.1072,-0.2531,0.3154,0.4419,4.5563,23.4375,-37.0312,,adl
7.543996,-1.8867,-3.6233,-0.551,-0.2531,0.3154,0.4419,4.5563,23.4375,-37.0312,,adl
7.547566,-1.8867,-3.6233,-0.551,-0.2531,0.3154,0.4419,4.5563,23.4375,-37.0312,,adl
7.553191,-1.8867,-3.6233,-0.551,-0.2531,0.3154,0.4419,6.7688,24.2625,-36.975,,adl
7.561957,-1.9456,-3.7503,-0.2673,-0.2531,0.3154,0.4419,6.7688,24.2625,-36.975,,adl
7.588027,-1.3139,-3.3492,0.509,-0.2531,0.3154,0.4419,6.7688,24.2625,-36.975,,adl
7.591671,-1.3139,-3.3492,0.509,-0.4462,0.1578,1.1298,6.7688,24.2625,-36.975,,adl
7.594811,-1.3139,-3.3492,0.509,-0.4462,0.1578,1.1298,6.7688,24.2625,-36.975,,adl
7.601322,-0.7303,-2.1805,1.0496,-0.4462,0.1578,1.1298,6.7688,24.2625,-36.975,,adl
7.612703,-0.7303,-2.1805,1.0496,-0.4462,0.1578,1.1298,8.4938,25.125,-37.4438,,adl
7.620406,-0.2251,-0.5193,1.103,-0.4462,0.1578,1.1298,8.4938,25.125,-37.4438,,adl
7.639351,0.0178,0.6465,0.5654,-0.4462,0.1578,1.1298,8.4938,25.125,-37.4438,,adl
7.64342,0.0178,0.6465,0.5654,-0.4462,0.1578,1.1298,8.4938,25.125,-37.4438,,adl
7.64803,0.0178,0.6465,0.5654,0.3356,0.7296,1.0174,8.4938,25.125,-37.4438,,adl
7.658212,-0.0394,1.3599,-0.0225,0.3356,0.7296,1.0174,8.4938,25.125,-37.4438,,adl
7.673579,-0.0394,1.3599,-0.0225,0.3356,0.7296,1.0174,11.9813,24.0938,-40.575,,adl
7.67745,-0.0005,1.5651,-1.0024,0.3356,0.7296,1.0174,11.9813,24.0938,-40.575,,adl
7.691013,-0.0005,1.5651,-1.0024,0.3356,0.7296,1.0174,11.9813,24.0938,-40.575,,adl
7.696884,-0.1602,1.0002,-1.9358,0.3356,0.7296,1.0174,11.9813,24.0938,-40.575,,adl
7.710511,-0.1602,1.0002,-1.9358,-0.3999,0.5537,0.3101,11.9813,24.0938,-40.575,,adl
7.715429,-0.3991,-0.2752,-2.2219,-0.3999,0.5537,0.3101,11.9813,24.0938,-40.575,,adl
7.733005,-0.3991,-0.2752,-2.2219,-0.3999,0.5537,0.3101,8.325,22.3125,-38.6063,,adl
7.734621,-0.5272,-1.4958,-1.5409,-0.3999,0.5537,0.3101,8.325,22.3125,-38.6063,,adl
7.739148,-0.5272,-1.4958,-1.5409,-0.3999,0.5537,0.3101,8.325,22.3125,-38.6063,,adl
7.754407,-0.634,-1.9887,-0.1199,-0.3999,0.5537,0.3101,8.325,22.3125,-38.6063,,adl
7.772163,-0.634,-1.9887,-0.1199,-0.9569,0.7993,0.7157,8.325,22.3125,-38.6063,,adl
7.776142,-0.3312,-1.7524,1.3392,-0.9569,0.7993,0.7157,8.325,22.3125,-38.6063,,adl
7.787155,-0.3312,-1.7524,1.3392,-0.9569,0.7993,0.7157,8.325,22.3125,-38.6063,,adl
7.792185,0.1908,-0.8771,1.95,-0.9569,0.7993,0.7157,8.325,22.3125,-38.6063,,adl
7.793662,0.1908,-0.8771,1.95,-0.9569,0.7993,0.7157,11.55,23.1562,-32.4563,,adl
7.811428,0.2381,0.0104,1.806,-0.9569,0.7993,0.7157,11.55,23.1562,-32.4563,,adl
7.830615,-0.2491,0.616,1.5122,-0.9569,0.7993,0.7157,11.55,23.1562,-32.4563,,adl
7.834642,-0.2491,0.616,1.5122,-0.9569,0.7993,0.7157,11.55,23.1562,-32.4563,,adl
7.836547,-0.2491,0.616,1.5122,0.051,1.189,0.6265,11.55,23.1562,-32.4563,,adl
7.849498,-0.7463,0.9508,0.9872,0.051,1.189,0.6265,11.55,23.1562,-32.4563,,adl
7.852632,-0.7463,0.9508,0.9872,0.051,1.189,0.6265,16.875,23.0625,-30.225,,adl
7.869113,-0.7719,0.9035,0.7203,0.051,1.189,0.6265,16.875,23.0625,-30.225,,adl
7.882683,-0.7719,0.9035,0.7203,0.051,1.189,0.6265,16.875,23.0625,-30.225,,adl
7.890296,-0.6055,0.9476,0.3343,0.051,1.189,0.6265,16.875,23.0625,-30.225,,adl
7.89657,-0.6055,0.9476,0.3343,0.2904,0.1761,0.6252,16.875,23.0625,-30.225,,adl
7.907009,-0.404,1.0235,-0.142,0.2904,0.1761,0.6252,16.875,23.0625,-30.225,,adl
7.912729,-0.404,1.0235,-0.142,0.2904,0.1761,0.6252,19.8375,22.2,-30.525,,adl
7.926217,-0.1709,1.1229,-0.6025,0.2904,0.1761,0.6252,19.8375,22.2,-30.525,,adl
7.930181,-0.1709,1.1229,-0.6025,0.2904,0.1761,0.6252,19.8375,22.2,-30.525,,adl
7.945406,0.1608,1.1523,-0.7263,0.2904,0.1761,0.6252,19.8375,22.2,-30.525,,adl
7.958682,0.1608,1.1523,-0.7263,0.4322,-0.3503,0.7303,19.8375,22.2,-30.525,,adl
7.964239,0.6154,1.0861,-0.6899,0.4322,-0.3503,0.7303,19.8375,22.2,-30.525,,adl
7.974531,0.6154,1.0861,-0.6899,0.4322,-0.3503,0.7303,20.6625,21.3188,-31.3875,,adl
7.977764,0.6154,1.0861,-0.6899,0.4322,-0.3503,0.7303,20.6625,21.3188,-31.3875,,adl
7.982612,0.9756,1.1703,-0.6631,0.4322,-0.3503,0.7303,20.6625,21.3188,-31.3875,,adl
8.002257,1.407,1.3047,-0.9635,0.4322,-0.3503,0.7303,20.6625,21.3188,-31.3875,,adl
8.02136,1.407,1.3047,-0.9635,0.6522,-0.3198,0.6325,20.6625,21.3188,-31.3875,,adl
8.024017,1.5633,1.4869,-1.3931,0.6522,-0.3198,0.6325,20.6625,21.3188,-31.3875,,adl
8.026453,1.5633,1.4869,-1.3931,0.6522,-0.3198,0.6325,20.6625,21.3188,-31.3875,,adl
8.033266,1.5633,1.4869,-1.3931,0.6522,-0.3198,0.6325,21.075,19.0312,-33.1875,,adl
8.04129,1.7283,1.5923,-2.0412,0.6522,-0.3198,0.6325,21.075,19.0312,-33.1875,,adl
8.060467,1.921,1.488,-2.5723,0.6522,-0.3198,0.6325,21.075,19.0312,-33.1875,,adl
8.072938,1.921,1.488,-2.5723,0.6522,-0.3198,0.6325,21.075,19.0312,-33.1875,,adl
8.078588,2.0624,1.0729,-2.9622,0.6522,-0.3198,0.6325,21.075,19.0312,-33.1875,,adl
8.082659,2.0624,1.0729,-2.9622,0.2844,-0.0682,0.3871,21.075,19.0312,-33.1875,,adl
8.094137,2.0624,1.0729,-2.9622,0.2844,-0.0682,0.3871,21.6188,17.775,-34.0312,,adl
8.098031,2.1464,0.5123,-2.9926,0.2844,-0.0682,0.3871,21.6188,17.775,-34.0312,,adl
8.116918,2.4269,0.0715,-2.5641,0.2844,-0.0682,0.3871,21.6188,17.775,-34.0312,,adl
8.123393,2.4269,0.0715,-2.5641,0.2844,-0.0682,0.3871,21.6188,17.775,-34.0312,,adl
8.136442,2.7188,-0.0099,-2.0773,0.2844,-0.0682,0.3871,21.6188,17.775,-34.0312,,adl
8.14682,2.7188,-0.0099,-2.0773,-0.004,0.2263,0.2173,21.6188,17.775,-34.0312,,adl
8.153512,2.7188,-0.0099,-2.0773,-0.004,0.2263,0.2173,21.525,17.7,-34.2375,,adl
8.156205,2.8752,0.1459,-1.7391,-0.004,0.2263,0.2173,21.525,17.7,-34.2375,,adl
8.169395,2.8752,0.1459,-1.7391,-0.004,0.2263,0.2173,21.525,17.7,-34.2375,,adl
8.174485,3.4079,-0.6839,-2.7002,-0.004,0.2263,0.2173,21.525,17.7,-34.2375,,adl
8.193955,3.2675,-1.8272,-2.8592,-0.004,0.2263,0.2173,21.525,17.7,-34.2375,,adl
8.207538,3.2675,-1.8272,-2.8592,-0.5171,0.6918,-0.1871,21.525,17.7,-34.2375,,adl
8.213435,2.6468,-2.2814,-2.6318,-0.5171,0.6918,-0.1871,21.525,17.7,-34.2375,,adl
8.214949,2.6468,-2.2814,-2.6318,-0.5171,0.6918,-0.1871,22.7812,18.0188,-33.5438,,adl
8.216146,2.6468,-2.2814,-2.6318,-0.5171,0.6918,-0.1871,22.7812,18.0188,-33.5438,,adl
8.231526,2.7049,-1.6575,-2.0638,-0.5171,0.6918,-0.1871,22.7812,18.0188,-33.5438,,adl
8.251554,2.9102,-1.4971,-1.7316,-0.5171,0.6918,-0.1871,22.7812,18.0188,-33.5438,,adl
8.266284,2.9102,-1.4971,-1.7316,-0.5171,0.6918,-0.1871,22.7812,18.0188,-33.5438,,adl
8.269758,2.9102,-1.4971,-1.7316,-0.5635,0.9226,-0.4414,22.7812,18.0188,-33.5438,,adl
8.272011,2.6755,-1.5512,-0.9178,-0.5635,0.9226,-0.4414,22.7812,18.0188,-33.5438,,adl
8.27382,2.6755,-1.5512,-0.9178,-0.5635,0.9226,-0.4414,23.7563,19.725,-31.1813,,adl
8.289357,1.9302,-1.088,-0.2645,-0.5635,0.9226,-0.4414,23.7563,19.725,-31.1813,,adl
8.308492,1.2972,-0.4349,-0.0854,-0.5635,0.9226,-0.4414,23.7563,19.725,-31.1813,,adl
8.313012,1.2972,-0.4349,-0.0854,-0.5635,0.9226,-0.4414,23.7563,19.725,-31.1813,,adl
8.327652,0.6926,0.3488,-0.1567,-0.5635,0.9226,-0.4414,23.7563,19.725,-31.1813,,adl
8.332122,0.6926,0.3488,-0.1567,-0.1786,0.5305,-0.8788,23.7563,19.725,-31.1813,,adl
8.335185,0.6926,0.3488,-0.1567,-0.1786,0.5305,-0.8788,24.1688,21.1125,-29.5125,,adl
8.346428,0.1531,0.9925,-0.1294,-0.1786,0.5305,-0.8788,24.1688,21.1125,-29.5125,,adl
8.360489,0.1531,0.9925,-0.1294,-0.1786,0.5305,-0.8788,24.1688,21.1125,-29.5125,,adl
8.368137,-0.2574,1.1234,-0.4014,-0.1786,0.5305,-0.8788,24.1688,21.1125,-29.5125,,adl
8.38639,-0.6395,0.7536,-0.749,-0.1786,0.5305,-0.8788,24.1688,21.1125,-29.5125,,adl
8.402537,-0.6395,0.7536,-0.749,-0.1786,0.5305,-0.8788,22.9313,22.3313,-29.3625,,adl
8.404056,-0.6395,0.7536,-0.749,0.0241,-0.2758,-1.1487,22.9313,22.3313,-29.3625,,adl
8.405108,-0.8282,-0.1558,-1.1505,0.0241,-0.2758,-1.1487,22.9313,22.3313,-29.3625,,adl
8.408186,-0.8282,-0.1558,-1.1505,0.0241,-0.2758,-1.1487,22.9313,22.3313,-29.3625,,adl
8.423668,-0.833,-1.3441,-1.2402,0.0241,-0.2758,-1.1487,22.9313,22.3313,-29.3625,,adl
8.442538,-0.8174,-2.3074,-0.8631,0.0241,-0.2758,-1.1487,22.9313,22.3313,-29.3625,,adl
8.453726,-0.8174,-2.3074,-0.8631,0.0241,-0.2758,-1.1487,18.0938,24.45,-30.8625,,adl
8.457032,-0.8174,-2.3074,-0.8631,0.0241,-0.2758,-1.1487,18.0938,24.45,-30.8625,,adl
8.458365,-0.8174,-2.3074,-0.8631,-0.2569,-1.2459,-1.0644,18.0938,24.45,-30.8625,,adl
8.461121,-0.6486,-2.5304,-0.2227,-0.2569,-1.2459,-1.0644,18.0938,24.45,-30.8625,,adl
8.480903,-0.2352,-2.3217,0.2094,-0.2569,-1.2459,-1.0644,18.0938,24.45,-30.8625,,adl
8.500033,0.1298,-1.8351,0.4884,-0.2569,-1.2459,-1.0644,18.0938,24.45,-30.8625,,adl
8.503279,0.1298,-1.8351,0.4884,-0.2569,-1.2459,-1.0644,18.0938,24.45,-30.8625,,adl
8.515028,0.1298,-1.8351,0.4884,-0.2569,-1.2459,-1.0644,14.2125,26.775,-33.1313,,adl
8.518776,0.1298,-1.8351,0.4884,0.1011,-0.9332,-0.9984,14.2125,26.775,-33.1313,,adl
8.521033,0.1039,-1.2914,0.4232,0.1011,-0.9332,-0.9984,14.2125,26.775,-33.1313,,adl
8.538041,-0.3764,-0.9367,0.2215,0.1011,-0.9332,-0.9984,14.2125,26.775,-33.1313,,adl
8.551314,-0.3764,-0.9367,0.2215,0.1011,-0.9332,-0.9984,14.2125,26.775,-33.1313,,adl
8.557321,-1.1255,-0.6919,0.1739,0.1011,-0.9332,-0.9984,14.2125,26.775,-33.1313,,adl
8.574102,-1.1255,-0.6919,0.1739,0.1011,-0.9332,-0.9984,12.0938,28.7813,-33.9938,,adl
8.577839,-1.4802,-1.0158,0.2425,0.1011,-0.9332,-0.9984,12.0938,28.7813,-33.9938,,adl
8.582991,-1.4802,-1.0158,0.2425,-0.3119,-0.2588,-1.1352,12.0938,28.7813,-33.9938,,adl
8.595594,-1.7728,-1.3706,0.419,-0.3119,-0.2588,-1.1352,12.0938,28.7813,-33.9938,,adl
8.599136,-1.7728,-1.3706,0.419,-0.3119,-0.2588,-1.1352,12.0938,28.7813,-33.9938,,adl
8.61536,-2.1349,-1.4379,0.7685,-0.3119,-0.2588,-1.1352,12.0938,28.7813,-33.9938,,adl
8.634351,-2.5687,-1.2778,0.8234,-0.3119,-0.2588,-1.1352,12.0938,28.7813,-33.9938,,adl
8.638346,-2.5687,-1.2778,0.8234,-0.3119,-0.2588,-1.1352,10.575,29.85,-33.1125,,adl
8.642455,-2.5687,-1.2778,0.8234,-0.3338,-0.1293,-1.0388,10.575,29.85,-33.1125,,adl
8.647785,-2.5687,-1.2778,0.8234,-0.3338,-0.1293,-1.0388,10.575,29.85,-33.1125,,adl
8.652778,-2.8837,-1.1762,0.8015,-0.3338,-0.1293,-1.0388,10.575,29.85,-33.1125,,adl
8.672161,-3.187,-0.9924,0.6785,-0.3338,-0.1293,-1.0388,10.575,29.85,-33.1125,,adl
8.691267,-3.4878,-0.8423,0.6886,-0.3338,-0.1293,-1.0388,10.575,29.85,-33.1125,,adl
8.694972,-3.4878,-0.8423,0.6886,-0.3338,-0.1293,-1.0388,9.15,31.2188,-31.7063,,adl
8.697342,-3.4878,-0.8423,0.6886,-0.3338,-0.1293,-1.0388,9.15,31.2188,-31.7063,,adl
8.705652,-3.4878,-0.8423,0.6886,-0.5269,0.2152,-0.5599,9.15,31.2188,-31.7063,,adl
8.710316,-3.6192,-0.7367,0.7815,-0.5269,0.2152,-0.5599,9.15,31.2188,-31.7063,,adl
8.729,-3.5676,-0.9047,0.9457,-0.5269,0.2152,-0.5599,9.15,31.2188,-31.7063,,adl
8.743645,-3.5676,-0.9047,0.9457,-0.5269,0.2152,-0.5599,9.15,31.2188,-31.7063,,adl
8.74806,-3.5266,-1.0321,1.082,-0.5269,0.2152,-0.5599,9.15,31.2188,-31.7063,,adl
8.754972,-3.5266,-1.0321,1.082,-0.5269,0.2152,-0.5599,8.5875,32.175,-29.2875,,adl
8.767247,-3.5266,-1.0321,1.082,-0.61,0.4608,-0.0162,8.5875,32.175,-29.2875,,adl
8.770199,-3.4959,-1.2067,1.1411,-0.61,0.4608,-0.0162,8.5875,32.175,-29.2875,,adl
8.787275,-3.4016,-1.4105,1.1797,-0.61,0.4608,-0.0162,8.5875,32.175,-29.2875,,adl
8.791036,-3.4016,-1.4105,1.1797,-0.61,0.4608,-0.0162,8.5875,32.175,-29.2875,,adl
8.806022,-3.3358,-1.6203,1.2135,-0.61,0.4608,-0.0162,8.5875,32.175,-29.2875,,adl
8.813209,-3.3358,-1.6203,1.2135,-0.61,0.4608,-0.0162,9.0188,33.075,-27.9563,,adl
8.825006,-3.1973,-1.8152,1.19,-0.61,0.4608,-0.0162,9.0188,33.075,-27.9563,,adl
8.829347,-3.1973,-1.8152,1.19,-0.4377,0.3057,0.4957,9.0188,33.075,-27.9563,,adl
8.837631,-3.1973,-1.8152,1.19,-0.4377,0.3057,0.4957,9.0188,33.075,-27.9563,,adl
8.844319,-3.0188,-1.9136,1.1722,-0.4377,0.3057,0.4957,9.0188,33.075,-27.9563,,adl
8.86288,-2.8118,-1.8143,0.883,-0.4377,0.3057,0.4957,9.0188,33.075,-27.9563,,adl
8.874005,-2.8118,-1.8143,0.883,-0.4377,0.3057,0.4957,11.625,33.7313,-27.075,,adl
8.881824,-2.1613,-2.2739,-0.0318,-0.4377,0.3057,0.4957,11.625,33.7313,-27.075,,adl
8.886247,-2.1613,-2.2739,-0.0318,-0.4377,0.3057,0.4957,11.625,33.7313,-27.075,,adl
8.891016,-2.1613,-2.2739,-0.0318,-0.2861,0.2739,1.1201,11.625,33.7313,-27.075,,adl
8.901311,-1.9098,-3.1329,-0.7814,-0.2861,0.2739,1.1201,11.625,33.7313,-27.075,,adl
8.921636,-1.9175,-3.8394,-0.5839,-0.2861,0.2739,1.1201,11.625,33.7313,-27.075,,adl
8.93524,-1.9175,-3.8394,-0.5839,-0.2861,0.2739,1.1201,13.4813,33.375,-26.8313,,adl
8.939254,-1.9175,-3.8394,-0.5839,-0.2861,0.2739,1.1201,13.4813,33.375,-26.8313,,adl
8.941447,-1.4257,-4.0489,0.0913,-0.2861,0.2739,1.1201,13.4813,33.375,-26.8313,,adl
8.953093,-1.4257,-4.0489,0.0913,-0.4865,0.1603,2.0217,13.4813,33.375,-26.8313,,adl
8.9584,-0.4802,-3.4594,0.6825,-0.4865,0.1603,2.0217,13.4813,33.375,-26.8313,,adl
8.978265,0.4198,-1.9228,1.3557,-0.4865,0.1603,2.0217,13.4813,33.375,-26.8313,,adl
8.981995,0.4198,-1.9228,1.3557,-0.4865,0.1603,2.0217,13.4813,33.375,-26.8313,,adl
8.993236,0.4198,-1.9228,1.3557,-0.4865,0.1603,2.0217,18.4875,32.6438,-27.075,,adl
8.997031,1.2139,-0.3693,1.3244,-0.4865,0.1603,2.0217,18.4875,32.6438,-27.075,,adl
9.01601,1.2139,-0.3693,1.3244,0.5079,0.7381,2.0595,18.4875,32.6438,-27.075,,adl
9.019917,1.5213,0.7448,1.2029,0.5079,0.7381,2.0595,18.4875,32.6438,-27.075,,adl
9.029443,1.5213,0.7448,1.2029,0.5079,0.7381,2.0595,18.4875,32.6438,-27.075,,adl
9.035475,1.5855,1.457,0.8331,0.5079,0.7381,2.0595,18.4875,32.6438,-27.075,,adl
9.055982,1.5855,1.457,0.8331,0.5079,0.7381,2.0595,21.7875,28.3875,-27.4125,,adl
9.059472,1.7994,1.6367,0.2977,0.5079,0.7381,2.0595,21.7875,28.3875,-27.4125,,adl
9.073469,2.0204,1.3092,-0.6054,0.5079,0.7381,2.0595,21.7875,28.3875,-27.4125,,adl
9.078543,2.0204,1.3092,-0.6054,0.5079,0.7381,2.0595,21.7875,28.3875,-27.4125,,adl
9.081323,2.0204,1.3092,-0.6054,0.5556,0.1884,1.2129,21.7875,28.3875,-27.4125,,adl
9.092171,2.1065,0.5394,-1.3877,0.5556,0.1884,1.2129,21.7875,28.3875,-27.4125,,adl
9.111431,2.0499,-0.4969,-1.3846,0.5556,0.1884,1.2129,21.7875,28.3875,-27.4125,,adl
9.113364,2.0499,-0.4969,-1.3846,0.5556,0.1884,1.2129,23.1938,24.9188,-26.4375,,adl
9.125632,2.0499,-0.4969,-1.3846,0.5556,0.1884,1.2129,23.1938,24.9188,-26.4375,,adl
9.130744,1.8124,-1.166,-0.6348,0.5556,0.1884,1.2129,23.1938,24.9188,-26.4375,,adl
9.139332,1.8124,-1.166,-0.6348,-0.3619,0.2837,0.8122,23.1938,24.9188,-26.4375,,adl
9.150653,2.0462,-1.1002,0.6023,-0.3619,0.2837,0.8122,23.1938,24.9188,-26.4375,,adl
9.169301,2.4586,-0.3893,1.3265,-0.3619,0.2837,0.8122,23.1938,24.9188,-26.4375,,adl
9.172981,2.4586,-0.3893,1.3265,-0.3619,0.2837,0.8122,23.1938,24.9188,-26.4375,,adl
9.173868,2.4586,-0.3893,1.3265,-0.3619,0.2837,0.8122,26.4938,24.4125,-24.5813,,adl
9.1882,2.8369,0.5368,1.1461,-0.3619,0.2837,0.8122,26.4938,24.4125,-24.5813,,adl
9.20205,2.8369,0.5368,1.1461,0.4847,1.0887,0.8122,26.4938,24.4125,-24.5813,,adl
9.207262,2.9035,1.1336,0.6546,0.4847,1.0887,0.8122,26.4938,24.4125,-24.5813,,adl
9.22175,2.9035,1.1336,0.6546,0.4847,1.0887,0.8122,26.4938,24.4125,-24.5813,,adl
9.226882,2.5333,1.4021,-0.1057,0.4847,1.0887,0.8122,26.4938,24.4125,-24.5813,,adl
9.236028,2.5333,1.4021,-0.1057,0.4847,1.0887,0.8122,30.2813,22.05,-23.4563,,adl
9.245552,1.93,1.4236,-0.8025,0.4847,1.0887,0.8122,30.2813,22.05,-23.4563,,adl
9.264034,1.93,1.4236,-0.8025,0.3699,0.9679,0.2196,30.2813,22.05,-23.4563,,adl
9.265861,1.3036,1.3539,-1.2322,0.3699,0.9679,0.2196,30.2813,22.05,-23.4563,,adl
9.26866,1.3036,1.3539,-1.2322,0.3699,0.9679,0.2196,30.2813,22.05,-23.4563,,adl
9.283881,0.9822,1.1748,-1.3828,0.3699,0.9679,0.2196,30.2813,22.05,-23.4563,,adl
9.293163,0.9822,1.1748,-1.3828,0.3699,0.9679,0.2196,32.175,21.075,-22.9875,,adl
9.302577,1.2478,0.869,-1.3181,0.3699,0.9679,0.2196,32.175,21.075,-22.9875,,adl
9.317117,1.2478,0.869,-1.3181,0.3699,0.9679,0.2196,32.175,21.075,-22.9875,,adl
9.322942,1.7435,0.6474,-0.9568,0.3699,0.9679,0.2196,32.175,21.075,-22.9875,,adl
9.327845,1.7435,0.6474,-0.9568,0.0632,0.4632,0.3101,32.175,21.075,-22.9875,,adl
9.340946,2.0091,0.6009,-0.7569,0.0632,0.4632,0.3101,32.175,21.075,-22.9875,,adl
9.353865,2.0091,0.6009,-0.7569,0.0632,0.4632,0.3101,33.3375,20.7563,-21.5813,,adl
9.360219,1.9878,0.6663,-1.1109,0.0632,0.4632,0.3101,33.3375,20.7563,-21.5813,,adl
9.364043,1.9878,0.6663,-1.1109,0.0632,0.4632,0.3101,33.3375,20.7563,-21.5813,,adl
9.379479,1.6078,0.9769,-1.5573,0.0632,0.4632,0.3101,33.3375,20.7563,-21.5813,,adl
9.388093,1.6078,0.9769,-1.5573,0.4371,0.4352,0.0242,33.3375,20.7563,-21.5813,,adl
9.398686,1.2747,1.1463,-1.9092,0.4371,0.4352,0.0242,33.3375,20.7563,-21.5813,,adl
9.414059,1.2747,1.1463,-1.9092,0.4371,0.4352,0.0242,33.3375,20.7563,-21.5813,,adl
9.416662,1.2747,1.1463,-1.9092,0.4371,0.4352,0.0242,34.1438,20.1,-20.8688,,adl
9.419125,1.0866,1.2421,-2.211,0.4371,0.4352,0.0242,34.1438,20.1,-20.8688,,adl
9.437022,0.9844,1.2753,-2.3616,0.4371,0.4352,0.0242,34.1438,20.1,-20.8688,,adl
9.451075,0.9844,1.2753,-2.3616,0.4139,0.7283,0.1243,34.1438,20.1,-20.8688,,adl
9.457155,0.901,1.0717,-2.6126,0.4139,0.7283,0.1243,34.1438,20.1,-20.8688,,adl
9.460032,0.901,1.0717,-2.6126,0.4139,0.7283,0.1243,34.1438,20.1,-20.8688,,adl
9.47209,0.901,1.0717,-2.6126,0.4139,0.7283,0.1243,35.2313,19.425,-19.9875,,adl
9.474508,0.8739,0.8146,-2.7972,0.4139,0.7283,0.1243,35.2313,19.425,-19.9875,,adl
9.4944,0.9356,0.5461,-2.8828,0.4139,0.7283,0.1243,35.2313,19.425,-19.9875,,adl
9.508331,0.9356,0.5461,-2.8828,0.4139,0.7283,0.1243,35.2313,19.425,-19.9875,,adl
9.514224,0.9356,0.5461,-2.8828,0.029,0.2372,0.0425,35.2313,19.425,-19.9875,,adl
9.515691,1.2694,0.2439,-2.7918,0.029,0.2372,0.0425,35.2313,19.425,-19.9875,,adl
9.533039,1.7036,0.0019,-2.614,0.029,0.2372,0.0425,35.2313,19.425,-19.9875,,adl
9.53481,1.7036,0.0019,-2.614,0.029,0.2372,0.0425,35.2313,19.2,-19.35,,adl
9.55218,1.8691,-0.2104,-2.5171,0.029,0.2372,0.0425,35.2313,19.2,-19.35,,adl
9.557096,1.8691,-0.2104,-2.5171,0.029,0.2372,0.0425,35.2313,19.2,-19.35,,adl
9.570986,1.724,-0.3148,-2.4836,0.029,0.2372,0.0425,35.2313,19.2,-19.35,,adl
9.574808,1.724,-0.3148,-2.4836,-0.2947,0.3545,-0.2421,35.2313,19.2,-19.35,,adl
9.590205,1.4862,-1.3808,-2.9199,-0.2947,0.3545,-0.2421,35.2313,19.2,-19.35,,adl
9.592438,1.4862,-1.3808,-2.9199,-0.2947,0.3545,-0.2421,35.775,20.1375,-18.75,,adl
9.604193,1.4862,-1.3808,-2.9199,-0.2947,0.3545,-0.2421,35.775,20.1375,-18.75,,adl
9.609139,0.8979,-2.3868,-2.3335,-0.2947,0.3545,-0.2421,35.775,20.1375,-18.75,,adl
9.628147,0.873,-2.1016,-1.2959,-0.2947,0.3545,-0.2421,35.775,20.1375,-18.75,,adl
9.637317,0.873,-2.1016,-1.2959,-0.627,0.5805,-0.0626,35.775,20.1375,-18.75,,adl
9.647557,1.5882,-1.4412,-1.8835,-0.627,0.5805,-0.0626,35.775,20.1375,-18.75,,adl
9.651555,1.5882,-1.4412,-1.8835,-0.627,0.5805,-0.0626,35.775,20.1375,-18.75,,adl
9.653375,1.5882,-1.4412,-1.8835,-0.627,0.5805,-0.0626,36.5813,21.0563,-16.4813,,adl
9.66569,1.824,-1.3007,-2.7327,-0.627,0.5805,-0.0626,36.5813,21.0563,-16.4813,,adl
9.685921,1.3346,-1.0105,-2.4126,-0.627,0.5805,-0.0626,36.5813,21.0563,-16.4813,,adl
9.699543,1.3346,-1.0105,-2.4126,-0.627,0.5805,-0.0626,36.5813,21.0563,-16.4813,,adl
9.700465,1.3346,-1.0105,-2.4126,-0.6685,0.9606,-0.2654,36.5813,21.0563,-16.4813,,adl
9.704252,1.0224,-0.6783,-1.7509,-0.6685,0.9606,-0.2654,36.5813,21.0563,-16.4813,,adl
9.713693,1.0224,-0.6783,-1.7509,-0.6685,0.9606,-0.2654,36.4125,21.8813,-13.2375,,adl
9.723795,1.178,-0.0854,-1.1793,-0.6685,0.9606,-0.2654,36.4125,21.8813,-13.2375,,adl
9.743371,1.1951,0.3325,-1.0291,-0.6685,0.9606,-0.2654,36.4125,21.8813,-13.2375,,adl
9.74721,1.1951,0.3325,-1.0291,-0.6685,0.9606,-0.2654,36.4125,21.8813,-13.2375,,adl
9.761975,1.1951,0.3325,-1.0291,-0.3827,0.7052,-0.6857,36.4125,21.8813,-13.2375,,adl
9.763713,0.9244,0.5383,-1.1522,-0.3827,0.7052,-0.6857,36.4125,21.8813,-13.2375,,adl
9.77363,0.9244,0.5383,-1.1522,-0.3827,0.7052,-0.6857,35.8688,22.875,-11.3438,,adl
9.781045,0.507,0.3265,-1.6791,-0.3827,0.7052,-0.6857,35.8688,22.875,-11.3438,,adl
9.796248,0.507,0.3265,-1.6791,-0.3827,0.7052,-0.6857,35.8688,22.875,-11.3438,,adl
9.802131,-0.0373,-0.8112,-2.3685,-0.3827,0.7052,-0.6857,35.8688,22.875,-11.3438,,adl
9.819981,-0.4331,-2.2584,-2.395,-0.3827,0.7052,-0.6857,35.8688,22.875,-11.3438,,adl
9.824001,-0.4331,-2.2584,-2.395,-0.9996,-0.2416,-1.4297,35.8688,22.875,-11.3438,,adl
9.836532,-0.4331,-2.2584,-2.395,-0.9996,-0.2416,-1.4297,34.0875,25.2938,-9.3,,adl
9.838343,-0.8123,-3.518,-1.6542,-0.9996,-0.2416,-1.4297,34.0875,25.2938,-9.3,,adl
9.842726,-0.8123,-3.518,-1.6542,-0.9996,-0.2416,-1.4297,34.0875,25.2938,-9.3,,adl
9.857894,-0.9862,-4.1419,-0.5086,-0.9996,-0.2416,-1.4297,34.0875,25.2938,-9.3,,adl
9.8767,-0.8077,-3.9259,0.5044,-0.9996,-0.2416,-1.4297,34.0875,25.2938,-9.3,,adl
9.885831,-0.8077,-3.9259,0.5044,-0.9556,-0.3626,-1.1499,34.0875,25.2938,-9.3,,adl
9.891982,-0.8077,-3.9259,0.5044,-0.9556,-0.3626,-1.1499,34.0875,25.2938,-9.3,,adl
9.893453,-0.8077,-3.9259,0.5044,-0.9556,-0.3626,-1.1499,29.4563,29.3625,-10.3875,,adl
9.895441,-0.5576,-3.1754,0.9489,-0.9556,-0.3626,-1.1499,29.4563,29.3625,-10.3875,,adl
9.914722,-0.7226,-2.1698,0.9176,-0.9556,-0.3626,-1.1499,29.4563,29.3625,-10.3875,,adl
9.933863,-1.4375,-1.5035,0.6088,-0.9556,-0.3626,-1.1499,29.4563,29.3625,-10.3875,,adl
9.938262,-1.4375,-1.5035,0.6088,-0.9556,-0.3626,-1.1499,29.4563,29.3625,-10.3875,,adl
9.948028,-1.4375,-1.5035,0.6088,-0.743,0.5072,-1.36,29.4563,29.3625,-10.3875,,adl
9.953317,-2.3321,-1.317,0.307,-0.743,0.5072,-1.36,29.4563,29.3625,-10.3875,,adl
9.954488,-2.3321,-1.317,0.307,-0.743,0.5072,-1.36,28.3125,32.775,-9.075,,adl
9.972542,-2.9666,-1.6008,0.4545,-0.743,0.5072,-1.36,28.3125,32.775,-9.075,,adl
9.986139,-2.9666,-1.6008,0.4545,-0.743,0.5072,-1.36,28.3125,32.775,-9.075,,adl
9.991621,-3.3075,-1.8664,0.6984,-0.743,0.5072,-1.36,28.3125,32.775,-9.075,,adl
10.009479,-3.3075,-1.8664,0.6984,-1.0301,0.8029,-1.1707,28.3125,32.775,-9.075,,adl
10.011083,-3.6878,-1.9414,0.8974,-1.0301,0.8029,-1.1707,28.3125,32.775,-9.075,,adl
10.01211,-3.6878,-1.9414,0.8974,-1.0301,0.8029,-1.1707,26.9438,34.6313,-6.1125,,adl
10.030174,-4.2335,-1.7398,0.9035,-1.0301,0.8029,-1.1707,26.9438,34.6313,-6.1125,,adl
10.033667,-4.2335,-1.7398,0.9035,-1.0301,0.8029,-1.1707,26.9438,34.6313,-6.1125,,adl
10.048716,-4.5809,-1.4611,0.7435,-1.0301,0.8029,-1.1707,26.9438,34.6313,-6.1125,,adl
10.068189,-4.7919,-1.3124,0.8168,-1.0301,0.8029,-1.1707,26.9438,34.6313,-6.1125,,adl
10.073395,-4.7919,-1.3124,0.8168,-1.0131,0.7796,-0.4914,26.9438,34.6313,-6.1125,,adl
10.076129,-4.7919,-1.3124,0.8168,-1.0131,0.7796,-0.4914,25.0875,36.0375,-2.0063,,adl
10.08112,-4.7919,-1.3124,0.8168,-1.0131,0.7796,-0.4914,25.0875,36.0375,-2.0063,,adl
10.087039,-4.658,-1.2272,1.0796,-1.0131,0.7796,-0.4914,25.0875,36.0375,-2.0063,,adl
10.105917,-4.5078,-1.2908,1.4952,-1.0131,0.7796,-0.4914,25.0875,36.0375,-2.0063,,adl
10.125593,-4.4193,-1.3213,1.9418,-1.0131,0.7796,-0.4914,25.0875,36.0375,-2.0063,,adl
10.129561,-4.4193,-1.3213,1.9418,-1.0131,0.7796,-0.4914,25.0875,36.0375,-2.0063,,adl
10.136263,-4.4193,-1.3213,1.9418,-1.0131,0.7796,-0.4914,24.7875,35.2875,0.9,,adl
10.139507,-4.4193,-1.3213,1.9418,-1.0986,0.7063,0.1928,24.7875,35.2875,0.9,,adl
10.146024,-4.4337,-1.3046,2.264,-1.0986,0.7063,0.1928,24.7875,35.2875,0.9,,adl
10.163991,-4.3297,-1.2173,2.5082,-1.0986,0.7063,0.1928,24.7875,35.2875,0.9,,adl
10.177132,-4.3297,-1.2173,2.5082,-1.0986,0.7063,0.1928,24.7875,35.2875,0.9,,adl
10.182655,-4.2091,-1.0039,2.4271,-1.0986,0.7063,0.1928,24.7875,35.2875,0.9,,adl
10.193445,-4.2091,-1.0039,2.4271,-1.0986,0.7063,0.1928,25.6875,33.975,4.5,,adl
10.197588,-4.2091,-1.0039,2.4271,-0.616,0.8518,0.9318,25.6875,33.975,4.5,,adl
10.203461,-3.9758,-0.7532,2.2229,-0.616,0.8518,0.9318,25.6875,33.975,4.5,,adl
10.221466,-3.5892,-0.604,1.8116,-0.616,0.8518,0.9318,25.6875,33.975,4.5,,adl
10.225239,-3.5892,-0.604,1.8116,-0.616,0.8518,0.9318,25.6875,33.975,4.5,,adl
10.241063,-3.227,-0.6319,1.3362,-0.616,0.8518,0.9318,25.6875,33.975,4.5,,adl
10.253327,-3.227,-0.6319,1.3362,-0.616,0.8518,0.9318,27.975,32.2875,6.6188,,adl
10.259121,-3.227,-0.6319,1.3362,-0.544,0.7345,1.5562,27.975,32.2875,6.6188,,adl
10.261906,-3.0124,-0.817,1.1547,-0.544,0.7345,1.5562,27.975,32.2875,6.6188,,adl
10.273321,-3.0124,-0.817,1.1547,-0.544,0.7345,1.5562,27.975,32.2875,6.6188,,adl
10.279296,-2.5122,-1.1342,1.212,-0.544,0.7345,1.5562,27.975,32.2875,6.6188,,adl
10.297958,-1.8109,-1.3968,1.3551,-0.544,0.7345,1.5562,27.975,32.2875,6.6188,,adl
10.314951,-1.8109,-1.3968,1.3551,-0.544,0.7345,1.5562,30.9,29.175,9.3,,adl
10.317821,-1.0228,-1.6885,1.2736,-0.544,0.7345,1.5562,30.9,29.175,9.3,,adl
10.320351,-1.0228,-1.6885,1.2736,-0.544,0.7345,1.5562,30.9,29.175,9.3,,adl
10.321289,-1.0228,-1.6885,1.2736,-0.583,0.7943,2.216,30.9,29.175,9.3,,adl
10.336097,-0.254,-2.0052,1.1546,-0.583,0.7943,2.216,30.9,29.175,9.3,,adl
10.355153,0.344,-2.2186,1.2443,-0.583,0.7943,2.216,30.9,29.175,9.3,,adl
10.370407,0.344,-2.2186,1.2443,-0.583,0.7943,2.216,30.9,29.175,9.3,,adl
10.374355,1.0938,-2.46,1.4394,-0.583,0.7943,2.216,30.9,29.175,9.3,,adl
10.377284,1.0938,-2.46,1.4394,-0.583,0.7943,2.216,33.5438,23.6813,11.8875,,adl
10.382103,1.0938,-2.46,1.4394,-0.7333,0.9861,2.4981,33.5438,23.6813,11.8875,,adl
10.392947,2.2524,-3.4345,0.8077,-0.7333,0.9861,2.4981,33.5438,23.6813,11.8875,,adl
10.412293,2.8906,-4.4286,0.7265,-0.7333,0.9861,2.4981,33.5438,23.6813,11.8875,,adl
10.417354,2.8906,-4.4286,0.7265,-0.7333,0.9861,2.4981,33.5438,23.6813,11.8875,,adl
10.431435,3.5505,-5.1223,1.0038,-0.7333,0.9861,2.4981,33.5438,23.6813,11.8875,,adl
10.434594,3.5505,-5.1223,1.0038,-0.7333,0.9861,2.4981,35.8125,17.3625,15.525,,adl
10.445293,3.5505,-5.1223,1.0038,-1.0839,1.233,2.4395,35.8125,17.3625,15.525,,adl
10.450442,4.2385,-5.0901,1.7941,-1.0839,1.233,2.4395,35.8125,17.3625,15.525,,adl
10.464695,4.2385,-5.0901,1.7941,-1.0839,1.233,2.4395,35.8125,17.3625,15.525,,adl
10.470262,4.7236,-3.7094,3.2927,-1.0839,1.233,2.4395,35.8125,17.3625,15.525,,adl
10.488482,5.3716,-1.8414,4.0926,-1.0839,1.233,2.4395,35.8125,17.3625,15.525,,adl
10.49493,5.3716,-1.8414,4.0926,-1.0839,1.233,2.4395,36.7313,10.4438,20.1188,,adl
10.507204,5.3716,-1.8414,4.0926,-0.0675,1.7742,1.9801,36.7313,10.4438,20.1188,,adl
10.508982,5.8939,-0.4679,3.8769,-0.0675,1.7742,1.9801,36.7313,10.4438,20.1188,,adl
10.512678,5.8939,-0.4679,3.8769,-0.0675,1.7742,1.9801,36.7313,10.4438,20.1188,,adl
10.527154,5.9315,0.3748,2.8509,-0.0675,1.7742,1.9801,36.7313,10.4438,20.1188,,adl
10.546842,5.2373,0.848,1.503,-0.0675,1.7742,1.9801,36.7313,10.4438,20.1188,,adl
10.554061,5.2373,0.848,1.503,-0.0675,1.7742,1.9801,36.2438,6.9375,24.375,,adl
10.559687,5.2373,0.848,1.503,-0.0675,1.7742,1.9801,36.2438,6.9375,24.375,,adl
10.566128,4.3075,0.8573,0.1091,-0.0675,1.7742,1.9801,36.2438,6.9375,24.375,,adl
10.569637,4.3075,0.8573,0.1091,0.051,1.7864,0.4639,36.2438,6.9375,24.375,,adl
10.584551,3.5623,0.9213,-0.7508,0.051,1.7864,0.4639,36.2438,6.9375,24.375,,adl
10.604557,3.1634,0.8645,-1.0222,0.051,1.7864,0.4639,36.2438,6.9375,24.375,,adl
10.60842,3.1634,0.8645,-1.0222,0.051,1.7864,0.4639,36.2438,6.9375,24.375,,adl
10.613687,3.1634,0.8645,-1.0222,0.051,1.7864,0.4639,34.5,6.1125,27.6375,,adl
10.622575,3.1646,0.6964,-0.3463,0.051,1.7864,0.4639,34.5,6.1125,27.6375,,adl
10.6318,3.1646,0.6964,-0.3463,-1.1536,1.999,0.3406,34.5,6.1125,27.6375,,adl
10.642634,3.2524,0.2153,0.5526,-1.1536,1.999,0.3406,34.5,6.1125,27.6375,,adl
10.656341,3.2524,0.2153,0.5526,-1.1536,1.999,0.3406,34.5,6.1125,27.6375,,adl
10.661507,2.8346,-0.2535,1.1484,-1.1536,1.999,0.3406,34.5,6.1125,27.6375,,adl
10.673233,2.8346,-0.2535,1.1484,-1.1536,1.999,0.3406,30.0938,2.9625,33.0375,,adl
10.679719,2.0338,-0.5534,1.7659,-1.1536,1.999,0.3406,30.0938,2.9625,33.0375,,adl
10.694456,2.0338,-0.5534,1.7659,-1.3735,2.7895,0.034,30.0938,2.9625,33.0375,,adl
10.699335,1.1892,-0.6219,2.214,-1.3735,2.7895,0.034,30.0938,2.9625,33.0375,,adl
10.704601,1.1892,-0.6219,2.214,-1.3735,2.7895,0.034,30.0938,2.9625,33.0375,,adl
10.718159,0.6169,-0.3329,2.2604,-1.3735,2.7895,0.034,30.0938,2.9625,33.0375,,adl
10.733627,0.6169,-0.3329,2.2604,-1.3735,2.7895,0.034,24.2063,0.4125,37.5563,,adl
10.737311,0.2635,0.1284,1.9439,-1.3735,2.7895,0.034,24.2063,0.4125,37.5563,,adl
10.751322,0.2635,0.1284,1.9439,-1.3735,2.7895,0.034,24.2063,0.4125,37.5563,,adl
10.755944,0.2635,0.1284,1.9439,-0.7675,2.6942,0.1781,24.2063,0.4125,37.5563,,adl
10.758177,-0.1038,0.5672,1.3351,-0.7675,2.6942,0.1781,24.2063,0.4125,37.5563,,adl
10.775693,-0.4064,0.8666,0.9352,-0.7675,2.6942,0.1781,24.2063,0.4125,37.5563,,adl
10.793514,-0.4064,0.8666,0.9352,-0.7675,2.6942,0.1781,17.7375,-1.7625,41.175,,adl
10.797382,-0.6334,1.0159,0.6663,-0.7675,2.6942,0.1781,17.7375,-1.7625,41.175,,adl
10.799092,-0.6334,1.0159,0.6663,-0.7675,2.6942,0.1781,17.7375,-1.7625,41.175,,adl
10.814141,-0.7145,0.9992,0.418,-0.7675,2.6942,0.1781,17.7375,-1.7625,41.175,,adl
10.818074,-0.7145,0.9992,0.418,-0.858,2.12,0.205,17.7375,-1.7625,41.175,,adl
10.833258,-0.6172,0.7969,0.1197,-0.858,2.12,0.205,17.7375,-1.7625,41.175,,adl
10.847876,-0.6172,0.7969,0.1197,-0.858,2.12,0.205,17.7375,-1.7625,41.175,,adl
10.852193,-0.3405,0.3559,0.1545,-0.858,2.12,0.205,17.7375,-1.7625,41.175,,adl
10.853825,-0.3405,0.3559,0.1545,-0.858,2.12,0.205,12.375,-4.6313,43.8,,adl
10.871589,0.1435,-0.2759,0.4186,-0.858,2.12,0.205,12.375,-4.6313,43.8,,adl
10.88155,0.1435,-0.2759,0.4186,-1.1694,1.6654,0.2135,12.375,-4.6313,43.8,,adl
10.892076,0.4798,-0.723,0.8053,-1.1694,1.6654,0.2135,12.375,-4.6313,43.8,,adl
10.895483,0.4798,-0.723,0.8053,-1.1694,1.6654,0.2135,12.375,-4.6313,43.8,,adl
10.909986,0.5031,-0.8232,1.0546,-1.1694,1.6654,0.2135,12.375,-4.6313,43.8,,adl
10.913338,0.5031,-0.8232,1.0546,-1.1694,1.6654,0.2135,5.7,-7.6875,42.0,,adl
10.928343,0.32,-0.5026,0.9582,-1.1694,1.6654,0.2135,5.7,-7.6875,42.0,,adl
10.941879,0.32,-0.5026,0.9582,-1.1694,1.6654,0.2135,5.7,-7.6875,42.0,,adl
10.943161,0.32,-0.5026,0.9582,-0.7333,1.6948,0.117,5.7,-7.6875,42.0,,adl
10.947428,-0.0595,0.0436,0.562,-0.7333,1.6948,0.117,5.7,-7.6875,42.0,,adl
10.967216,-0.5434,0.5142,0.0608,-0.7333,1.6948,0.117,5.7,-7.6875,42.0,,adl
10.973252,-0.5434,0.5142,0.0608,-0.7333,1.6948,0.117,1.4062,-9.5063,41.4938,,adl
10.986424,-0.979,0.7842,-0.2736,-0.7333,1.6948,0.117,1.4062,-9.5063,41.4938,,adl
10.990938,-0.979,0.7842,-0.2736,-0.7333,1.6948,0.117,1.4062,-9.5063,41.4938,,adl
11.005132,-0.979,0.7842,-0.2736,-0.8885,2.4522,0.5336,1.4062,-9.5063,41.4938,,adl
11.006808,-1.3018,0.7321,-0.1564,-0.8885,2.4522,0.5336,1.4062,-9.5063,41.4938,,adl
11.024294,-1.4461,0.3524,0.148,-0.8885,2.4522,0.5336,1.4062,-9.5063,41.4938,,adl
11.033514,-1.4461,0.3524,0.148,-0.8885,2.4522,0.5336,-5.25,-11.1,41.775,,adl
11.03974,-1.4461,0.3524,0.148,-0.8885,2.4522,0.5336,-5.25,-11.1,41.775,,adl
11.043221,-1.4919,-0.0497,0.8639,-0.8885,2.4522,0.5336,-5.25,-11.1,41.775,,adl
11.062054,-1.4278,-0.2236,1.6151,-0.8885,2.4522,0.5336,-5.25,-11.1,41.775,,adl
11.066623,-1.4278,-0.2236,1.6151,-1.1254,2.4364,1.1213,-5.25,-11.1,41.775,,adl
11.082127,-1.1469,-0.2246,2.187,-1.1254,2.4364,1.1213,-5.25,-11.1,41.775,,adl
11.086004,-1.1469,-0.2246,2.187,-1.1254,2.4364,1.1213,-5.25,-11.1,41.775,,adl
11.093558,-1.1469,-0.2246,2.187,-1.1254,2.4364,1.1213,-11.4,-13.3875,41.7375,,adl
11.103058,-0.8015,-0.02,2.6961,-1.1254,2.4364,1.1213,-11.4,-13.3875,41.7375,,adl
11.12039,-0.2306,0.1483,3.0611,-1.1254,2.4364,1.1213,-11.4,-13.3875,41.7375,,adl
11.129105,-0.2306,0.1483,3.0611,-0.5684,1.972,1.583,-11.4,-13.3875,41.7375,,adl
11.133566,-0.2306,0.1483,3.0611,-0.5684,1.972,1.583,-11.4,-13.3875,41.7375,,adl
11.13918,0.2112,0.1002,2.9405,-0.5684,1.972,1.583,-11.4,-13.3875,41.7375,,adl
11.153866,0.2112,0.1002,2.9405,-0.5684,1.972,1.583,-16.425,-14.0063,41.6625,,adl
11.158866,0.6131,-0.2685,2.7645,-0.5684,1.972,1.583,-16.425,-14.0063,41.6625,,adl
11.177426,0.9005,-0.6357,2.3157,-0.5684,1.972,1.583,-16.425,-14.0063,41.6625,,adl
11.181506,0.9005,-0.6357,2.3157,-0.5684,1.972,1.583,-16.425,-14.0063,41.6625,,adl
11.192592,0.9005,-0.6357,2.3157,-0.0175,0.9166,1.5757,-16.425,-14.0063,41.6625,,adl
11.19732,1.5051,-1.001,1.9036,-0.0175,0.9166,1.5757,-16.425,-14.0063,41.6625,,adl
11.213366,1.5051,-1.001,1.9036,-0.0175,0.9166,1.5757,-18.7313,-11.5875,38.5312,,adl
11.215462,2.4414,-0.9582,1.5343,-0.0175,0.9166,1.5757,-18.7313,-11.5875,38.5312,,adl
11.229355,2.4414,-0.9582,1.5343,-0.0175,0.9166,1.5757,-18.7313,-11.5875,38.5312,,adl
11.237418,3.5014,-0.6386,0.8267,-0.0175,0.9166,1.5757,-18.7313,-11.5875,38.5312,,adl
11.253628,3.5014,-0.6386,0.8267,0.4969,-0.0132,1.1982,-18.7313,-11.5875,38.5312,,adl
11.258089,4.3513,-0.2115,0.2751,0.4969,-0.0132,1.1982,-18.7313,-11.5875,38.5312,,adl
11.276505,4.7487,0.0531,-0.5224,0.4969,-0.0132,1.1982,-18.7313,-11.5875,38.5312,,adl
11.279526,4.7487,0.0531,-0.5224,0.4969,-0.0132,1.1982,-20.8125,-8.8125,39.75,,adl
11.280402,4.7487,0.0531,-0.5224,0.4969,-0.0132,1.1982,-20.8125,-8.8125,39.75,,adl
11.292096,4.8726,0.0863,-0.9468,0.4969,-0.0132,1.1982,-20.8125,-8.8125,39.75,,adl
11.311257,4.6833,0.0838,-1.2431,0.4969,-0.0132,1.1982,-20.8125,-8.8125,39.75,,adl
11.315443,4.6833,0.0838,-1.2431,0.0962,0.6013,0.2563,-20.8125,-8.8125,39.75,,adl
11.327239,4.6833,0.0838,-1.2431,0.0962,0.6013,0.2563,-20.8125,-8.8125,39.75,,adl
11.330788,4.5768,-0.0047,-1.1967,0.0962,0.6013,0.2563,-20.8125,-8.8125,39.75,,adl
11.333519,4.5768,-0.0047,-1.1967,0.0962,0.6013,0.2563,-21.7688,-7.0125,39.9938,,adl
11.349532,4.3257,-0.1623,-1.2864,0.0962,0.6013,0.2563,-21.7688,-7.0125,39.9938,,adl
11.368995,3.893,-0.5088,-1.1048,0.0962,0.6013,0.2563,-21.7688,-7.0125,39.9938,,adl
11.372512,3.893,-0.5088,-1.1048,0.0962,0.6013,0.2563,-21.7688,-7.0125,39.9938,,adl
11.377555,3.893,-0.5088,-1.1048,-0.5182,1.5249,-0.4157,-21.7688,-7.0125,39.9938,,adl
11.387821,3.2893,-0.8795,-0.8235,-0.5182,1.5249,-0.4157,-21.7688,-7.0125,39.9938,,adl
11.393061,3.2893,-0.8795,-0.8235,-0.5182,1.5249,-0.4157,-24.9,-8.4938,38.2125,,adl
11.40723,2.557,-1.2525,-0.6619,-0.5182,1.5249,-0.4157,-24.9,-8.4938,38.2125,,adl
11.421097,2.557,-1.2525,-0.6619,-0.5182,1.5249,-0.4157,-24.9,-8.4938,38.2125,,adl
11.425654,1.6816,-1.4068,-0.2142,-0.5182,1.5249,-0.4157,-24.9,-8.4938,38.2125,,adl
11.439705,1.6816,-1.4068,-0.2142,-0.8848,1.9855,-0.6905,-24.9,-8.4938,38.2125,,adl
11.44517,0.9351,-1.3204,0.4538,-0.8848,1.9855,-0.6905,-24.9,-8.4938,38.2125,,adl
11.453186,0.9351,-1.3204,0.4538,-0.8848,1.9855,-0.6905,-28.05,-11.3625,34.5375,,adl
11.463905,0.3478,-1.1016,0.8015,-0.8848,1.9855,-0.6905,-28.05,-11.3625,34.5375,,adl
11.470404,0.3478,-1.1016,0.8015,-0.8848,1.9855,-0.6905,-28.05,-11.3625,34.5375,,adl
11.483199,-0.1099,-0.901,0.9252,-0.8848,1.9855,-0.6905,-28.05,-11.3625,34.5375,,adl
11.502047,-0.1099,-0.901,0.9252,-0.6905,2.1003,-0.5477,-28.05,-11.3625,34.5375,,adl
11.505738,-0.5395,-0.8179,1.0075,-0.6905,2.1003,-0.5477,-28.05,-11.3625,34.5375,,adl
11.513662,-0.5395,-0.8179,1.0075,-0.6905,2.1003,-0.5477,-32.8688,-13.7063,29.6813,,adl
11.515649,-0.5395,-0.8179,1.0075,-0.6905,2.1003,-0.5477,-32.8688,-13.7063,29.6813,,adl
11.521555,-1.0671,-0.59,1.0251,-0.6905,2.1003,-0.5477,-32.8688,-13.7063,29.6813,,adl
11.540785,-1.6412,-0.2848,1.003,-0.6905,2.1003,-0.5477,-32.8688,-13.7063,29.6813,,adl
11.559729,-1.9038,-0.0548,0.9837,-0.6905,2.1003,-0.5477,-32.8688,-13.7063,29.6813,,adl
11.563795,-1.9038,-0.0548,0.9837,-0.6905,2.1003,-0.5477,-32.8688,-13.7063,29.6813,,adl
11.564649,-1.9038,-0.0548,0.9837,-0.5232,1.5799,-0.2984,-32.8688,-13.7063,29.6813,,adl
11.572579,-1.9038,-0.0548,0.9837,-0.5232,1.5799,-0.2984,-35.4938,-15.375,25.5938,,adl
11.581305,-1.9856,0.0077,0.9034,-0.5232,1.5799,-0.2984,-35.4938,-15.375,25.5938,,adl
11.598396,-2.0206,-0.0609,0.8846,-0.5232,1.5799,-0.2984,-35.4938,-15.375,25.5938,,adl
11.612328,-2.0206,-0.0609,0.8846,-0.5232,1.5799,-0.2984,-35.4938,-15.375,25.5938,,adl
11.617596,-2.0308,-0.2178,0.752,-0.5232,1.5799,-0.2984,-35.4938,-15.375,25.5938,,adl
11.626225,-2.0308,-0.2178,0.752,-0.55,1.1132,-0.043,-35.4938,-15.375,25.5938,,adl
11.632704,-2.0308,-0.2178,0.752,-0.55,1.1132,-0.043,-38.3438,-15.9,22.65,,adl
11.636246,-2.1892,-0.3688,0.7516,-0.55,1.1132,-0.043,-38.3438,-15.9,22.65,,adl
11.656261,-2.2295,-0.5756,0.9071,-0.55,1.1132,-0.043,-38.3438,-15.9,22.65,,adl
11.660332,-2.2295,-0.5756,0.9071,-0.55,1.1132,-0.043,-38.3438,-15.9,22.65,,adl
11.674163,-1.8762,-0.7242,1.1768,-0.55,1.1132,-0.043,-38.3438,-15.9,22.65,,adl
11.688652,-1.8762,-0.7242,1.1768,-0.5292,0.8481,0.3883,-38.3438,-15.9,22.65,,adl
11.693806,-1.3195,-0.9068,1.1721,-0.5292,0.8481,0.3883,-38.3438,-15.9,22.65,,adl
11.696148,-1.3195,-0.9068,1.1721,-0.5292,0.8481,0.3883,-37.9125,-16.0312,17.7563,,adl
11.708049,-1.3195,-0.9068,1.1721,-0.5292,0.8481,0.3883,-37.9125,-16.0312,17.7563,,adl
11.715268,-0.9784,-1.147,1.1563,-0.5292,0.8481,0.3883,-37.9125,-16.0312,17.7563,,adl
11.732412,-1.0138,-1.3623,1.1511,-0.5292,0.8481,0.3883,-37.9125,-16.0312,17.7563,,adl
11.750694,-1.0138,-1.3623,1.1511,-0.4999,0.6893,0.4921,-37.9125,-16.0312,17.7563,,adl
11.752326,-1.0977,-1.4003,1.4814,-0.4999,0.6893,0.4921,-37.9125,-16.0312,17.7563,,adl
11.753422,-1.0977,-1.4003,1.4814,-0.4999,0.6893,0.4921,-40.95,-15.6375,17.7375,,adl
11.754639,-1.0977,-1.4003,1.4814,-0.4999,0.6893,0.4921,-40.95,-15.6375,17.7375,,adl
11.770529,-0.9702,-1.4761,1.5717,-0.4999,0.6893,0.4921,-40.95,-15.6375,17.7375,,adl
11.789281,-0.7532,-1.4222,1.6754,-0.4999,0.6893,0.4921,-40.95,-15.6375,17.7375,,adl
11.804466,-0.7532,-1.4222,1.6754,-0.4999,0.6893,0.4921,-40.95,-15.6375,17.7375,,adl
11.809243,-0.4519,-1.0513,1.8086,-0.4999,0.6893,0.4921,-40.95,-15.6375,17.7375,,adl
11.814108,-0.4519,-1.0513,1.8086,-0.0785,0.4718,0.8048,-40.95,-15.6375,17.7375,,adl
11.816131,-0.4519,-1.0513,1.8086,-0.0785,0.4718,0.8048,-41.8875,-13.8563,16.65,,adl
11.827277,-0.1283,-0.6309,1.6233,-0.0785,0.4718,0.8048,-41.8875,-13.8563,16.65,,adl
11.846122,0.0927,-0.3295,1.1828,-0.0785,0.4718,0.8048,-41.8875,-13.8563,16.65,,adl
11.850906,0.0927,-0.3295,1.1828,-0.0785,0.4718,0.8048,-41.8875,-13.8563,16.65,,adl
11.866177,0.3401,-0.1735,0.6367,-0.0785,0.4718,0.8048,-41.8875,-13.8563,16.65,,adl
11.873386,0.3401,-0.1735,0.6367,-0.0785,0.4718,0.8048,-41.6625,-12.1688,16.2375,,adl
11.876436,0.3401,-0.1735,0.6367,0.4126,-0.1695,0.8036,-41.6625,-12.1688,16.2375,,adl
11.88414,0.3857,-0.0057,0.1503,0.4126,-0.1695,0.8036,-41.6625,-12.1688,16.2375,,adl
11.898944,0.3857,-0.0057,0.1503,0.4126,-0.1695,0.8036,-41.6625,-12.1688,16.2375,,adl
11.904165,0.5396,0.2638,-0.1479,0.4126,-0.1695,0.8036,-41.6625,-12.1688,16.2375,,adl
11.92408,0.8156,0.3696,-0.4533,0.4126,-0.1695,0.8036,-41.6625,-12.1688,16.2375,,adl
11.933876,0.8156,0.3696,-0.4533,0.4126,-0.1695,0.8036,-41.0625,-10.1625,17.1562,,adl
11.937318,0.8156,0.3696,-0.4533,0.5739,-0.5959,0.9405,-41.0625,-10.1625,17.1562,,adl
11.942268,1.2551,0.3794,-0.6434,0.5739,-0.5959,0.9405,-41.0625,-10.1625,17.1562,,adl
11.947348,1.2551,0.3794,-0.6434,0.5739,-0.5959,0.9405,-41.0625,-10.1625,17.1562,,adl
11.961882,1.7416,0.3207,-0.8955,0.5739,-0.5959,0.9405,-41.0625,-10.1625,17.1562,,adl
11.980416,2.1163,0.2819,-1.2027,0.5739,-0.5959,0.9405,-41.0625,-10.1625,17.1562,,adl
11.993444,2.1163,0.2819,-1.2027,0.5739,-0.5959,0.9405,-40.4813,-6.2438,19.5563,,adl
11.997546,2.1163,0.2819,-1.2027,0.5739,-0.5959,0.9405,-40.4813,-6.2438,19.5563,,adl
11.999506,2.1163,0.2819,-1.2027,0.4969,-0.8378,0.6937,-40.4813,-6.2438,19.5563,,adl
12.001404,2.4323,0.258,-1.4806,0.4969,-0.8378,0.6937,-40.4813,-6.2438,19.5563,,adl
12.019355,2.569,0.2257,-1.7566,0.4969,-0.8378,0.6937,-40.4813,-6.2438,19.5563,,adl
12.038103,2.6702,0.275,-1.8307,0.4969,-0.8378,0.6937,-40.4813,-6.2438,19.5563,,adl
12.042109,2.6702,0.275,-1.8307,0.4969,-0.8378,0.6937,-40.4813,-6.2438,19.5563,,adl
12.053406,2.6702,0.275,-1.8307,0.4969,-0.8378,0.6937,-39.3,-4.5938,21.0938,,adl
12.059679,2.7625,0.3585,-1.8218,0.4969,-0.8378,0.6937,-39.3,-4.5938,21.0938,,adl
12.061947,2.7625,0.3585,-1.8218,0.2098,-0.6009,0.3699,-39.3,-4.5938,21.0938,,adl
12.076128,2.6547,0.3209,-1.8962,0.2098,-0.6009,0.3699,-39.3,-4.5938,21.0938,,adl
12.09031,2.6547,0.3209,-1.8962,0.2098,-0.6009,0.3699,-39.3,-4.5938,21.0938,,adl
12.095665,2.3472,0.2792,-1.7289,0.2098,-0.6009,0.3699,-39.3,-4.5938,21.0938,,adl
12.11377,2.3472,0.2792,-1.7289,0.2098,-0.6009,0.3699,-38.9438,-3.9563,22.0312,,adl
12.117075,2.0133,0.2044,-1.4232,0.2098,-0.6009,0.3699,-38.9438,-3.9563,22.0312,,adl
12.123652,2.0133,0.2044,-1.4232,-0.153,-0.0437,0.0657,-38.9438,-3.9563,22.0312,,adl
12.133604,1.7361,0.151,-1.0361,-0.153,-0.0437,0.0657,-38.9438,-3.9563,22.0312,,adl
12.137622,1.7361,0.151,-1.0361,-0.153,-0.0437,0.0657,-38.9438,-3.9563,22.0312,,adl
12.15308,1.5765,0.1985,-0.6413,-0.153,-0.0437,0.0657,-38.9438,-3.9563,22.0312,,adl
12.172261,1.4324,0.306,-0.5134,-0.153,-0.0437,0.0657,-38.9438,-3.9563,22.0312,,adl
12.174219,1.4324,0.306,-0.5134,-0.153,-0.0437,0.0657,-37.1813,-3.9375,20.5312,,adl
12.186037,1.4324,0.306,-0.5134,-0.153,-0.0437,0.0657,-37.1813,-3.9375,20.5312,,adl
12.187252,1.4324,0.306,-0.5134,-0.0723,0.1188,-0.0821,-37.1813,-3.9375,20.5312,,adl
12.192343,1.247,0.3667,-0.5477,-0.0723,0.1188,-0.0821,-37.1813,-3.9375,20.5312,,adl
12.210117,1.0111,0.4261,-0.8128,-0.0723,0.1188,-0.0821,-37.1813,-3.9375,20.5312,,adl
12.229426,0.8131,0.4083,-1.0757,-0.0723,0.1188,-0.0821,-37.1813,-3.9375,20.5312,,adl
12.232639,0.8131,0.4083,-1.0757,-0.0723,0.1188,-0.0821,-38.8313,-4.575,22.2375,,adl
12.233775,0.8131,0.4083,-1.0757,-0.0723,0.1188,-0.0821,-38.8313,-4.575,22.2375,,adl
12.247772,0.8131,0.4083,-1.0757,-0.2446,0.1664,-0.3436,-38.8313,-4.575,22.2375,,adl
12.249643,0.669,0.3494,-1.1727,-0.2446,0.1664,-0.3436,-38.8313,-4.575,22.2375,,adl
12.267861,0.4971,0.0981,-1.0233,-0.2446,0.1664,-0.3436,-38.8313,-4.575,22.2375,,adl
12.283457,0.4971,0.0981,-1.0233,-0.2446,0.1664,-0.3436,-38.8313,-4.575,22.2375,,adl
12.28744,0.2244,-0.2518,-0.7338,-0.2446,0.1664,-0.3436,-38.8313,-4.575,22.2375,,adl
12.293448,0.2244,-0.2518,-0.7338,-0.2446,0.1664,-0.3436,-39.2625,-5.7,21.5063,,adl
12.305512,-0.1004,-0.5558,-0.3087,-0.2446,0.1664,-0.3436,-39.2625,-5.7,21.5063,,adl
12.309934,-0.1004,-0.5558,-0.3087,-0.6062,0.4707,-0.4144,-39.2625,-5.7,21.5063,,adl
12.325449,-0.3249,-0.6732,0.2681,-0.6062,0.4707,-0.4144,-39.2625,-5.7,21.5063,,adl
12.329126,-0.3249,-0.6732,0.2681,-0.6062,0.4707,-0.4144,-39.2625,-5.7,21.5063,,adl
12.344567,-0.6308,-0.6345,0.6769,-0.6062,0.4707,-0.4144,-39.2625,-5.7,21.5063,,adl
12.354185,-0.6308,-0.6345,0.6769,-0.6062,0.4707,-0.4144,-39.7313,-7.8938,20.1562,,adl
12.363317,-0.8598,-0.5304,0.77,-0.6062,0.4707,-0.4144,-39.7313,-7.8938,20.1562,,adl
12.371492,-0.8598,-0.5304,0.77,-0.3741,0.7223,-0.3264,-39.7313,-7.8938,20.1562,,adl
12.377259,-0.8598,-0.5304,0.77,-0.3741,0.7223,-0.3264,-39.7313,-7.8938,20.1562,,adl
12.381657,-1.1631,-0.4766,0.6783,-0.3741,0.7223,-0.3264,-39.7313,-7.8938,20.1562,,adl
12.402554,-1.3156,-0.3849,0.6198,-0.3741,0.7223,-0.3264,-39.7313,-7.8938,20.1562,,adl
12.416173,-1.3156,-0.3849,0.6198,-0.3741,0.7223,-0.3264,-40.35,-8.9813,18.6,,adl
12.42138,-1.4057,-0.2461,0.5991,-0.3741,0.7223,-0.3264,-40.35,-8.9813,18.6,,adl
12.424379,-1.4057,-0.2461,0.5991,-0.3741,0.7223,-0.3264,-40.35,-8.9813,18.6,,adl
12.434402,-1.4057,-0.2461,0.5991,-0.1665,0.3239,-0.2214,-40.35,-8.9813,18.6,,adl
12.439307,-1.8125,-0.3537,0.213,-0.1665,0.3239,-0.2214,-40.35,-8.9813,18.6,,adl
12.459124,-2.1859,-0.3906,-0.0266,-0.1665,0.3239,-0.2214,-40.35,-8.9813,18.6,,adl
12.473121,-2.1859,-0.3906,-0.0266,-0.1665,0.3239,-0.2214,-40.35,-8.9813,18.6,,adl
12.476213,-2.1859,-0.3906,-0.0266,-0.1665,0.3239,-0.2214,-41.3625,-9.9563,17.2688,,adl
12.478551,-2.0005,-0.4604,0.0892,-0.1665,0.3239,-0.2214,-41.3625,-9.9563,17.2688,,adl
12.496645,-2.0005,-0.4604,0.0892,-0.1481,-0.2808,0.1463,-41.3625,-9.9563,17.2688,,adl
12.498336,-1.5247,-0.5365,0.359,-0.1481,-0.2808,0.1463,-41.3625,-9.9563,17.2688,,adl
12.515993,-0.9776,-0.6788,0.4872,-0.1481,-0.2808,0.1463,-41.3625,-9.9563,17.2688,,adl
12.520322,-0.9776,-0.6788,0.4872,-0.1481,-0.2808,0.1463,-41.3625,-9.9563,17.2688,,adl
12.532649,-0.9776,-0.6788,0.4872,-0.1481,-0.2808,0.1463,-41.1938,-9.6188,18.3188,,adl
12.535195,-0.6922,-0.7539,0.4224,-0.1481,-0.2808,0.1463,-41.1938,-9.6188,18.3188,,adl
12.554424,-0.6297,-0.7005,0.1957,-0.1481,-0.2808,0.1463,-41.1938,-9.6188,18.3188,,adl
12.55839,-0.6297,-0.7005,0.1957,0.1671,-0.4383,0.0718,-41.1938,-9.6188,18.3188,,adl
12.568763,-0.6297,-0.7005,0.1957,0.1671,-0.4383,0.0718,-41.1938,-9.6188,18.3188,,adl
12.574123,-0.596,-0.5631,-0.0334,0.1671,-0.4383,0.0718,-41.1938,-9.6188,18.3188,,adl
12.593518,-0.4444,-0.497,-0.2438,0.1671,-0.4383,0.0718,-41.1938,-9.6188,18.3188,,adl
12.597426,-0.4444,-0.497,-0.2438,0.1671,-0.4383,0.0718,-39.75,-9.4313,19.2,,adl
12.611283,-0.4053,-0.4189,-0.4078,0.1671,-0.4383,0.0718,-39.75,-9.4313,19.2,,adl
12.614966,-0.4053,-0.4189,-0.4078,0.1671,-0.4383,0.0718,-39.75,-9.4313,19.2,,adl
12.621223,-0.4053,-0.4189,-0.4078,0.2294,-0.2918,0.1328,-39.75,-9.4313,19.2,,adl
12.631074,-0.4317,-0.319,-0.5704,0.2294,-0.2918,0.1328,-39.75,-9.4313,19.2,,adl
12.64976,-0.3048,-0.2998,-0.516,0.2294,-0.2918,0.1328,-39.75,-9.4313,19.2,,adl
12.652511,-0.3048,-0.2998,-0.516,0.2294,-0.2918,0.1328,-38.7188,-8.5312,18.7688,,adl
12.663618,-0.3048,-0.2998,-0.516,0.2294,-0.2918,0.1328,-38.7188,-8.5312,18.7688,,adl
12.671165,-0.0858,-0.2357,-0.3945,0.2294,-0.2918,0.1328,-38.7188,-8.5312,18.7688,,adl
12.683462,-0.0858,-0.2357,-0.3945,0.1243,-0.0499,0.2294,-38.7188,-8.5312,18.7688,,adl
12.688281,0.0795,-0.209,-0.3498,0.1243,-0.0499,0.2294,-38.7188,-8.5312,18.7688,,adl
12.707539,0.09,-0.2584,-0.4275,0.1243,-0.0499,0.2294,-38.7188,-8.5312,18.7688,,adl
12.711691,0.09,-0.2584,-0.4275,0.1243,-0.0499,0.2294,-38.7188,-8.5312,18.7688,,adl
12.714204,0.09,-0.2584,-0.4275,0.1243,-0.0499,0.2294,-40.3313,-7.7813,20.2688,,adl
12.726412,0.1568,-0.2,-0.4082,0.1243,-0.0499,0.2294,-40.3313,-7.7813,20.2688,,adl
12.744923,0.1568,-0.2,-0.4082,0.0657,-0.0645,0.1341,-40.3313,-7.7813,20.2688,,adl
12.746457,0.2416,-0.192,-0.3953,0.0657,-0.0645,0.1341,-40.3313,-7.7813,20.2688,,adl
12.760005,0.2416,-0.192,-0.3953,0.0657,-0.0645,0.1341,-40.3313,-7.7813,20.2688,,adl
12.765219,0.3727,-0.1802,-0.4406,0.0657,-0.0645,0.1341,-40.3313,-7.7813,20.2688,,adl
12.773483,0.3727,-0.1802,-0.4406,0.0657,-0.0645,0.1341,-39.8625,-7.3125,20.3625,,adl
12.78381,0.3376,-0.1649,-0.4679,0.0657,-0.0645,0.1341,-39.8625,-7.3125,20.3625,,adl
12.804084,0.2973,-0.2145,-0.4521,0.0657,-0.0645,0.1341,-39.8625,-7.3125,20.3625,,adl
12.807806,0.2973,-0.2145,-0.4521,0.0657,-0.0645,0.1341,-39.8625,-7.3125,20.3625,,adl
12.81015,0.2973,-0.2145,-0.4521,-0.0198,-0.0767,-0.0173,-39.8625,-7.3125,20.3625,,adl
12.822125,0.2043,-0.2227,-0.472,-0.0198,-0.0767,-0.0173,-39.8625,-7.3125,20.3625,,adl
12.833125,0.2043,-0.2227,-0.472,-0.0198,-0.0767,-0.0173,-39.9563,-7.2,20.3813,,adl
12.840981,0.0717,-0.255,-0.3468,-0.0198,-0.0767,-0.0173,-39.9563,-7.2,20.3813,,adl
12.85471,0.0717,-0.255,-0.3468,-0.0198,-0.0767,-0.0173,-39.9563,-7.2,20.3813,,adl
12.860572,-0.0717,-0.2236,-0.3898,-0.0198,-0.0767,-0.0173,-39.9563,-7.2,20.3813,,adl
12.870184,-0.0717,-0.2236,-0.3898,-0.059,0.1786,0.0144,-39.9563,-7.2,20.3813,,adl
12.881013,-0.0694,-0.2171,-0.3299,-0.059,0.1786,0.0144,-39.9563,-7.2,20.3813,,adl
12.894489,-0.0694,-0.2171,-0.3299,-0.059,0.1786,0.0144,-40.1438,-7.2938,20.175,,adl
12.898712,0.0779,-0.299,-0.2854,-0.059,0.1786,0.0144,-40.1438,-7.2938,20.175,,adl
12.902641,0.0779,-0.299,-0.2854,-0.059,0.1786,0.0144,-40.1438,-7.2938,20.175,,adl
12.917642,0.042,-0.217,-0.2542,-0.059,0.1786,0.0144,-40.1438,-7.2938,20.175,,adl
12.931807,0.042,-0.217,-0.2542,-0.0382,0.1664,-0.0186,-40.1438,-7.2938,20.175,,adl
12.93942,-0.2237,-0.319,-0.3191,-0.0382,0.1664,-0.0186,-40.1438,-7.2938,20.175,,adl
12.950436,-0.2237,-0.319,-0.3191,-0.0382,0.1664,-0.0186,-40.1438,-7.2938,20.175,,adl
12.954101,-0.2237,-0.319,-0.3191,-0.0382,0.1664,-0.0186,-40.125,-7.875,19.95,,adl
12.955623,-0.2858,-0.421,-0.4921,-0.0382,0.1664,-0.0186,-40.125,-7.875,19.95,,adl
12.975531,-0.2659,-0.452,-0.569,-0.0382,0.1664,-0.0186,-40.125,-7.875,19.95,,adl
12.993989,-0.2659,-0.452,-0.569,0.0132,0.0956,0.0828,-40.125,-7.875,19.95,,adl
12.997959,-0.1549,-0.4051,-0.5679,0.0132,0.0956,0.0828,-40.125,-7.875,19.95,,adl
13.000248,-0.1549,-0.4051,-0.5679,0.0132,0.0956,0.0828,-40.125,-7.875,19.95,,adl
13.014047,-0.1093,-0.2227,-0.6892,0.0132,0.0956,0.0828,-40.125,-7.875,19.95,,adl
13.015794,-0.1093,-0.2227,-0.6892,0.0132,0.0956,0.0828,-40.1438,-7.4438,19.5375,,adl
13.032235,-0.2483,-0.1012,-0.747,0.0132,0.0956,0.0828,-40.1438,-7.4438,19.5375,,adl
13.045438,-0.2483,-0.1012,-0.747,0.0132,0.0956,0.0828,-40.1438,-7.4438,19.5375,,adl
13.050945,-0.3826,-0.0235,-0.8,0.0132,0.0956,0.0828,-40.1438,-7.4438,19.5375,,adl
13.055212,-0.3826,-0.0235,-0.8,0.0425,0.2067,0.1756,-40.1438,-7.4438,19.5375,,adl
13.070712,-0.3462,0.046,-0.5881,0.0425,0.2067,0.1756,-40.1438,-7.4438,19.5375,,adl
13.074061,-0.3462,0.046,-0.5881,0.0425,0.2067,0.1756,-39.4688,-7.05,19.1063,,adl
13.090676,-0.2987,0.0614,-0.6597,0.0425,0.2067,0.1756,-39.4688,-7.05,19.1063,,adl
13.093867,-0.2987,0.0614,-0.6597,0.0425,0.2067,0.1756,-39.4688,-7.05,19.1063,,adl
13.109148,-0.1895,-0.0878,-0.6195,0.0425,0.2067,0.1756,-39.4688,-7.05,19.1063,,adl
13.118442,-0.1895,-0.0878,-0.6195,-0.0578,0.1616,0.3125,-39.4688,-7.05,19.1063,,adl
13.129168,0.0532,-0.1153,-0.4515,-0.0578,0.1616,0.3125,-39.4688,-7.05,19.1063,,adl
13.134718,0.0532,-0.1153,-0.4515,-0.0578,0.1616,0.3125,-39.375,-6.225,16.9313,,adl
13.142202,0.0532,-0.1153,-0.4515,-0.0578,0.1616,0.3125,-39.375,-6.225,16.9313,,adl
13.148146,0.3903,-0.0613,-0.3052,-0.0578,0.1616,0.3125,-39.375,-6.225,16.9313,,adl
13.166666,0.622,-0.0669,-0.206,-0.0578,0.1616,0.3125,-39.375,-6.225,16.9313,,adl
13.181944,0.622,-0.0669,-0.206,-0.142,0.0516,0.1121,-39.375,-6.225,16.9313,,adl
13.185713,0.6387,-0.0395,-0.153,-0.142,0.0516,0.1121,-39.375,-6.225,16.9313,,adl
13.18919,0.6387,-0.0395,-0.153,-0.142,0.0516,0.1121,-39.375,-6.225,16.9313,,adl
13.193067,0.6387,-0.0395,-0.153,-0.142,0.0516,0.1121,-40.7063,-5.4,18.5438,,adl
13.204409,0.4593,-0.0117,-0.1236,-0.142,0.0516,0.1121,-40.7063,-5.4,18.5438,,adl
13.224496,0.3855,-0.1005,-0.0301,-0.142,0.0516,0.1121,-40.7063,-5.4,18.5438,,adl
13.238694,0.3855,-0.1005,-0.0301,-0.142,0.0516,0.1121,-40.7063,-5.4,18.5438,,adl
13.242373,0.3855,-0.1005,-0.0301,-0.2336,0.0258,0.0155,-40.7063,-5.4,18.5438,,adl
13.245205,0.4036,-0.2178,0.1778,-0.2336,0.0258,0.0155,-40.7063,-5.4,18.5438,,adl
13.253329,0.4036,-0.2178,0.1778,-0.2336,0.0258,0.0155,-40.4625,-6.0563,18.0,,adl
13.262114,0.4246,-0.2831,0.4193,-0.2336,0.0258,0.0155,-40.4625,-6.0563,18.0,,adl
13.281658,0.4004,-0.1997,0.4132,-0.2336,0.0258,0.0155,-40.4625,-6.0563,18.0,,adl
13.293487,0.4004,-0.1997,0.4132,-0.2336,0.0258,0.0155,-40.4625,-6.0563,18.0,,adl
13.299965,0.4348,-0.1792,0.2962,-0.2336,0.0258,0.0155,-40.4625,-6.0563,18.0,,adl
13.304162,0.4348,-0.1792,0.2962,-0.0565,0.098,0.012,-40.4625,-6.0563,18.0,,adl
13.313438,0.4348,-0.1792,0.2962,-0.0565,0.098,0.012,-40.9875,-5.4563,18.0188,,adl
13.319063,0.4981,-0.1114,0.1831,-0.0565,0.098,0.012,-40.9875,-5.4563,18.0188,,adl
13.333114,0.4981,-0.1114,0.1831,-0.0565,0.098,0.012,-40.9875,-5.4563,18.0188,,adl
13.338087,0.4929,-0.0261,0.1245,-0.0565,0.098,0.012,-40.9875,-5.4563,18.0188,,adl
13.358675,0.434,-0.0167,0.0695,-0.0565,0.098,0.012,-40.9875,-5.4563,18.0188,,adl
13.36686,0.434,-0.0167,0.0695,-0.0272,-0.0315,-0.1053,-40.9875,-5.4563,18.0188,,adl
13.372723,0.434,-0.0167,0.0695,-0.0272,-0.0315,-0.1053,-40.7625,-6.0375,17.8125,,adl
13.375863,0.3227,-0.1688,-0.0615,-0.0272,-0.0315,-0.1053,-40.7625,-6.0375,17.8125,,adl
13.381091,0.3227,-0.1688,-0.0615,-0.0272,-0.0315,-0.1053,-40.7625,-6.0375,17.8125,,adl
13.396066,0.2812,-0.1313,-0.001,-0.0272,-0.0315,-0.1053,-40.7625,-6.0375,17.8125,,adl
13.415075,0.2661,-0.1282,-0.0686,-0.0272,-0.0315,-0.1053,-40.7625,-6.0375,17.8125,,adl
13.428687,0.2661,-0.1282,-0.0686,-0.0272,-0.0315,-0.1053,-40.7625,-6.0375,17.8125,,adl
13.43176,0.2661,-0.1282,-0.0686,0.051,-0.012,-0.1066,-40.7625,-6.0375,17.8125,,adl
13.433872,0.2661,-0.1282,-0.0686,0.051,-0.012,-0.1066,-40.5563,-6.15,17.7938,,adl
13.43497,0.3352,-0.0912,-0.1719,0.051,-0.012,-0.1066,-40.5563,-6.15,17.7938,,adl
13.453478,0.2117,-0.1499,-0.4004,0.051,-0.012,-0.1066,-40.5563,-6.15,17.7938,,adl
13.472512,0.0316,-0.1313,-0.4615,0.051,-0.012,-0.1066,-40.5563,-6.15,17.7938,,adl
13.476423,0.0316,-0.1313,-0.4615,0.051,-0.012,-0.1066,-40.5563,-6.15,17.7938,,adl
13.491067,0.0316,-0.1313,-0.4615,-0.0003,0.054,-0.1481,-40.5563,-6.15,17.7938,,adl
13.494568,-0.0421,-0.1339,-0.4445,-0.0003,0.054,-0.1481,-40.5563,-6.15,17.7938,,adl
13.497329,-0.0421,-0.1339,-0.4445,-0.0003,0.054,-0.1481,-40.4625,-6.375,18.1125,,adl
13.510417,-0.028,-0.2219,-0.463,-0.0003,0.054,-0.1481,-40.4625,-6.375,18.1125,,adl
13.524906,-0.028,-0.2219,-0.463,-0.0003,0.054,-0.1481,-40.4625,-6.375,18.1125,,adl
13.529259,-0.0007,-0.2864,-0.3832,-0.0003,0.054,-0.1481,-40.4625,-6.375,18.1125,,adl
13.549451,-0.0956,-0.268,-0.3885,-0.0003,0.054,-0.1481,-40.4625,-6.375,18.1125,,adl
13.553321,-0.0956,-0.268,-0.3885,0.0192,-0.018,-0.1896,-40.4625,-6.375,18.1125,,adl
13.555644,-0.0956,-0.268,-0.3885,0.0192,-0.018,-0.1896,-40.3313,-6.9563,17.8875,,adl
13.56835,-0.249,-0.2611,-0.4867,0.0192,-0.018,-0.1896,-40.3313,-6.9563,17.8875,,adl
13.57157,-0.249,-0.2611,-0.4867,0.0192,-0.018,-0.1896,-40.3313,-6.9563,17.8875,,adl
13.587289,-0.3709,-0.2767,-0.6478,0.0192,-0.018,-0.1896,-40.3313,-6.9563,17.8875,,adl
13.60592,-0.3241,-0.4038,-0.7295,0.0192,-0.018,-0.1896,-40.3313,-6.9563,17.8875,,adl
13.61506,-0.3241,-0.4038,-0.7295,0.0192,-0.018,-0.1896,-40.4062,-7.4625,18.0938,,adl
13.616515,-0.3241,-0.4038,-0.7295,0.0155,-0.0022,-0.1188,-40.4062,-7.4625,18.0938,,adl
13.619791,-0.3241,-0.4038,-0.7295,0.0155,-0.0022,-0.1188,-40.4062,-7.4625,18.0938,,adl
13.627558,-0.2259,-0.4468,-0.6593,0.0155,-0.0022,-0.1188,-40.4062,-7.4625,18.0938,,adl
13.644384,-0.2734,-0.4153,-0.6504,0.0155,-0.0022,-0.1188,-40.4062,-7.4625,18.0938,,adl
13.663696,-0.4041,-0.4312,-0.7769,0.0155,-0.0022,-0.1188,-40.4062,-7.4625,18.0938,,adl
13.668994,-0.4041,-0.4312,-0.7769,0.0155,-0.0022,-0.1188,-40.4062,-7.4625,18.0938,,adl
13.674612,-0.4041,-0.4312,-0.7769,0.0155,-0.0022,-0.1188,-40.5938,-7.95,18.3,,adl
13.676569,-0.4041,-0.4312,-0.7769,0.029,0.0063,-0.098,-40.5938,-7.95,18.3,,adl
13.682746,-0.5484,-0.4554,-0.7041,0.029,0.0063,-0.098,-40.5938,-7.95,18.3,,adl
13.702473,-0.5256,-0.2875,-0.7698,0.029,0.0063,-0.098,-40.5938,-7.95,18.3,,adl
13.715216,-0.5256,-0.2875,-0.7698,0.029,0.0063,-0.098,-40.5938,-7.95,18.3,,adl
13.720725,-0.613,-0.1989,-0.8832,0.029,0.0063,-0.098,-40.5938,-7.95,18.3,,adl
13.733877,-0.613,-0.1989,-0.8832,0.029,0.0063,-0.098,-40.5938,-7.8375,17.8875,,adl
13.740406,-0.613,-0.1989,-0.8832,0.04,0.2274,0.0254,-40.5938,-7.8375,17.8875,,adl
13.743353,-0.8802,-0.104,-0.9384,0.04,0.2274,0.0254,-40.5938,-7.8375,17.8875,,adl
13.760617,-1.0611,-0.1576,-0.9426,0.04,0.2274,0.0254,-40.5938,-7.8375,17.8875,,adl
13.764104,-1.0611,-0.1576,-0.9426,0.04,0.2274,0.0254,-40.5938,-7.8375,17.8875,,adl
13.778625,-0.8668,-0.2134,-0.6822,0.04,0.2274,0.0254,-40.5938,-7.8375,17.8875,,adl
13.793313,-0.8668,-0.2134,-0.6822,0.04,0.2274,0.0254,-40.8938,-7.6125,17.7,,adl
