time,ax,ay,az,wx,wy,wz,Bx,By,Bz,Unnamed: 10,label
0.023373,0.0,0.0,0.0,0.0,0.0,0.0,0.0,0.0,0.0,,adl
0.024168,-1.1984,-0.1388,-0.1716,0.0,0.0,0.0,0.0,0.0,0.0,,adl
0.04331,-0.0387,-0.1661,-0.3068,0.0,0.0,0.0,0.0,0.0,0.0,,adl
0.05065,-0.0387,-0.1661,-0.3068,0.0,0.0,0.0,34.0688,-15.4875,-23.2875,,adl
0.063044,0.2718,0.0126,-1.0616,0.0,0.0,0.0,34.0688,-15.4875,-23.2875,,adl
0.066974,0.2718,0.0126,-1.0616,0.4042,-0.3783,0.0367,34.0688,-15.4875,-23.2875,,adl
0.071594,0.2718,0.0126,-1.0616,0.4042,-0.3783,0.0367,34.0688,-15.4875,-23.2875,,adl
0.081882,0.4656,-0.1191,-1.5168,0.4042,-0.3783,0.0367,34.0688,-15.4875,-23.2875,,adl
0.100558,-0.4725,-0.4214,0.0289,0.4042,-0.3783,0.0367,34.0688,-15.4875,-23.2875,,adl
0.111948,-0.4725,-0.4214,0.0289,0.4042,-0.3783,0.0367,34.3875,-16.0875,-23.1938,,adl
0.119421,-0.4725,-0.4214,0.0289,0.4042,-0.3783,0.0367,34.3875,-16.0875,-23.1938,,adl
0.121731,-1.0402,-0.4493,0.7847,0.4042,-0.3783,0.0367,34.3875,-16.0875,-23.1938,,adl
0.128338,-1.0402,-0.4493,0.7847,0.1502,0.0872,0.1075,34.3875,-16.0875,-23.1938,,adl
0.140397,-0.6865,-0.5628,0.6357,0.1502,0.0872,0.1075,34.3875,-16.0875,-23.1938,,adl
0.158745,-0.3374,-0.4682,0.1774,0.1502,0.0872,0.1075,34.3875,-16.0875,-23.1938,,adl
0.169018,-0.3374,-0.4682,0.1774,0.1502,0.0872,0.1075,34.3875,-16.0875,-23.1938,,adl
0.171767,-0.3374,-0.4682,0.1774,0.1502,0.0872,0.1075,34.3125,-16.7063,-22.9875,,adl
0.177686,-0.0123,-0.2772,-0.3194,0.1502,0.0872,0.1075,34.3125,-16.7063,-22.9875,,adl
0.190864,-0.0123,-0.2772,-0.3194,0.2454,0.0114,0.1601,34.3125,-16.7063,-22.9875,,adl
0.196668,0.0293,-0.1792,-0.7368,0.2454,0.0114,0.1601,34.3125,-16.7063,-22.9875,,adl
0.215033,0.0293,-0.1792,-0.7368,0.2454,0.0114,0.1601,34.3125,-16.7063,-22.9875,,adl
0.216053,-0.0026,-0.1952,-0.523,0.2454,0.0114,0.1601,34.3125,-16.7063,-22.9875,,adl
0.231218,-0.0026,-0.1952,-0.523,0.2454,0.0114,0.1601,34.6125,-17.1375,-22.4813,,adl
0.23793,-0.0064,-0.2331,-0.107,0.2454,0.0114,0.1601,34.6125,-17.1375,-22.4813,,adl
0.253407,-0.0064,-0.2331,-0.107,0.0402,0.1434,0.0245,34.6125,-17.1375,-22.4813,,adl
0.254904,-0.0735,-0.2107,0.0136,0.0402,0.1434,0.0245,34.6125,-17.1375,-22.4813,,adl
0.26312,-0.0735,-0.2107,0.0136,0.0402,0.1434,0.0245,34.6125,-17.1375,-22.4813,,adl
0.273737,-0.1951,-0.1896,0.1117,0.0402,0.1434,0.0245,34.6125,-17.1375,-22.4813,,adl
0.291231,-0.1951,-0.1896,0.1117,0.0402,0.1434,0.0245,34.125,-17.3438,-22.05,,adl
0.294414,-0.1456,-0.2237,-0.1053,0.0402,0.1434,0.0245,34.125,-17.3438,-22.05,,adl
0.311106,-0.1456,-0.2237,-0.1053,0.0402,0.1434,0.0245,34.125,-17.3438,-22.05,,adl
0.312108,-0.0101,-0.1701,-0.1197,0.0402,0.1434,0.0245,34.125,-17.3438,-22.05,,adl
0.314918,-0.0101,-0.1701,-0.1197,0.0842,0.0737,0.0135,34.125,-17.3438,-22.05,,adl
0.331522,-0.0974,-0.1279,-0.1956,0.0842,0.0737,0.0135,34.125,-17.3438,-22.05,,adl
0.349905,-0.1855,-0.1163,-0.3286,0.0842,0.0737,0.0135,34.125,-17.3438,-22.05,,adl
0.351442,-0.1855,-0.1163,-0.3286,0.0842,0.0737,0.0135,33.8625,-17.85,-21.8438,,adl
0.35837,-0.1855,-0.1163,-0.3286,0.0842,0.0737,0.0135,33.8625,-17.85,-21.8438,,adl
0.369988,-0.2429,-0.2185,-0.188,0.0842,0.0737,0.0135,33.8625,-17.85,-21.8438,,adl
0.378003,-0.2429,-0.2185,-0.188,0.0719,-0.0314,-0.0316,33.8625,-17.85,-21.8438,,adl
0.387641,-0.2639,-0.3082,0.232,0.0719,-0.0314,-0.0316,33.8625,-17.85,-21.8438,,adl
0.406454,-0.2639,-0.3082,0.232,0.0719,-0.0314,-0.0316,33.8625,-17.85,-21.8438,,adl
0.407634,-0.4212,-0.3191,0.5801,0.0719,-0.0314,-0.0316,33.8625,-17.85,-21.8438,,adl
0.413517,-0.4212,-0.3191,0.5801,0.0719,-0.0314,-0.0316,34.4438,-17.6438,-21.9563,,adl
0.426031,-0.1998,-0.3698,0.7434,0.0719,-0.0314,-0.0316,34.4438,-17.6438,-21.9563,,adl
0.43992,-0.1998,-0.3698,0.7434,0.524,-0.5444,-0.0231,34.4438,-17.6438,-21.9563,,adl
0.446795,-0.1381,-0.3637,0.3196,0.524,-0.5444,-0.0231,34.4438,-17.6438,-21.9563,,adl
0.453507,-0.1381,-0.3637,0.3196,0.524,-0.5444,-0.0231,34.4438,-17.6438,-21.9563,,adl
0.46339,-0.0963,-0.3674,-0.1498,0.524,-0.5444,-0.0231,34.4438,-17.6438,-21.9563,,adl
0.470425,-0.0963,-0.3674,-0.1498,0.524,-0.5444,-0.0231,33.975,-18.1313,-21.9563,,adl
0.484346,-0.0314,-0.3332,-0.2543,0.524,-0.5444,-0.0231,33.975,-18.1313,-21.9563,,adl
0.502071,-0.0314,-0.3332,-0.2543,0.524,-0.5444,-0.0231,33.975,-18.1313,-21.9563,,adl
0.504745,-0.0314,-0.3332,-0.2543,0.3957,-0.1706,-0.0329,33.975,-18.1313,-21.9563,,adl
0.507419,-0.0754,-0.1937,-0.7249,0.3957,-0.1706,-0.0329,33.975,-18.1313,-21.9563,,adl
0.522875,-0.3609,-0.2864,-1.2659,0.3957,-0.1706,-0.0329,33.975,-18.1313,-21.9563,,adl
0.532055,-0.3609,-0.2864,-1.2659,0.3957,-0.1706,-0.0329,34.1063,-18.8063,-22.3688,,adl
0.541629,0.7677,0.41,-1.0233,0.3957,-0.1706,-0.0329,34.1063,-18.8063,-22.3688,,adl
0.55154,0.7677,0.41,-1.0233,0.3957,-0.1706,-0.0329,34.1063,-18.8063,-22.3688,,adl
0.559877,-1.1053,-0.2305,-0.7907,0.3957,-0.1706,-0.0329,34.1063,-18.8063,-22.3688,,adl
0.563938,-1.1053,-0.2305,-0.7907,-0.5158,1.0853,0.0892,34.1063,-18.8063,-22.3688,,adl
0.57896,-0.653,-0.0875,0.5164,-0.5158,1.0853,0.0892,34.1063,-18.8063,-22.3688,,adl
0.591846,-0.653,-0.0875,0.5164,-0.5158,1.0853,0.0892,34.8375,-18.375,-20.0063,,adl
0.597782,-0.653,-0.0875,0.5164,-0.5158,1.0853,0.0892,34.8375,-18.375,-20.0063,,adl
0.598973,-0.4754,-0.2849,1.2923,-0.5158,1.0853,0.0892,34.8375,-18.375,-20.0063,,adl
0.617595,-0.2366,-0.2694,1.521,-0.5158,1.0853,0.0892,34.8375,-18.375,-20.0063,,adl
0.626051,-0.2366,-0.2694,1.521,-0.1272,0.7774,0.3543,34.8375,-18.375,-20.0063,,adl
0.636797,0.0173,0.0951,1.5506,-0.1272,0.7774,0.3543,34.8375,-18.375,-20.0063,,adl
0.647818,0.0173,0.0951,1.5506,-0.1272,0.7774,0.3543,34.8375,-18.375,-20.0063,,adl
0.652705,0.0173,0.0951,1.5506,-0.1272,0.7774,0.3543,35.625,-18.9563,-18.7875,,adl
0.658722,0.1229,-0.0104,1.0375,-0.1272,0.7774,0.3543,35.625,-18.9563,-18.7875,,adl
0.674448,0.0961,-0.1528,0.3338,-0.1272,0.7774,0.3543,35.625,-18.9563,-18.7875,,adl
0.688346,0.0961,-0.1528,0.3338,0.4995,-0.1132,0.0832,35.625,-18.9563,-18.7875,,adl
0.693203,0.0961,-0.1528,0.3338,0.4995,-0.1132,0.0832,35.625,-18.9563,-18.7875,,adl
0.696037,-0.2518,0.0402,-0.2492,0.4995,-0.1132,0.0832,35.625,-18.9563,-18.7875,,adl
0.711833,-0.2518,0.0402,-0.2492,0.4995,-0.1132,0.0832,35.175,-19.7625,-18.2625,,adl
0.71327,-0.3663,0.053,-0.7448,0.4995,-0.1132,0.0832,35.175,-19.7625,-18.2625,,adl
0.732479,-0.2423,-0.0427,-0.8149,0.4995,-0.1132,0.0832,35.175,-19.7625,-18.2625,,adl
0.74133,-0.2423,-0.0427,-0.8149,0.4995,-0.1132,0.0832,35.175,-19.7625,-18.2625,,adl
0.749782,-0.2423,-0.0427,-0.8149,0.1342,-0.1632,0.0905,35.175,-19.7625,-18.2625,,adl
0.751296,-0.0711,-0.123,-0.5846,0.1342,-0.1632,0.0905,35.175,-19.7625,-18.2625,,adl
0.770785,0.024,-0.1427,-0.3586,0.1342,-0.1632,0.0905,35.175,-19.7625,-18.2625,,adl
0.77215,0.024,-0.1427,-0.3586,0.1342,-0.1632,0.0905,35.0813,-20.1375,-18.675,,adl
0.788533,0.024,-0.1427,-0.3586,0.1342,-0.1632,0.0905,35.0813,-20.1375,-18.675,,adl
0.789559,0.0466,-0.1446,-0.2419,0.1342,-0.1632,0.0905,35.0813,-20.1375,-18.675,,adl
0.809195,0.0251,-0.2177,-0.1855,0.1342,-0.1632,0.0905,35.0813,-20.1375,-18.675,,adl
0.815721,0.0251,-0.2177,-0.1855,0.0524,-0.1937,-0.0549,35.0813,-20.1375,-18.675,,adl
0.827924,-0.0709,-0.2711,-0.1224,0.0524,-0.1937,-0.0549,35.0813,-20.1375,-18.675,,adl
0.833278,-0.0709,-0.2711,-0.1224,0.0524,-0.1937,-0.0549,34.8,-20.325,-18.675,,adl
0.838747,-0.0709,-0.2711,-0.1224,0.0524,-0.1937,-0.0549,34.8,-20.325,-18.675,,adl
0.846494,-0.2025,-0.3117,-0.1658,0.0524,-0.1937,-0.0549,34.8,-20.325,-18.675,,adl
0.866108,-0.2811,-0.3244,-0.1544,0.0524,-0.1937,-0.0549,34.8,-20.325,-18.675,,adl
0.875282,-0.2811,-0.3244,-0.1544,-0.0576,-0.1486,-0.0549,34.8,-20.325,-18.675,,adl
0.884,-0.2811,-0.3244,-0.1544,-0.0576,-0.1486,-0.0549,34.8,-20.325,-18.675,,adl
0.884949,-0.2424,-0.3987,0.0307,-0.0576,-0.1486,-0.0549,34.8,-20.325,-18.675,,adl
0.891897,-0.2424,-0.3987,0.0307,-0.0576,-0.1486,-0.0549,34.5188,-20.475,-19.5938,,adl
0.904644,-0.2119,-0.3984,0.2377,-0.0576,-0.1486,-0.0549,34.5188,-20.475,-19.5938,,adl
0.924222,-0.1485,-0.4183,0.3356,-0.0576,-0.1486,-0.0549,34.5188,-20.475,-19.5938,,adl
0.932616,-0.1485,-0.4183,0.3356,-0.0576,-0.1486,-0.0549,34.5188,-20.475,-19.5938,,adl
0.938673,-0.1485,-0.4183,0.3356,0.0243,-0.0984,-0.0378,34.5188,-20.475,-19.5938,,adl
0.946499,-0.0764,-0.4177,0.2705,0.0243,-0.0984,-0.0378,34.5188,-20.475,-19.5938,,adl
0.950905,-0.0764,-0.4177,0.2705,0.0243,-0.0984,-0.0378,34.3125,-19.95,-19.8938,,adl
0.961478,-0.1232,-0.3504,0.0384,0.0243,-0.0984,-0.0378,34.3125,-19.95,-19.8938,,adl
0.979871,-0.1232,-0.3504,0.0384,0.0243,-0.0984,-0.0378,34.3125,-19.95,-19.8938,,adl
0.982386,-0.0617,-0.2994,-0.2276,0.0243,-0.0984,-0.0378,34.3125,-19.95,-19.8938,,adl
0.999276,-0.0617,-0.2994,-0.2276,0.0096,-0.1376,-0.0561,34.3125,-19.95,-19.8938,,adl
1.002283,-0.1099,-0.2739,-0.366,0.0096,-0.1376,-0.0561,34.3125,-19.95,-19.8938,,adl
1.012919,-0.1099,-0.2739,-0.366,0.0096,-0.1376,-0.0561,34.9125,-20.2688,-19.9125,,adl
1.018474,-0.0472,-0.2773,-0.3122,0.0096,-0.1376,-0.0561,34.9125,-20.2688,-19.9125,,adl
1.028565,-0.0472,-0.2773,-0.3122,0.0096,-0.1376,-0.0561,34.9125,-20.2688,-19.9125,,adl
1.0387,-0.0667,-0.276,-0.1413,0.0096,-0.1376,-0.0561,34.9125,-20.2688,-19.9125,,adl
1.056962,0.0092,-0.2507,-0.0819,0.0096,-0.1376,-0.0561,34.9125,-20.2688,-19.9125,,adl
1.060702,0.0092,-0.2507,-0.0819,-0.0063,-0.0349,-0.0854,34.9125,-20.2688,-19.9125,,adl
1.073446,0.0092,-0.2507,-0.0819,-0.0063,-0.0349,-0.0854,34.2,-19.65,-19.8938,,adl
1.076975,0.0092,-0.2507,-0.0819,-0.0063,-0.0349,-0.0854,34.2,-19.65,-19.8938,,adl
1.079044,0.0835,-0.2151,-0.2238,-0.0063,-0.0349,-0.0854,34.2,-19.65,-19.8938,,adl
1.095804,0.2111,-0.267,-0.5071,-0.0063,-0.0349,-0.0854,34.2,-19.65,-19.8938,,adl
1.115129,0.2839,-0.2881,-0.7182,-0.0063,-0.0349,-0.0854,34.2,-19.65,-19.8938,,adl
1.124007,0.2839,-0.2881,-0.7182,-0.0063,-0.0349,-0.0854,34.2,-19.65,-19.8938,,adl
1.12531,0.2839,-0.2881,-0.7182,-0.181,-0.1767,-0.2529,34.2,-19.65,-19.8938,,adl
1.130206,0.2839,-0.2881,-0.7182,-0.181,-0.1767,-0.2529,33.9,-19.4062,-20.4,,adl
1.133965,0.2889,-0.317,-0.4346,-0.181,-0.1767,-0.2529,33.9,-19.4062,-20.4,,adl
1.153922,0.4215,-0.4292,0.0523,-0.181,-0.1767,-0.2529,33.9,-19.4062,-20.4,,adl
1.171672,0.4215,-0.4292,0.0523,-0.181,-0.1767,-0.2529,33.9,-19.4062,-20.4,,adl
1.174938,0.3471,-0.5341,0.3661,-0.181,-0.1767,-0.2529,33.9,-19.4062,-20.4,,adl
1.185338,0.3471,-0.5341,0.3661,-0.2897,-0.0826,-0.4287,33.9,-19.4062,-20.4,,adl
1.191378,0.3479,-0.5965,0.3847,-0.2897,-0.0826,-0.4287,33.9,-19.4062,-20.4,,adl
1.192653,0.3479,-0.5965,0.3847,-0.2897,-0.0826,-0.4287,34.6313,-17.8875,-21.5625,,adl
1.210379,0.2713,-0.7116,0.2861,-0.2897,-0.0826,-0.4287,34.6313,-17.8875,-21.5625,,adl
1.219726,0.2713,-0.7116,0.2861,-0.2897,-0.0826,-0.4287,34.6313,-17.8875,-21.5625,,adl
1.229118,0.2016,-0.8191,0.0511,-0.2897,-0.0826,-0.4287,34.6313,-17.8875,-21.5625,,adl
1.247463,0.2016,-0.8191,0.0511,-0.0808,-0.1914,-0.4862,34.6313,-17.8875,-21.5625,,adl
1.248777,0.4391,-0.9169,-0.1668,-0.0808,-0.1914,-0.4862,34.6313,-17.8875,-21.5625,,adl
1.250856,0.4391,-0.9169,-0.1668,-0.0808,-0.1914,-0.4862,35.175,-17.0063,-21.675,,adl
1.267251,0.4391,-0.9169,-0.1668,-0.0808,-0.1914,-0.4862,35.175,-17.0063,-21.675,,adl
1.269502,0.498,-0.8811,-0.5223,-0.0808,-0.1914,-0.4862,35.175,-17.0063,-21.675,,adl
1.28737,0.2561,-0.8466,-0.6383,-0.0808,-0.1914,-0.4862,35.175,-17.0063,-21.675,,adl
1.305303,-0.1952,-1.1432,-0.6446,-0.0808,-0.1914,-0.4862,35.175,-17.0063,-21.675,,adl
1.309252,-0.1952,-1.1432,-0.6446,-0.3252,-0.0534,-0.6878,35.175,-17.0063,-21.675,,adl
1.310167,-0.1952,-1.1432,-0.6446,-0.3252,-0.0534,-0.6878,35.7,-15.0938,-22.3875,,adl
1.313972,-0.1952,-1.1432,-0.6446,-0.3252,-0.0534,-0.6878,35.7,-15.0938,-22.3875,,adl
1.324895,-0.7234,-1.2916,-0.1824,-0.3252,-0.0534,-0.6878,35.7,-15.0938,-22.3875,,adl
1.346527,-1.0205,-1.3211,0.524,-0.3252,-0.0534,-0.6878,35.7,-15.0938,-22.3875,,adl
1.362045,-1.0205,-1.3211,0.524,-0.3252,-0.0534,-0.6878,35.7,-15.0938,-22.3875,,adl
1.363182,-0.7034,-1.3551,0.8537,-0.3252,-0.0534,-0.6878,35.7,-15.0938,-22.3875,,adl
1.370616,-0.7034,-1.3551,0.8537,-0.3252,-0.0534,-0.6878,35.8313,-13.6313,-22.0688,,adl
1.371819,-0.7034,-1.3551,0.8537,-0.1651,-0.1144,-0.4312,35.8313,-13.6313,-22.0688,,adl
1.383728,-0.1457,-1.2921,0.5763,-0.1651,-0.1144,-0.4312,35.8313,-13.6313,-22.0688,,adl
1.403295,0.2437,-1.2572,0.0004,-0.1651,-0.1144,-0.4312,35.8313,-13.6313,-22.0688,,adl
1.410526,0.2437,-1.2572,0.0004,-0.1651,-0.1144,-0.4312,35.8313,-13.6313,-22.0688,,adl
1.420845,0.2852,-1.1903,-0.3016,-0.1651,-0.1144,-0.4312,35.8313,-13.6313,-22.0688,,adl
1.430848,0.2852,-1.1903,-0.3016,-0.1651,-0.1144,-0.4312,35.6625,-12.0938,-22.7812,,adl
1.434895,0.2852,-1.1903,-0.3016,-0.2775,-0.4907,-0.6695,35.6625,-12.0938,-22.7812,,adl
1.440385,0.1513,-1.1549,-0.2782,-0.2775,-0.4907,-0.6695,35.6625,-12.0938,-22.7812,,adl
1.457684,0.1513,-1.1549,-0.2782,-0.2775,-0.4907,-0.6695,35.6625,-12.0938,-22.7812,,adl
1.458984,-0.0442,-1.0768,-0.112,-0.2775,-0.4907,-0.6695,35.6625,-12.0938,-22.7812,,adl
1.479901,-0.3991,-0.9166,-0.1435,-0.2775,-0.4907,-0.6695,35.6625,-12.0938,-22.7812,,adl
1.49095,-0.3991,-0.9166,-0.1435,-0.2775,-0.4907,-0.6695,35.9813,-9.8813,-23.5125,,adl
1.497113,-0.3991,-0.9166,-0.1435,-0.5598,0.5111,-0.7403,35.9813,-9.8813,-23.5125,,adl
1.498326,-0.6349,-0.7886,-0.2832,-0.5598,0.5111,-0.7403,35.9813,-9.8813,-23.5125,,adl
1.506073,-0.6349,-0.7886,-0.2832,-0.5598,0.5111,-0.7403,35.9813,-9.8813,-23.5125,,adl
1.516242,-0.7895,-0.407,-0.3982,-0.5598,0.5111,-0.7403,35.9813,-9.8813,-23.5125,,adl
1.535425,-0.773,-0.0707,-0.5917,-0.5598,0.5111,-0.7403,35.9813,-9.8813,-23.5125,,adl
1.550916,-0.773,-0.0707,-0.5917,-0.5598,0.5111,-0.7403,37.425,-7.425,-22.3875,,adl
1.553889,-0.773,-0.0707,-0.5917,-0.5598,0.5111,-0.7403,37.425,-7.425,-22.3875,,adl
1.55463,-0.6217,0.1046,-0.7966,-0.5598,0.5111,-0.7403,37.425,-7.425,-22.3875,,adl
1.558037,-0.6217,0.1046,-0.7966,-0.4888,0.4036,-0.6157,37.425,-7.425,-22.3875,,adl
1.573699,-0.4661,0.2914,-0.9407,-0.4888,0.4036,-0.6157,37.425,-7.425,-22.3875,,adl
1.592454,-0.378,0.3139,-0.8233,-0.4888,0.4036,-0.6157,37.425,-7.425,-22.3875,,adl
1.603618,-0.378,0.3139,-0.8233,-0.4888,0.4036,-0.6157,37.425,-7.425,-22.3875,,adl
1.610704,-0.378,0.3139,-0.8233,-0.4888,0.4036,-0.6157,38.2125,-5.5688,-22.2938,,adl
1.611974,-0.3516,0.2601,-0.5077,-0.4888,0.4036,-0.6157,38.2125,-5.5688,-22.2938,,adl
1.62075,-0.3516,0.2601,-0.5077,-0.6293,-0.1547,-0.7245,38.2125,-5.5688,-22.2938,,adl
1.631105,-0.4148,0.1485,-0.1385,-0.6293,-0.1547,-0.7245,38.2125,-5.5688,-22.2938,,adl
1.649643,-0.4148,0.1485,-0.1385,-0.6293,-0.1547,-0.7245,38.2125,-5.5688,-22.2938,,adl
1.652249,-0.6102,0.0811,0.21,-0.6293,-0.1547,-0.7245,38.2125,-5.5688,-22.2938,,adl
1.669868,-0.7779,-0.0413,0.7105,-0.6293,-0.1547,-0.7245,38.2125,-5.5688,-22.2938,,adl
1.671572,-0.7779,-0.0413,0.7105,-0.6293,-0.1547,-0.7245,38.3813,-2.475,-22.7063,,adl
1.682473,-0.7779,-0.0413,0.7105,-0.7221,0.0322,-0.7733,38.3813,-2.475,-22.7063,,adl
1.688766,-0.9991,-0.1114,1.1296,-0.7221,0.0322,-0.7733,38.3813,-2.475,-22.7063,,adl
1.697159,-0.9991,-0.1114,1.1296,-0.7221,0.0322,-0.7733,38.3813,-2.475,-22.7063,,adl
1.708543,-1.1556,-0.1886,1.3595,-0.7221,0.0322,-0.7733,38.3813,-2.475,-22.7063,,adl
1.726922,-1.3405,-0.1188,1.3234,-0.7221,0.0322,-0.7733,38.3813,-2.475,-22.7063,,adl
1.731759,-1.3405,-0.1188,1.3234,-0.7221,0.0322,-0.7733,38.5875,-0.1875,-23.1,,adl
1.746876,-1.3405,-0.1188,1.3234,-0.7221,0.0322,-0.7733,38.5875,-0.1875,-23.1,,adl
1.749178,-1.3405,-0.1188,1.3234,-0.4351,0.1275,-0.5937,38.5875,-0.1875,-23.1,,adl
1.75191,-1.5152,0.0005,1.1093,-0.4351,0.1275,-0.5937,38.5875,-0.1875,-23.1,,adl
1.765091,-1.5658,0.0478,0.8515,-0.4351,0.1275,-0.5937,38.5875,-0.1875,-23.1,,adl
1.7841,-1.4474,0.1217,0.4691,-0.4351,0.1275,-0.5937,38.5875,-0.1875,-23.1,,adl
1.793054,-1.4474,0.1217,0.4691,-0.4351,0.1275,-0.5937,38.5875,1.6688,-22.575,,adl
1.796004,-1.4474,0.1217,0.4691,-0.4351,0.1275,-0.5937,38.5875,1.6688,-22.575,,adl
1.802525,-1.0454,0.1766,0.2496,-0.4351,0.1275,-0.5937,38.5875,1.6688,-22.575,,adl
1.806937,-1.0454,0.1766,0.2496,-0.3325,-0.0106,-0.3237,38.5875,1.6688,-22.575,,adl
1.82271,-0.5776,0.1315,0.1545,-0.3325,-0.0106,-0.3237,38.5875,1.6688,-22.575,,adl
1.840976,-0.5776,0.1315,0.1545,-0.3325,-0.0106,-0.3237,38.5875,1.6688,-22.575,,adl
1.843681,-0.3619,0.0788,0.1937,-0.3325,-0.0106,-0.3237,38.5875,1.6688,-22.575,,adl
1.851541,-0.3619,0.0788,0.1937,-0.3325,-0.0106,-0.3237,38.925,3.1313,-22.3688,,adl
1.861318,-0.1919,-0.047,0.3976,-0.3325,-0.0106,-0.3237,38.925,3.1313,-22.3688,,adl
1.868917,-0.1919,-0.047,0.3976,-0.4082,-0.0949,-0.4019,38.925,3.1313,-22.3688,,adl
1.88055,-0.1132,-0.1056,0.4983,-0.4082,-0.0949,-0.4019,38.925,3.1313,-22.3688,,adl
1.888621,-0.1132,-0.1056,0.4983,-0.4082,-0.0949,-0.4019,38.925,3.1313,-22.3688,,adl
1.898816,-0.1233,-0.0502,0.4176,-0.4082,-0.0949,-0.4019,38.925,3.1313,-22.3688,,adl
1.910779,-0.1233,-0.0502,0.4176,-0.4082,-0.0949,-0.4019,38.6625,4.5375,-22.65,,adl
1.918267,-0.136,-0.0323,0.213,-0.4082,-0.0949,-0.4019,38.6625,4.5375,-22.65,,adl
1.93154,-0.136,-0.0323,0.213,-0.4107,0.1312,-0.4581,38.6625,4.5375,-22.65,,adl
1.936532,-0.136,-0.0323,0.213,-0.4107,0.1312,-0.4581,38.6625,4.5375,-22.65,,adl
1.939806,0.0896,-0.0632,0.0583,-0.4107,0.1312,-0.4581,38.6625,4.5375,-22.65,,adl
1.956269,0.3142,-0.0263,0.2357,-0.4107,0.1312,-0.4581,38.6625,4.5375,-22.65,,adl
1.971012,0.3142,-0.0263,0.2357,-0.4107,0.1312,-0.4581,38.8688,6.5813,-22.125,,adl
1.974848,0.3417,0.0428,0.7389,-0.4107,0.1312,-0.4581,38.8688,6.5813,-22.125,,adl
1.983768,0.3417,0.0428,0.7389,-0.4107,0.1312,-0.4581,38.8688,6.5813,-22.125,,adl
1.993194,0.3417,0.0428,0.7389,-0.3422,0.2447,-0.5668,38.8688,6.5813,-22.125,,adl
1.994368,0.2243,0.0352,0.9958,-0.3422,0.2447,-0.5668,38.8688,6.5813,-22.125,,adl
2.013951,0.1588,0.0469,0.9559,-0.3422,0.2447,-0.5668,38.8688,6.5813,-22.125,,adl
2.031275,0.1588,0.0469,0.9559,-0.3422,0.2447,-0.5668,38.3063,8.2313,-21.0563,,adl
2.034772,0.1588,0.0469,0.9559,-0.3422,0.2447,-0.5668,38.3063,8.2313,-21.0563,,adl
2.036026,0.0575,0.2716,0.6031,-0.3422,0.2447,-0.5668,38.3063,8.2313,-21.0563,,adl
2.052048,0.2475,0.46,0.3766,-0.3422,0.2447,-0.5668,38.3063,8.2313,-21.0563,,adl
2.056065,0.2475,0.46,0.3766,-0.0294,0.0212,-0.4654,38.3063,8.2313,-21.0563,,adl
2.071176,0.5323,0.5624,0.0622,-0.0294,0.0212,-0.4654,38.3063,8.2313,-21.0563,,adl
2.081626,0.5323,0.5624,0.0622,-0.0294,0.0212,-0.4654,38.3063,8.2313,-21.0563,,adl
2.092546,0.6231,0.5966,-0.6308,-0.0294,0.0212,-0.4654,38.3063,8.2313,-21.0563,,adl
2.095794,0.6231,0.5966,-0.6308,-0.0294,0.0212,-0.4654,38.625,9.4875,-20.7563,,adl
2.109494,0.2016,0.7862,-0.956,-0.0294,0.0212,-0.4654,38.625,9.4875,-20.7563,,adl
2.11815,0.2016,0.7862,-0.956,-0.2738,0.2717,-0.6047,38.625,9.4875,-20.7563,,adl
2.128048,0.2016,0.7862,-0.956,-0.2738,0.2717,-0.6047,38.625,9.4875,-20.7563,,adl
2.130708,0.1738,0.6717,-0.7949,-0.2738,0.2717,-0.6047,38.625,9.4875,-20.7563,,adl
2.14776,1.1601,0.2955,0.198,-0.2738,0.2717,-0.6047,38.625,9.4875,-20.7563,,adl
2.151129,1.1601,0.2955,0.198,-0.2738,0.2717,-0.6047,38.4563,11.475,-20.7375,,adl
2.166933,-1.0404,0.8637,0.7474,-0.2738,0.2717,-0.6047,38.4563,11.475,-20.7375,,adl
2.175335,-1.0404,0.8637,0.7474,-0.2738,0.2717,-0.6047,38.4563,11.475,-20.7375,,adl
2.180391,-1.0404,0.8637,0.7474,-0.2054,0.1104,-0.678,38.4563,11.475,-20.7375,,adl
2.185457,0.388,0.5626,0.2449,-0.2054,0.1104,-0.678,38.4563,11.475,-20.7375,,adl
2.204839,0.0681,0.5523,-0.0867,-0.2054,0.1104,-0.678,38.4563,11.475,-20.7375,,adl
2.210861,0.0681,0.5523,-0.0867,-0.2054,0.1104,-0.678,38.25,13.6125,-19.875,,adl
2.224329,0.0681,0.5523,-0.0867,-0.2054,0.1104,-0.678,38.25,13.6125,-19.875,,adl
2.2269,-0.028,0.5105,0.288,-0.2054,0.1104,-0.678,38.25,13.6125,-19.875,,adl
2.242651,-0.028,0.5105,0.288,-0.4388,0.4671,-0.7598,38.25,13.6125,-19.875,,adl
2.244019,-0.0595,0.334,0.5665,-0.4388,0.4671,-0.7598,38.25,13.6125,-19.875,,adl
2.262529,-0.0696,0.2394,0.6907,-0.4388,0.4671,-0.7598,38.25,13.6125,-19.875,,adl
2.271991,-0.0696,0.2394,0.6907,-0.4388,0.4671,-0.7598,38.25,13.6125,-19.875,,adl
2.274234,-0.0696,0.2394,0.6907,-0.4388,0.4671,-0.7598,38.2688,15.4125,-18.4125,,adl
2.280933,-0.2361,0.2073,1.2177,-0.4388,0.4671,-0.7598,38.2688,15.4125,-18.4125,,adl
2.300561,-0.3396,0.2162,1.3292,-0.4388,0.4671,-0.7598,38.2688,15.4125,-18.4125,,adl
2.303781,-0.3396,0.2162,1.3292,-0.3715,0.9082,-0.766,38.2688,15.4125,-18.4125,,adl
2.319128,-0.3396,0.2162,1.3292,-0.3715,0.9082,-0.766,38.2688,15.4125,-18.4125,,adl
2.320085,-0.4141,0.1712,0.9311,-0.3715,0.9082,-0.766,38.2688,15.4125,-18.4125,,adl
2.330749,-0.4141,0.1712,0.9311,-0.3715,0.9082,-0.766,37.95,17.6438,-15.9938,,adl
2.338657,-0.543,0.2923,0.3523,-0.3715,0.9082,-0.766,37.95,17.6438,-15.9938,,adl
2.357863,-0.7884,0.3975,-0.1705,-0.3715,0.9082,-0.766,37.95,17.6438,-15.9938,,adl
2.366802,-0.7884,0.3975,-0.1705,-0.3715,0.9082,-0.766,37.95,17.6438,-15.9938,,adl
2.369185,-0.7884,0.3975,-0.1705,-0.3435,0.7224,-0.7378,37.95,17.6438,-15.9938,,adl
2.37737,-0.9142,0.5071,-0.594,-0.3435,0.7224,-0.7378,37.95,17.6438,-15.9938,,adl
2.391922,-0.9142,0.5071,-0.594,-0.3435,0.7224,-0.7378,38.4188,19.7063,-14.1188,,adl
2.396546,-0.8119,0.4627,-0.4651,-0.3435,0.7224,-0.7378,38.4188,19.7063,-14.1188,,adl
2.414157,-0.8119,0.4627,-0.4651,-0.3435,0.7224,-0.7378,38.4188,19.7063,-14.1188,,adl
2.416696,-0.7777,0.3927,-0.1201,-0.3435,0.7224,-0.7378,38.4188,19.7063,-14.1188,,adl
2.428403,-0.7777,0.3927,-0.1201,-0.589,0.5185,-0.4202,38.4188,19.7063,-14.1188,,adl
2.435627,-1.4469,0.5121,-0.3813,-0.589,0.5185,-0.4202,38.4188,19.7063,-14.1188,,adl
2.450831,-1.4469,0.5121,-0.3813,-0.589,0.5185,-0.4202,38.1562,20.8875,-12.1313,,adl
2.453056,-1.2372,-0.0671,-0.4346,-0.589,0.5185,-0.4202,38.1562,20.8875,-12.1313,,adl
2.462426,-1.2372,-0.0671,-0.4346,-0.589,0.5185,-0.4202,38.1562,20.8875,-12.1313,,adl
2.4727,-0.46,-0.211,0.3398,-0.589,0.5185,-0.4202,38.1562,20.8875,-12.1313,,adl
2.491488,-0.46,-0.211,0.3398,-0.418,1.2185,-0.0538,38.1562,20.8875,-12.1313,,adl
2.494957,-0.5834,0.4749,0.7696,-0.418,1.2185,-0.0538,38.1562,20.8875,-12.1313,,adl
2.510268,-0.5834,0.4749,0.7696,-0.418,1.2185,-0.0538,38.1562,20.8875,-12.1313,,adl
2.511505,-0.3583,0.8545,0.8693,-0.418,1.2185,-0.0538,38.1562,20.8875,-12.1313,,adl
2.512609,-0.3583,0.8545,0.8693,-0.418,1.2185,-0.0538,38.7938,20.9625,-8.625,,adl
2.530509,-0.5963,1.2523,0.3715,-0.418,1.2185,-0.0538,38.7938,20.9625,-8.625,,adl
2.549952,-0.2797,1.4626,-0.3773,-0.418,1.2185,-0.0538,38.7938,20.9625,-8.625,,adl
2.552339,-0.2797,1.4626,-0.3773,0.2185,0.1141,-0.3299,38.7938,20.9625,-8.625,,adl
2.556773,-0.2797,1.4626,-0.3773,0.2185,0.1141,-0.3299,38.7938,20.9625,-8.625,,adl
2.568804,-0.3729,1.6312,-0.7914,0.2185,0.1141,-0.3299,38.7938,20.9625,-8.625,,adl
2.570059,-0.3729,1.6312,-0.7914,0.2185,0.1141,-0.3299,38.5688,21.4125,-7.575,,adl
2.587468,-0.5207,1.6932,-0.8492,0.2185,0.1141,-0.3299,38.5688,21.4125,-7.575,,adl
2.605705,-0.5207,1.6932,-0.8492,0.2185,0.1141,-0.3299,38.5688,21.4125,-7.575,,adl
2.608601,-0.6093,1.6249,-0.4231,0.2185,0.1141,-0.3299,38.5688,21.4125,-7.575,,adl
2.614845,-0.6093,1.6249,-0.4231,-0.1259,-0.1816,-0.3982,38.5688,21.4125,-7.575,,adl
2.625077,-0.6552,1.4181,0.152,-0.1259,-0.1816,-0.3982,38.5688,21.4125,-7.575,,adl
2.631133,-0.6552,1.4181,0.152,-0.1259,-0.1816,-0.3982,38.3625,22.2938,-9.0188,,adl
2.644809,-0.6081,1.0561,0.2359,-0.1259,-0.1816,-0.3982,38.3625,22.2938,-9.0188,,adl
2.653769,-0.6081,1.0561,0.2359,-0.1259,-0.1816,-0.3982,38.3625,22.2938,-9.0188,,adl
2.663647,-0.1178,0.1981,0.4727,-0.1259,-0.1816,-0.3982,38.3625,22.2938,-9.0188,,adl
2.677179,-0.1178,0.1981,0.4727,-0.2848,-0.327,-0.3396,38.3625,22.2938,-9.0188,,adl
2.683764,-0.0444,-0.7112,0.2639,-0.2848,-0.327,-0.3396,38.3625,22.2938,-9.0188,,adl
2.690332,-0.0444,-0.7112,0.2639,-0.2848,-0.327,-0.3396,37.4625,22.9313,-9.1875,,adl
2.701397,-0.0444,-0.7112,0.2639,-0.2848,-0.327,-0.3396,37.4625,22.9313,-9.1875,,adl
2.702324,-0.3237,-0.8015,0.0087,-0.2848,-0.327,-0.3396,37.4625,22.9313,-9.1875,,adl
2.721301,-0.2114,-0.5837,-0.3792,-0.2848,-0.327,-0.3396,37.4625,22.9313,-9.1875,,adl
2.740288,-0.2114,-0.5837,-0.3792,-0.4119,0.2314,-0.1258,37.4625,22.9313,-9.1875,,adl
2.744393,0.0881,-0.665,-0.8242,-0.4119,0.2314,-0.1258,37.4625,22.9313,-9.1875,,adl
2.749629,0.0881,-0.665,-0.8242,-0.4119,0.2314,-0.1258,37.4625,22.9313,-9.1875,,adl
2.751252,0.0881,-0.665,-0.8242,-0.4119,0.2314,-0.1258,37.3313,23.7,-8.8688,,adl
2.759292,0.2826,-0.7816,-1.3399,-0.4119,0.2314,-0.1258,37.3313,23.7,-8.8688,,adl
2.778455,0.1283,-0.627,-0.648,-0.4119,0.2314,-0.1258,37.3313,23.7,-8.8688,,adl
2.796573,0.1283,-0.627,-0.648,-0.4119,0.2314,-0.1258,37.3313,23.7,-8.8688,,adl
2.79758,-0.1753,-0.8454,0.9886,-0.4119,0.2314,-0.1258,37.3313,23.7,-8.8688,,adl
2.805353,-0.1753,-0.8454,0.9886,-1.0069,-0.492,-0.2333,37.3313,23.7,-8.8688,,adl
2.810944,-0.1753,-0.8454,0.9886,-1.0069,-0.492,-0.2333,37.0875,24.45,-8.025,,adl
2.816457,-0.6245,-1.1996,2.4385,-1.0069,-0.492,-0.2333,37.0875,24.45,-8.025,,adl
2.836113,-0.9808,-1.3406,3.5063,-1.0069,-0.492,-0.2333,37.0875,24.45,-8.025,,adl
2.844724,-0.9808,-1.3406,3.5063,-1.0069,-0.492,-0.2333,37.0875,24.45,-8.025,,adl
2.855763,-0.7022,-1.4314,3.7705,-1.0069,-0.492,-0.2333,37.0875,24.45,-8.025,,adl
2.863706,-0.7022,-1.4314,3.7705,-0.1517,-0.5481,0.3043,37.0875,24.45,-8.025,,adl
2.87033,-0.7022,-1.4314,3.7705,-0.1517,-0.5481,0.3043,37.2,24.2063,-8.9625,,adl
2.873967,-0.1679,-1.0408,2.9359,-0.1517,-0.5481,0.3043,37.2,24.2063,-8.9625,,adl
2.893211,-0.1679,-1.0408,2.9359,-0.1517,-0.5481,0.3043,37.2,24.2063,-8.9625,,adl
2.895493,0.3116,-0.5367,1.413,-0.1517,-0.5481,0.3043,37.2,24.2063,-8.9625,,adl
2.913964,0.4863,-0.3273,0.2155,-0.1517,-0.5481,0.3043,37.2,24.2063,-8.9625,,adl
2.925569,0.4863,-0.3273,0.2155,0.2002,0.2558,0.1295,37.2,24.2063,-8.9625,,adl
2.931764,0.4691,-0.3932,0.016,0.2002,0.2558,0.1295,37.2,24.2063,-8.9625,,adl
2.933034,0.4691,-0.3932,0.016,0.2002,0.2558,0.1295,37.4062,24.075,-8.6625,,adl
2.940761,0.4691,-0.3932,0.016,0.2002,0.2558,0.1295,37.4062,24.075,-8.6625,,adl
2.951762,0.3262,-0.617,0.56,0.2002,0.2558,0.1295,37.4062,24.075,-8.6625,,adl
2.970065,0.3236,-0.8317,1.2785,0.2002,0.2558,0.1295,37.4062,24.075,-8.6625,,adl
2.988611,0.3236,-0.8317,1.2785,0.2002,0.2558,0.1295,37.4062,24.075,-8.6625,,adl
2.991194,0.3236,-0.8317,1.2785,0.3737,-0.0203,-0.1478,37.4062,24.075,-8.6625,,adl
2.993626,0.511,-1.0367,1.3791,0.3737,-0.0203,-0.1478,37.4062,24.075,-8.6625,,adl
2.995832,0.511,-1.0367,1.3791,0.3737,-0.0203,-0.1478,37.2375,23.625,-9.075,,adl
3.007925,0.6014,-1.2048,1.3032,0.3737,-0.0203,-0.1478,37.2375,23.625,-9.075,,adl
3.027485,0.1371,-0.9892,0.6172,0.3737,-0.0203,-0.1478,37.2375,23.625,-9.075,,adl
3.036524,0.1371,-0.9892,0.6172,0.3737,-0.0203,-0.1478,37.2375,23.625,-9.075,,adl
3.048213,0.2956,-0.2376,0.0469,0.3737,-0.0203,-0.1478,37.2375,23.625,-9.075,,adl
3.049801,0.2956,-0.2376,0.0469,0.5556,0.6883,-0.5192,37.2375,23.625,-9.075,,adl
3.051405,0.2956,-0.2376,0.0469,0.5556,0.6883,-0.5192,37.0312,23.8125,-9.075,,adl
3.065905,0.1662,-1.1904,-0.0846,0.5556,0.6883,-0.5192,37.0312,23.8125,-9.075,,adl
3.083269,0.1662,-1.1904,-0.0846,0.5556,0.6883,-0.5192,37.0312,23.8125,-9.075,,adl
3.084345,-1.7092,-0.3459,-0.6351,0.5556,0.6883,-0.5192,37.0312,23.8125,-9.075,,adl
3.104028,-2.121,-0.4669,-0.3768,0.5556,0.6883,-0.5192,37.0312,23.8125,-9.075,,adl
3.110675,-2.121,-0.4669,-0.3768,0.5556,0.6883,-0.5192,36.375,24.975,-8.0063,,adl
3.111931,-2.121,-0.4669,-0.3768,0.5361,0.7787,-0.3994,36.375,24.975,-8.0063,,adl
3.123145,-2.0247,-0.7735,-0.4557,0.5361,0.7787,-0.3994,36.375,24.975,-8.0063,,adl
3.131587,-2.0247,-0.7735,-0.4557,0.5361,0.7787,-0.3994,36.375,24.975,-8.0063,,adl
3.142413,-1.4709,-0.5826,-0.6889,0.5361,0.7787,-0.3994,36.375,24.975,-8.0063,,adl
3.161268,-0.7138,-0.5398,-0.9237,0.5361,0.7787,-0.3994,36.375,24.975,-8.0063,,adl
3.171739,-0.7138,-0.5398,-0.9237,0.5361,0.7787,-0.3994,35.7,25.2,-8.2875,,adl
3.175173,-0.7138,-0.5398,-0.9237,0.5081,0.0029,-0.0868,35.7,25.2,-8.2875,,adl
3.179395,-0.7138,-0.5398,-0.9237,0.5081,0.0029,-0.0868,35.7,25.2,-8.2875,,adl
3.180161,-0.2058,-0.764,-0.6293,0.5081,0.0029,-0.0868,35.7,25.2,-8.2875,,adl
3.199674,-0.2472,-0.8015,-0.4843,0.5081,0.0029,-0.0868,35.7,25.2,-8.2875,,adl
3.219136,-0.559,-0.7223,-0.2031,0.5081,0.0029,-0.0868,35.7,25.2,-8.2875,,adl
3.227519,-0.559,-0.7223,-0.2031,0.5081,0.0029,-0.0868,35.7,25.2,-8.2875,,adl
3.23181,-0.559,-0.7223,-0.2031,0.5081,0.0029,-0.0868,35.9813,25.5375,-9.1313,,adl
3.237564,-0.559,-0.7223,-0.2031,0.2784,0.4879,-0.4056,35.9813,25.5375,-9.1313,,adl
3.239267,-0.9707,-0.6904,0.4964,0.2784,0.4879,-0.4056,35.9813,25.5375,-9.1313,,adl
3.256829,-1.2621,-0.762,1.4298,0.2784,0.4879,-0.4056,35.9813,25.5375,-9.1313,,adl
3.275768,-1.2621,-0.762,1.4298,0.2784,0.4879,-0.4056,35.9813,25.5375,-9.1313,,adl
3.279101,-1.3214,-0.5366,1.5886,0.2784,0.4879,-0.4056,35.9813,25.5375,-9.1313,,adl
3.291067,-1.3214,-0.5366,1.5886,0.2784,0.4879,-0.4056,35.6813,25.8375,-8.9062,,adl
3.294501,-1.1587,-0.4568,1.1202,0.2784,0.4879,-0.4056,35.6813,25.8375,-8.9062,,adl
3.298392,-1.1587,-0.4568,1.1202,0.9149,0.1764,-0.3151,35.6813,25.8375,-8.9062,,adl
3.315298,-0.8654,-0.6021,1.0106,0.9149,0.1764,-0.3151,35.6813,25.8375,-8.9062,,adl
3.324463,-0.8654,-0.6021,1.0106,0.9149,0.1764,-0.3151,35.6813,25.8375,-8.9062,,adl
3.332546,-1.0849,-0.568,0.71,0.9149,0.1764,-0.3151,35.6813,25.8375,-8.9062,,adl
3.350905,-1.0849,-0.568,0.71,0.9149,0.1764,-0.3151,34.575,26.625,-10.125,,adl
3.352682,-1.4788,-0.7481,0.614,0.9149,0.1764,-0.3151,34.575,26.625,-10.125,,adl
3.361042,-1.4788,-0.7481,0.614,0.7659,0.4439,-0.507,34.575,26.625,-10.125,,adl
3.371259,-1.4788,-0.7481,0.614,0.7659,0.4439,-0.507,34.575,26.625,-10.125,,adl
3.374285,-1.635,-1.0861,0.8918,0.7659,0.4439,-0.507,34.575,26.625,-10.125,,adl
3.390157,-1.4285,-1.1963,1.6076,0.7659,0.4439,-0.507,34.575,26.625,-10.125,,adl
3.409873,-0.9271,-1.3656,1.5407,0.7659,0.4439,-0.507,34.575,26.625,-10.125,,adl
3.414013,-0.9271,-1.3656,1.5407,0.7659,0.4439,-0.507,34.4813,26.6438,-10.425,,adl
3.418998,-0.9271,-1.3656,1.5407,0.7659,0.4439,-0.507,34.4813,26.6438,-10.425,,adl
3.423715,-0.9271,-1.3656,1.5407,0.9833,0.4195,-0.066,34.4813,26.6438,-10.425,,adl
3.428663,-0.1957,-1.4277,0.8947,0.9833,0.4195,-0.066,34.4813,26.6438,-10.425,,adl
3.448187,0.207,-0.9993,-0.3366,0.9833,0.4195,-0.066,34.4813,26.6438,-10.425,,adl
3.466515,0.207,-0.9993,-0.3366,0.9833,0.4195,-0.066,34.4813,26.6438,-10.425,,adl
3.468045,1.0178,-0.5421,-1.5027,0.9833,0.4195,-0.066,34.4813,26.6438,-10.425,,adl
3.470786,1.0178,-0.5421,-1.5027,0.9833,0.4195,-0.066,34.5375,25.9125,-11.475,,adl
3.485463,1.0178,-0.5421,-1.5027,0.9369,-0.0386,0.0355,34.5375,25.9125,-11.475,,adl
3.489065,2.0964,0.3224,-2.3379,0.9369,-0.0386,0.0355,34.5375,25.9125,-11.475,,adl
3.505409,2.8309,0.3263,-2.8033,0.9369,-0.0386,0.0355,34.5375,25.9125,-11.475,,adl
3.514517,2.8309,0.3263,-2.8033,0.9369,-0.0386,0.0355,34.5375,25.9125,-11.475,,adl
3.525452,3.5566,0.5941,-2.6496,0.9369,-0.0386,0.0355,34.5375,25.9125,-11.475,,adl
3.530649,3.5566,0.5941,-2.6496,0.9369,-0.0386,0.0355,35.0438,25.7813,-12.9375,,adl
3.543808,4.4238,-0.2231,-1.7023,0.9369,-0.0386,0.0355,35.0438,25.7813,-12.9375,,adl
3.546991,4.4238,-0.2231,-1.7023,-0.1174,0.4671,-0.4252,35.0438,25.7813,-12.9375,,adl
3.562176,4.4238,-0.2231,-1.7023,-0.1174,0.4671,-0.4252,35.0438,25.7813,-12.9375,,adl
3.564645,5.3006,-1.2934,-0.732,-0.1174,0.4671,-0.4252,35.0438,25.7813,-12.9375,,adl
3.583097,4.3536,-1.7767,0.0529,-0.1174,0.4671,-0.4252,35.0438,25.7813,-12.9375,,adl
3.593892,4.3536,-1.7767,0.0529,-0.1174,0.4671,-0.4252,33.8063,27.0375,-11.7563,,adl
3.600921,2.1317,-1.3625,0.6421,-0.1174,0.4671,-0.4252,33.8063,27.0375,-11.7563,,adl
3.609824,2.1317,-1.3625,0.6421,-0.1174,0.4671,-0.4252,33.8063,27.0375,-11.7563,,adl
3.611239,2.1317,-1.3625,0.6421,-0.1456,-0.619,-1.4856,33.8063,27.0375,-11.7563,,adl
3.620298,0.5139,-1.2418,0.7695,-0.1456,-0.619,-1.4856,33.8063,27.0375,-11.7563,,adl
3.644327,0.0398,-1.4453,0.7422,-0.1456,-0.619,-1.4856,33.8063,27.0375,-11.7563,,adl
3.651127,0.0398,-1.4453,0.7422,-0.1456,-0.619,-1.4856,30.4688,30.075,-12.675,,adl
3.659431,0.0398,-1.4453,0.7422,-0.1456,-0.619,-1.4856,30.4688,30.075,-12.675,,adl
3.662111,0.3907,-1.6231,0.9914,-0.1456,-0.619,-1.4856,30.4688,30.075,-12.675,,adl
3.672546,0.3907,-1.6231,0.9914,-0.0356,-0.1144,-0.8773,30.4688,30.075,-12.675,,adl
3.676823,0.667,-1.6428,0.786,-0.0356,-0.1144,-0.8773,30.4688,30.075,-12.675,,adl
3.696757,0.3421,-1.5455,0.0885,-0.0356,-0.1144,-0.8773,30.4688,30.075,-12.675,,adl
3.705293,0.3421,-1.5455,0.0885,-0.0356,-0.1144,-0.8773,30.4688,30.075,-12.675,,adl
3.711366,0.3421,-1.5455,0.0885,-0.0356,-0.1144,-0.8773,29.625,31.725,-13.3688,,adl
3.717733,0.1733,-1.4505,-0.9381,-0.0356,-0.1144,-0.8773,29.625,31.725,-13.3688,,adl
3.734242,0.1733,-1.4505,-0.9381,0.238,0.1935,-0.6695,29.625,31.725,-13.3688,,adl
3.737831,0.2842,-1.4111,-1.7269,0.238,0.1935,-0.6695,29.625,31.725,-13.3688,,adl
3.753528,0.2842,-1.4111,-1.7269,0.238,0.1935,-0.6695,29.625,31.725,-13.3688,,adl
3.755001,0.5555,-1.3947,-2.3898,0.238,0.1935,-0.6695,29.625,31.725,-13.3688,,adl
3.770462,0.5555,-1.3947,-2.3898,0.238,0.1935,-0.6695,29.475,32.5312,-11.7938,,adl
3.772597,0.8117,-1.3612,-3.0076,0.238,0.1935,-0.6695,29.475,32.5312,-11.7938,,adl
3.792377,1.0439,-1.3403,-3.5409,0.238,0.1935,-0.6695,29.475,32.5312,-11.7938,,adl
3.796405,1.0439,-1.3403,-3.5409,-0.3239,-0.217,-0.7513,29.475,32.5312,-11.7938,,adl
3.800831,1.0439,-1.3403,-3.5409,-0.3239,-0.217,-0.7513,29.475,32.5312,-11.7938,,adl
3.811054,1.1299,-1.2601,-3.7753,-0.3239,-0.217,-0.7513,29.475,32.5312,-11.7938,,adl
3.830719,1.1443,-1.2501,-3.4021,-0.3239,-0.217,-0.7513,29.475,32.5312,-11.7938,,adl
3.8325,1.1443,-1.2501,-3.4021,-0.3239,-0.217,-0.7513,26.4938,34.5938,-13.4625,,adl
3.849053,1.1443,-1.2501,-3.4021,-0.3239,-0.217,-0.7513,26.4938,34.5938,-13.4625,,adl
3.85194,1.1259,-1.3366,-2.251,-0.3239,-0.217,-0.7513,26.4938,34.5938,-13.4625,,adl
3.858016,1.1259,-1.3366,-2.251,-0.8481,-0.1511,-1.0763,26.4938,34.5938,-13.4625,,adl
3.870002,0.8703,-1.3135,-2.1471,-0.8481,-0.1511,-1.0763,26.4938,34.5938,-13.4625,,adl
3.888279,0.5657,-1.4517,-2.978,-0.8481,-0.1511,-1.0763,26.4938,34.5938,-13.4625,,adl
3.892272,0.5657,-1.4517,-2.978,-0.8481,-0.1511,-1.0763,24.7313,36.45,-11.9438,,adl
3.896252,0.5657,-1.4517,-2.978,-0.8481,-0.1511,-1.0763,24.7313,36.45,-11.9438,,adl
3.907493,0.1271,-1.4936,-3.7092,-0.8481,-0.1511,-1.0763,24.7313,36.45,-11.9438,,adl
3.920765,0.1271,-1.4936,-3.7092,-0.8101,-0.9807,-1.0593,24.7313,36.45,-11.9438,,adl
3.929472,-0.1988,-1.5999,-4.1446,-0.8101,-0.9807,-1.0593,24.7313,36.45,-11.9438,,adl
3.944581,-0.1988,-1.5999,-4.1446,-0.8101,-0.9807,-1.0593,24.7313,36.45,-11.9438,,adl
3.945896,-0.3196,-1.8537,-4.3187,-0.8101,-0.9807,-1.0593,24.7313,36.45,-11.9438,,adl
3.95016,-0.3196,-1.8537,-4.3187,-0.8101,-0.9807,-1.0593,21.3188,38.7,-11.1938,,adl
3.964756,-0.3633,-1.9265,-4.4485,-0.8101,-0.9807,-1.0593,21.3188,38.7,-11.1938,,adl
3.983106,-0.3633,-1.9265,-4.4485,-1.2965,-1.6391,-0.6133,21.3188,38.7,-11.1938,,adl
3.986933,-0.2894,-1.8921,-4.8147,-1.2965,-1.6391,-0.6133,21.3188,38.7,-11.1938,,adl
3.991425,-0.2894,-1.8921,-4.8147,-1.2965,-1.6391,-0.6133,21.3188,38.7,-11.1938,,adl
4.003784,-0.2298,-1.9808,-4.7326,-1.2965,-1.6391,-0.6133,21.3188,38.7,-11.1938,,adl
4.010314,-0.2298,-1.9808,-4.7326,-1.2965,-1.6391,-0.6133,18.9938,40.575,-10.0875,,adl
4.02165,-0.3963,-2.521,-3.8995,-1.2965,-1.6391,-0.6133,18.9938,40.575,-10.0875,,adl
4.040206,-0.3963,-2.521,-3.8995,-1.2965,-1.6391,-0.6133,18.9938,40.575,-10.0875,,adl
4.043673,-0.589,-3.5335,-2.2355,-1.2965,-1.6391,-0.6133,18.9938,40.575,-10.0875,,adl
4.046824,-0.589,-3.5335,-2.2355,-2.5365,-0.6348,-0.1185,18.9938,40.575,-10.0875,,adl
4.060592,-1.1426,-2.9276,0.9385,-2.5365,-0.6348,-0.1185,18.9938,40.575,-10.0875,,adl
4.070993,-1.1426,-2.9276,0.9385,-2.5365,-0.6348,-0.1185,18.0188,41.55,-5.5688,,adl
4.079045,-0.9387,-2.0637,2.819,-2.5365,-0.6348,-0.1185,18.0188,41.55,-5.5688,,adl
4.087982,-0.9387,-2.0637,2.819,-2.5365,-0.6348,-0.1185,18.0188,41.55,-5.5688,,adl
4.09802,-0.0259,-2.3356,2.3121,-2.5365,-0.6348,-0.1185,18.0188,41.55,-5.5688,,adl
4.10673,-0.0259,-2.3356,2.3121,-1.6324,-1.5866,0.1783,18.0188,41.55,-5.5688,,adl
4.117509,0.2496,-1.8203,1.4393,-1.6324,-1.5866,0.1783,18.0188,41.55,-5.5688,,adl
4.131931,0.2496,-1.8203,1.4393,-1.6324,-1.5866,0.1783,18.3,40.9313,-2.0625,,adl
4.136345,0.2496,-1.8203,1.4393,-1.6324,-1.5866,0.1783,18.3,40.9313,-2.0625,,adl
4.138519,0.2002,-1.3333,0.8004,-1.6324,-1.5866,0.1783,18.3,40.9313,-2.0625,,adl
4.155718,-0.1449,-1.1775,0.7239,-1.6324,-1.5866,0.1783,18.3,40.9313,-2.0625,,adl
4.1713,-0.1449,-1.1775,0.7239,-2.0881,-1.7467,0.083,18.3,40.9313,-2.0625,,adl
4.175694,-0.9428,-0.8884,1.4211,-2.0881,-1.7467,0.083,18.3,40.9313,-2.0625,,adl
4.182868,-0.9428,-0.8884,1.4211,-2.0881,-1.7467,0.083,18.3,40.9313,-2.0625,,adl
4.191847,-0.9428,-0.8884,1.4211,-2.0881,-1.7467,0.083,17.8875,40.8938,0.5438,,adl
4.194649,-0.9621,-0.8168,3.0994,-2.0881,-1.7467,0.083,17.8875,40.8938,0.5438,,adl
4.213915,0.0635,-0.8381,5.6106,-2.0881,-1.7467,0.083,17.8875,40.8938,0.5438,,adl
4.231486,0.0635,-0.8381,5.6106,-2.0881,-1.7467,0.083,17.8875,40.8938,0.5438,,adl
4.234469,0.0635,-0.8381,5.6106,-1.6959,-1.9445,0.8185,17.8875,40.8938,0.5438,,adl
4.237589,1.0696,-0.6809,6.4677,-1.6959,-1.9445,0.8185,17.8875,40.8938,0.5438,,adl
4.250519,1.555,-0.2747,6.3292,-1.6959,-1.9445,0.8185,17.8875,40.8938,0.5438,,adl
4.252274,1.555,-0.2747,6.3292,-1.6959,-1.9445,0.8185,19.95,39.45,3.9,,adl
4.271469,1.3032,0.2183,5.7063,-1.6959,-1.9445,0.8185,19.95,39.45,3.9,,adl
4.279516,1.3032,0.2183,5.7063,-1.6959,-1.9445,0.8185,19.95,39.45,3.9,,adl
4.289336,0.9407,0.7946,5.3857,-1.6959,-1.9445,0.8185,19.95,39.45,3.9,,adl
4.29529,0.9407,0.7946,5.3857,-0.8309,-2.0593,0.8906,19.95,39.45,3.9,,adl
4.308388,1.8887,-0.0389,5.4881,-0.8309,-2.0593,0.8906,19.95,39.45,3.9,,adl
4.309885,1.8887,-0.0389,5.4881,-0.8309,-2.0593,0.8906,22.275,37.8,3.825,,adl
4.327346,1.8887,-0.0389,5.4881,-0.8309,-2.0593,0.8906,22.275,37.8,3.825,,adl
4.330432,1.6962,-0.083,6.1203,-0.8309,-2.0593,0.8906,22.275,37.8,3.825,,adl
4.347425,1.2559,0.5956,7.4747,-0.8309,-2.0593,0.8906,22.275,37.8,3.825,,adl
4.355681,1.2559,0.5956,7.4747,-0.5842,-1.8297,0.8503,22.275,37.8,3.825,,adl
4.365535,1.2838,0.9771,8.0705,-0.5842,-1.8297,0.8503,22.275,37.8,3.825,,adl
4.370865,1.2838,0.9771,8.0705,-0.5842,-1.8297,0.8503,25.1813,36.5813,1.2375,,adl
4.374766,1.2838,0.9771,8.0705,-0.5842,-1.8297,0.8503,25.1813,36.5813,1.2375,,adl
4.384786,1.3467,1.5217,7.6958,-0.5842,-1.8297,0.8503,25.1813,36.5813,1.2375,,adl
4.40451,1.409,1.9272,6.9123,-0.5842,-1.8297,0.8503,25.1813,36.5813,1.2375,,adl
4.418077,1.409,1.9272,6.9123,0.4616,-0.9439,0.3139,25.1813,36.5813,1.2375,,adl
4.422721,1.409,1.9272,6.9123,0.4616,-0.9439,0.3139,25.1813,36.5813,1.2375,,adl
4.423582,0.7398,2.3825,5.9948,0.4616,-0.9439,0.3139,25.1813,36.5813,1.2375,,adl
4.430367,0.7398,2.3825,5.9948,0.4616,-0.9439,0.3139,25.8,35.9438,-0.2438,,adl
4.443035,0.1323,2.6526,5.2549,0.4616,-0.9439,0.3139,25.8,35.9438,-0.2438,,adl
4.461742,0.0502,2.2683,4.6671,0.4616,-0.9439,0.3139,25.8,35.9438,-0.2438,,adl
4.470939,0.0502,2.2683,4.6671,0.4616,-0.9439,0.3139,25.8,35.9438,-0.2438,,adl
4.480521,0.0502,2.2683,4.6671,0.8305,0.23,-0.115,25.8,35.9438,-0.2438,,adl
4.483787,0.2043,1.6169,4.3104,0.8305,0.23,-0.115,25.8,35.9438,-0.2438,,adl
4.49017,0.2043,1.6169,4.3104,0.8305,0.23,-0.115,25.8938,36.7313,-2.0063,,adl
4.50009,0.3093,0.9016,4.1803,0.8305,0.23,-0.115,25.8938,36.7313,-2.0063,,adl
4.518116,0.3093,0.9016,4.1803,0.8305,0.23,-0.115,25.8938,36.7313,-2.0063,,adl
4.521169,0.3966,0.3461,4.0667,0.8305,0.23,-0.115,25.8938,36.7313,-2.0063,,adl
4.538512,0.5326,-0.1418,3.8544,0.8305,0.23,-0.115,25.8938,36.7313,-2.0063,,adl
4.541188,0.5326,-0.1418,3.8544,1.4109,0.0139,-0.4264,25.8938,36.7313,-2.0063,,adl
4.550302,0.5326,-0.1418,3.8544,1.4109,0.0139,-0.4264,25.9688,37.4625,-4.275,,adl
4.556998,0.2806,-0.4826,2.9482,1.4109,0.0139,-0.4264,25.9688,37.4625,-4.275,,adl
4.567043,0.2806,-0.4826,2.9482,1.4109,0.0139,-0.4264,25.9688,37.4625,-4.275,,adl
4.577059,-0.2528,-0.6766,2.0114,1.4109,0.0139,-0.4264,25.9688,37.4625,-4.275,,adl
4.601371,-0.5111,-0.9896,1.2416,1.4109,0.0139,-0.4264,25.9688,37.4625,-4.275,,adl
4.603449,-0.5111,-0.9896,1.2416,1.5184,0.5514,-0.749,25.9688,37.4625,-4.275,,adl
4.611318,-0.5111,-0.9896,1.2416,1.5184,0.5514,-0.749,23.0438,38.775,-8.4375,,adl
4.613862,-0.5111,-0.9896,1.2416,1.5184,0.5514,-0.749,23.0438,38.775,-8.4375,,adl
4.615866,-0.5943,-1.4015,0.7068,1.5184,0.5514,-0.749,23.0438,38.775,-8.4375,,adl
4.634017,-0.7541,-1.8004,0.3936,1.5184,0.5514,-0.749,23.0438,38.775,-8.4375,,adl
4.653589,-0.8897,-2.1274,0.2764,1.5184,0.5514,-0.749,23.0438,38.775,-8.4375,,adl
4.66207,-0.8897,-2.1274,0.2764,1.5184,0.5514,-0.749,23.0438,38.775,-8.4375,,adl
4.665483,-0.8897,-2.1274,0.2764,1.2973,0.9325,-0.6927,23.0438,38.775,-8.4375,,adl
4.669782,-0.8897,-2.1274,0.2764,1.2973,0.9325,-0.6927,22.575,39.0563,-11.4375,,adl
4.67109,-0.9705,-2.3748,-0.2907,1.2973,0.9325,-0.6927,22.575,39.0563,-11.4375,,adl
4.691384,-1.0149,-2.6153,-1.4154,1.2973,0.9325,-0.6927,22.575,39.0563,-11.4375,,adl
4.709534,-1.0149,-2.6153,-1.4154,1.2973,0.9325,-0.6927,22.575,39.0563,-11.4375,,adl
4.713068,-0.6222,-2.9954,-2.2292,1.2973,0.9325,-0.6927,22.575,39.0563,-11.4375,,adl
4.728312,-0.6222,-2.9954,-2.2292,0.6474,0.9045,-0.4924,22.575,39.0563,-11.4375,,adl
4.729497,-0.817,-3.0676,-2.4882,0.6474,0.9045,-0.4924,22.575,39.0563,-11.4375,,adl
4.730968,-0.817,-3.0676,-2.4882,0.6474,0.9045,-0.4924,20.9813,40.2563,-12.3188,,adl
4.749495,-1.5328,-2.9357,-1.2054,0.6474,0.9045,-0.4924,20.9813,40.2563,-12.3188,,adl
4.757464,-1.5328,-2.9357,-1.2054,0.6474,0.9045,-0.4924,20.9813,40.2563,-12.3188,,adl
4.767804,-1.2365,-2.7725,0.7556,0.6474,0.9045,-0.4924,20.9813,40.2563,-12.3188,,adl
4.787148,-1.6285,-2.9011,-1.4512,0.6474,0.9045,-0.4924,20.9813,40.2563,-12.3188,,adl
4.790913,-1.6285,-2.9011,-1.4512,1.4451,0.7824,-0.1515,20.9813,40.2563,-12.3188,,adl
4.793246,-1.6285,-2.9011,-1.4512,1.4451,0.7824,-0.1515,20.8125,40.05,-13.9875,,adl
4.805716,-1.6285,-2.9011,-1.4512,1.4451,0.7824,-0.1515,20.8125,40.05,-13.9875,,adl
4.807256,-1.5748,-2.4327,-3.6718,1.4451,0.7824,-0.1515,20.8125,40.05,-13.9875,,adl
4.825484,-0.8231,-2.4178,-4.4112,1.4451,0.7824,-0.1515,20.8125,40.05,-13.9875,,adl
4.844624,0.3563,-2.6268,-3.3888,1.4451,0.7824,-0.1515,20.8125,40.05,-13.9875,,adl
4.851461,0.3563,-2.6268,-3.3888,1.4451,0.7824,-0.1515,23.025,39.225,-17.7938,,adl
4.854295,0.3563,-2.6268,-3.3888,1.4451,0.7824,-0.1515,23.025,39.225,-17.7938,,adl
4.856383,0.3563,-2.6268,-3.3888,0.6913,0.0469,0.1356,23.025,39.225,-17.7938,,adl
4.8625,0.9018,-3.0379,-2.2267,0.6913,0.0469,0.1356,23.025,39.225,-17.7938,,adl
4.882429,0.9527,-3.87,-2.0164,0.6913,0.0469,0.1356,23.025,39.225,-17.7938,,adl
4.900891,0.9527,-3.87,-2.0164,0.6913,0.0469,0.1356,23.025,39.225,-17.7938,,adl
4.903996,0.5928,-3.7946,-2.1931,0.6913,0.0469,0.1356,23.025,39.225,-17.7938,,adl
4.910912,0.5928,-3.7946,-2.1931,0.6913,0.0469,0.1356,20.6438,38.5875,-19.1813,,adl
4.914278,0.5928,-3.7946,-2.1931,0.4678,-0.7704,-0.0953,20.6438,38.5875,-19.1813,,adl
4.92059,0.4363,-3.6966,-2.735,0.4678,-0.7704,-0.0953,20.6438,38.5875,-19.1813,,adl
4.940531,-0.405,-3.1717,-3.1393,0.4678,-0.7704,-0.0953,20.6438,38.5875,-19.1813,,adl
4.950009,-0.405,-3.1717,-3.1393,0.4678,-0.7704,-0.0953,20.6438,38.5875,-19.1813,,adl
4.960689,-1.6358,-2.6036,-3.0339,0.4678,-0.7704,-0.0953,20.6438,38.5875,-19.1813,,adl
4.970356,-1.6358,-2.6036,-3.0339,0.4678,-0.7704,-0.0953,20.1562,38.5688,-20.4188,,adl
4.976797,-1.6358,-2.6036,-3.0339,-0.0857,-0.4405,0.2797,20.1562,38.5688,-20.4188,,adl
4.97787,-2.5765,-2.2691,-1.7132,-0.0857,-0.4405,0.2797,20.1562,38.5688,-20.4188,,adl
4.996377,-2.5765,-2.2691,-1.7132,-0.0857,-0.4405,0.2797,20.1562,38.5688,-20.4188,,adl
4.999813,-2.4034,-2.0587,-1.5695,-0.0857,-0.4405,0.2797,20.1562,38.5688,-20.4188,,adl
5.016073,-2.2134,-1.5646,-2.4528,-0.0857,-0.4405,0.2797,20.1562,38.5688,-20.4188,,adl
5.031561,-2.2134,-1.5646,-2.4528,-0.0857,-0.4405,0.2797,20.7,37.5375,-21.9,,adl
5.035167,-1.3067,-1.1661,-3.4583,-0.0857,-0.4405,0.2797,20.7,37.5375,-21.9,,adl
5.039046,-1.3067,-1.1661,-3.4583,0.4371,-1.2042,1.2022,20.7,37.5375,-21.9,,adl
5.044046,-1.3067,-1.1661,-3.4583,0.4371,-1.2042,1.2022,20.7,37.5375,-21.9,,adl
5.05377,-0.5789,-0.9135,-4.2954,0.4371,-1.2042,1.2022,20.7,37.5375,-21.9,,adl
5.073838,-0.5848,-0.7977,-4.0319,0.4371,-1.2042,1.2022,20.7,37.5375,-21.9,,adl
5.09148,-0.5848,-0.7977,-4.0319,0.4371,-1.2042,1.2022,22.0688,35.8688,-24.4313,,adl
5.095526,-0.5848,-0.7977,-4.0319,0.4371,-1.2042,1.2022,22.0688,35.8688,-24.4313,,adl
5.097699,-0.8159,-0.8283,-3.8253,0.4371,-1.2042,1.2022,22.0688,35.8688,-24.4313,,adl
5.10051,-0.8159,-0.8283,-3.8253,-0.2507,-1.9848,1.1777,22.0688,35.8688,-24.4313,,adl
5.111667,-0.2481,-1.0109,-3.5257,-0.2507,-1.9848,1.1777,22.0688,35.8688,-24.4313,,adl
5.131405,-0.002,-1.2174,-2.9841,-0.2507,-1.9848,1.1777,22.0688,35.8688,-24.4313,,adl
5.139493,-0.002,-1.2174,-2.9841,-0.2507,-1.9848,1.1777,22.0688,35.8688,-24.4313,,adl
5.150653,0.2288,-1.2674,-1.8094,-0.2507,-1.9848,1.1777,22.0688,35.8688,-24.4313,,adl
5.1522,0.2288,-1.2674,-1.8094,-0.2507,-1.9848,1.1777,21.4313,35.3813,-25.875,,adl
5.164125,0.2288,-1.2674,-1.8094,-1.1352,-1.3031,1.0641,21.4313,35.3813,-25.875,,adl
5.168806,0.0932,-1.0522,-0.6753,-1.1352,-1.3031,1.0641,21.4313,35.3813,-25.875,,adl
5.188186,0.0932,-1.0522,-0.6753,-1.1352,-1.3031,1.0641,21.4313,35.3813,-25.875,,adl
5.190778,-0.1091,-0.6474,0.2812,-1.1352,-1.3031,1.0641,21.4313,35.3813,-25.875,,adl
5.207675,-0.496,-0.3583,0.4003,-1.1352,-1.3031,1.0641,21.4313,35.3813,-25.875,,adl
5.210211,-0.496,-0.3583,0.4003,-1.1352,-1.3031,1.0641,21.3,35.7375,-25.35,,adl
5.225915,-0.496,-0.3583,0.4003,-1.1815,-1.2763,1.5026,21.3,35.7375,-25.35,,adl
5.227709,-0.6463,-0.1915,0.7815,-1.1815,-1.2763,1.5026,21.3,35.7375,-25.35,,adl
5.235381,-0.6463,-0.1915,0.7815,-1.1815,-1.2763,1.5026,21.3,35.7375,-25.35,,adl
5.245784,-0.5719,-0.0382,1.5604,-1.1815,-1.2763,1.5026,21.3,35.7375,-25.35,,adl
5.265078,-0.4889,0.047,2.482,-1.1815,-1.2763,1.5026,21.3,35.7375,-25.35,,adl
5.271995,-0.4889,0.047,2.482,-1.1815,-1.2763,1.5026,22.3313,34.4813,-24.5625,,adl
5.283499,-0.4889,0.047,2.482,-1.1815,-1.2763,1.5026,22.3313,34.4813,-24.5625,,adl
5.286385,-0.789,-0.0664,2.998,-1.1815,-1.2763,1.5026,22.3313,34.4813,-24.5625,,adl
5.289141,-0.789,-0.0664,2.998,-0.2947,-2.4735,2.3798,22.3313,34.4813,-24.5625,,adl
5.302954,-1.0632,-0.4353,1.6894,-0.2947,-2.4735,2.3798,22.3313,34.4813,-24.5625,,adl
5.322757,0.167,-0.7057,0.6561,-0.2947,-2.4735,2.3798,22.3313,34.4813,-24.5625,,adl
5.331381,0.167,-0.7057,0.6561,-0.2947,-2.4735,2.3798,22.3313,34.4813,-24.5625,,adl
5.333371,0.167,-0.7057,0.6561,-0.2947,-2.4735,2.3798,25.2375,31.4813,-29.1375,,adl
5.341027,1.6285,-0.8116,1.3062,-0.2947,-2.4735,2.3798,25.2375,31.4813,-29.1375,,adl
5.350914,1.6285,-0.8116,1.3062,0.5166,-3.4765,3.4915,25.2375,31.4813,-29.1375,,adl
5.359951,2.7503,-1.0249,1.5457,0.5166,-3.4765,3.4915,25.2375,31.4813,-29.1375,,adl
5.378622,2.7503,-1.0249,1.5457,0.5166,-3.4765,3.4915,25.2375,31.4813,-29.1375,,adl
5.380035,3.557,-0.8442,1.688,0.5166,-3.4765,3.4915,25.2375,31.4813,-29.1375,,adl
5.391477,3.557,-0.8442,1.688,0.5166,-3.4765,3.4915,24.0563,25.6125,-33.3938,,adl
5.398041,4.3201,-0.7083,1.235,0.5166,-3.4765,3.4915,24.0563,25.6125,-33.3938,,adl
5.412527,4.3201,-0.7083,1.235,1.4439,-2.2903,3.2387,24.0563,25.6125,-33.3938,,adl
5.41754,4.9216,-0.6218,0.1567,1.4439,-2.2903,3.2387,24.0563,25.6125,-33.3938,,adl
5.427845,4.9216,-0.6218,0.1567,1.4439,-2.2903,3.2387,24.0563,25.6125,-33.3938,,adl
5.439624,5.5113,-0.5086,-0.6989,1.4439,-2.2903,3.2387,24.0563,25.6125,-33.3938,,adl
5.453417,5.5113,-0.5086,-0.6989,1.4439,-2.2903,3.2387,24.2625,17.4563,-38.0438,,adl
5.457511,6.1663,-0.2067,-0.9063,1.4439,-2.2903,3.2387,24.2625,17.4563,-38.0438,,adl
5.474913,6.1663,-0.2067,-0.9063,1.4439,-2.2903,3.2387,24.2625,17.4563,-38.0438,,adl
5.47629,6.1663,-0.2067,-0.9063,1.1201,0.0872,2.4714,24.2625,17.4563,-38.0438,,adl
5.477279,6.7825,0.057,-0.9099,1.1201,0.0872,2.4714,24.2625,17.4563,-38.0438,,adl
5.49487,7.206,0.133,-0.7833,1.1201,0.0872,2.4714,24.2625,17.4563,-38.0438,,adl
5.512127,7.206,0.133,-0.7833,1.1201,0.0872,2.4714,26.3438,11.9813,-38.6625,,adl
5.51368,7.5173,-0.412,-1.2407,1.1201,0.0872,2.4714,26.3438,11.9813,-38.6625,,adl
5.522123,7.5173,-0.412,-1.2407,1.1201,0.0872,2.4714,26.3438,11.9813,-38.6625,,adl
5.532273,7.3258,-0.6812,-1.3541,1.1201,0.0872,2.4714,26.3438,11.9813,-38.6625,,adl
5.536937,7.3258,-0.6812,-1.3541,0.6314,1.3529,1.235,26.3438,11.9813,-38.6625,,adl
5.552082,7.0588,-0.7412,-1.2718,0.6314,1.3529,1.235,26.3438,11.9813,-38.6625,,adl
5.570082,7.0588,-0.7412,-1.2718,0.6314,1.3529,1.235,26.3438,11.9813,-38.6625,,adl
5.573087,6.6328,-0.5334,-1.2463,0.6314,1.3529,1.235,26.3438,11.9813,-38.6625,,adl
5.57598,6.6328,-0.5334,-1.2463,0.6314,1.3529,1.235,30.3,8.0063,-37.0312,,adl
5.589388,5.9186,0.1778,-1.099,0.6314,1.3529,1.235,30.3,8.0063,-37.0312,,adl
5.59883,5.9186,0.1778,-1.099,0.205,1.2869,0.507,30.3,8.0063,-37.0312,,adl
5.609398,5.408,1.0939,-0.5839,0.205,1.2869,0.507,30.3,8.0063,-37.0312,,adl
5.617079,5.408,1.0939,-0.5839,0.205,1.2869,0.507,30.3,8.0063,-37.0312,,adl
5.628181,5.2674,1.6662,-0.111,0.205,1.2869,0.507,30.3,8.0063,-37.0312,,adl
5.631036,5.2674,1.6662,-0.111,0.205,1.2869,0.507,32.775,6.5813,-34.3125,,adl
5.647518,5.4347,1.7582,0.1528,0.205,1.2869,0.507,32.775,6.5813,-34.3125,,adl
5.661141,5.4347,1.7582,0.1528,0.4506,-0.1634,-0.0868,32.775,6.5813,-34.3125,,adl
5.665848,5.4347,1.7582,0.1528,0.4506,-0.1634,-0.0868,32.775,6.5813,-34.3125,,adl
5.667945,5.54,1.6488,-0.1736,0.4506,-0.1634,-0.0868,32.775,6.5813,-34.3125,,adl
5.685169,5.8694,1.1729,-1.08,0.4506,-0.1634,-0.0868,32.775,6.5813,-34.3125,,adl
5.690494,5.8694,1.1729,-1.08,0.4506,-0.1634,-0.0868,32.7938,6.0375,-35.25,,adl
5.704829,6.1197,0.3838,-1.644,0.4506,-0.1634,-0.0868,32.7938,6.0375,-35.25,,adl
5.713984,6.1197,0.3838,-1.644,0.4506,-0.1634,-0.0868,32.7938,6.0375,-35.25,,adl
5.722896,6.1197,0.3838,-1.644,-0.0014,-1.6489,-1.2071,32.7938,6.0375,-35.25,,adl
5.724565,5.3875,0.1571,-1.8873,-0.0014,-1.6489,-1.2071,32.7938,6.0375,-35.25,,adl
5.743279,4.8409,-0.0484,-1.6346,-0.0014,-1.6489,-1.2071,32.7938,6.0375,-35.25,,adl
5.750509,4.8409,-0.0484,-1.6346,-0.0014,-1.6489,-1.2071,28.725,8.7188,-38.2313,,adl
5.761043,4.8409,-0.0484,-1.6346,-0.0014,-1.6489,-1.2071,28.725,8.7188,-38.2313,,adl
5.762374,4.6011,-0.1226,-0.4668,-0.0014,-1.6489,-1.2071,28.725,8.7188,-38.2313,,adl
5.781378,4.3169,-0.4337,0.8146,-0.0014,-1.6489,-1.2071,28.725,8.7188,-38.2313,,adl
5.786248,4.3169,-0.4337,0.8146,-1.1535,-1.7259,-1.9389,28.725,8.7188,-38.2313,,adl
5.800418,4.0783,-0.7871,1.893,-1.1535,-1.7259,-1.9389,28.725,8.7188,-38.2313,,adl
5.809333,4.0783,-0.7871,1.893,-1.1535,-1.7259,-1.9389,28.725,8.7188,-38.2313,,adl
5.81046,4.0783,-0.7871,1.893,-1.1535,-1.7259,-1.9389,24.7125,14.7188,-42.1313,,adl
5.818911,3.98,-0.8815,2.5633,-1.1535,-1.7259,-1.9389,24.7125,14.7188,-42.1313,,adl
5.838942,3.9269,-1.4795,2.4776,-1.1535,-1.7259,-1.9389,24.7125,14.7188,-42.1313,,adl
5.847242,3.9269,-1.4795,2.4776,-0.9409,-1.7075,-2.8931,24.7125,14.7188,-42.1313,,adl
5.856829,3.9269,-1.4795,2.4776,-0.9409,-1.7075,-2.8931,24.7125,14.7188,-42.1313,,adl
5.85823,2.8992,-2.4911,2.197,-0.9409,-1.7075,-2.8931,24.7125,14.7188,-42.1313,,adl
5.871659,2.8992,-2.4911,2.197,-0.9409,-1.7075,-2.8931,16.875,20.5312,-42.5813,,adl
5.876806,1.2109,-2.959,2.2061,-0.9409,-1.7075,-2.8931,16.875,20.5312,-42.5813,,adl
5.896564,-0.4868,-3.2734,2.2325,-0.9409,-1.7075,-2.8931,16.875,20.5312,-42.5813,,adl
5.90615,-0.4868,-3.2734,2.2325,-0.9409,-1.7075,-2.8931,16.875,20.5312,-42.5813,,adl
5.90885,-0.4868,-3.2734,2.2325,-0.7821,0.1837,-2.6646,16.875,20.5312,-42.5813,,adl
5.915895,-1.7148,-2.8774,2.753,-0.7821,0.1837,-2.6646,16.875,20.5312,-42.5813,,adl
5.93097,-1.7148,-2.8774,2.753,-0.7821,0.1837,-2.6646,13.1438,26.1,-42.75,,adl
5.933728,-2.1673,-2.4635,2.893,-0.7821,0.1837,-2.6646,13.1438,26.1,-42.75,,adl
5.952953,-2.1673,-2.4635,2.893,-0.7821,0.1837,-2.6646,13.1438,26.1,-42.75,,adl
5.95607,-1.9463,-2.4303,2.7048,-0.7821,0.1837,-2.6646,13.1438,26.1,-42.75,,adl
5.971642,-1.9463,-2.4303,2.7048,-0.0918,0.7652,-2.0061,13.1438,26.1,-42.75,,adl
5.973326,-2.0936,-2.359,2.0226,-0.0918,0.7652,-2.0061,13.1438,26.1,-42.75,,adl
5.991824,-2.499,-2.5186,1.1046,-0.0918,0.7652,-2.0061,13.1438,26.1,-42.75,,adl
5.99571,-2.499,-2.5186,1.1046,-0.0918,0.7652,-2.0061,12.825,28.7063,-41.475,,adl
6.000311,-2.499,-2.5186,1.1046,-0.0918,0.7652,-2.0061,12.825,28.7063,-41.475,,adl
6.010977,-3.255,-2.4068,0.5843,-0.0918,0.7652,-2.0061,12.825,28.7063,-41.475,,adl
6.030075,-3.4265,-2.4037,0.4045,-0.0918,0.7652,-2.0061,12.825,28.7063,-41.475,,adl
6.034782,-3.4265,-2.4037,0.4045,-0.0516,0.9399,-1.5174,12.825,28.7063,-41.475,,adl
6.048717,-3.4265,-2.4037,0.4045,-0.0516,0.9399,-1.5174,12.825,28.7063,-41.475,,adl
6.050056,-3.5001,-2.5108,0.1867,-0.0516,0.9399,-1.5174,12.825,28.7063,-41.475,,adl
6.051239,-3.5001,-2.5108,0.1867,-0.0516,0.9399,-1.5174,12.0938,29.55,-40.0875,,adl
6.069341,-3.6746,-2.438,0.0994,-0.0516,0.9399,-1.5174,12.0938,29.55,-40.0875,,adl
6.087638,-4.0064,-2.3389,0.0688,-0.0516,0.9399,-1.5174,12.0938,29.55,-40.0875,,adl
6.096403,-4.0064,-2.3389,0.0688,-0.0516,0.9399,-1.5174,12.0938,29.55,-40.0875,,adl
6.099772,-4.0064,-2.3389,0.0688,-0.2409,0.6784,-0.953,12.0938,29.55,-40.0875,,adl
6.106135,-4.447,-2.236,0.0366,-0.2409,0.6784,-0.953,12.0938,29.55,-40.0875,,adl
6.111161,-4.447,-2.236,0.0366,-0.2409,0.6784,-0.953,12.1313,30.4875,-39.15,,adl
6.12572,-3.7524,-2.732,0.211,-0.2409,0.6784,-0.953,12.1313,30.4875,-39.15,,adl
6.144005,-3.7524,-2.732,0.211,-0.2409,0.6784,-0.953,12.1313,30.4875,-39.15,,adl
6.145308,-3.2228,-3.7648,-0.3633,-0.2409,0.6784,-0.953,12.1313,30.4875,-39.15,,adl
6.158266,-3.2228,-3.7648,-0.3633,-0.4962,0.274,-0.3849,12.1313,30.4875,-39.15,,adl
6.163554,-3.7144,-3.7589,-0.4752,-0.4962,0.274,-0.3849,12.1313,30.4875,-39.15,,adl
6.172194,-3.7144,-3.7589,-0.4752,-0.4962,0.274,-0.3849,11.9625,32.1,-37.9875,,adl
6.184121,-4.5299,-3.0298,0.0206,-0.4962,0.274,-0.3849,11.9625,32.1,-37.9875,,adl
6.194421,-4.5299,-3.0298,0.0206,-0.4962,0.274,-0.3849,11.9625,32.1,-37.9875,,adl
6.202113,-4.7843,-1.7365,1.0822,-0.4962,0.274,-0.3849,11.9625,32.1,-37.9875,,adl
6.220099,-4.7843,-1.7365,1.0822,-0.4718,0.3303,0.7378,11.9625,32.1,-37.9875,,adl
6.221717,-2.5704,-0.7926,2.0827,-0.4718,0.3303,0.7378,11.9625,32.1,-37.9875,,adl
6.230883,-2.5704,-0.7926,2.0827,-0.4718,0.3303,0.7378,13.8375,33.15,-36.6938,,adl
6.239826,-2.5704,-0.7926,2.0827,-0.4718,0.3303,0.7378,13.8375,33.15,-36.6938,,adl
6.242961,0.3762,0.0231,2.1608,-0.4718,0.3303,0.7378,13.8375,33.15,-36.6938,,adl
6.259798,1.2839,0.3201,-0.0145,-0.4718,0.3303,0.7378,13.8375,33.15,-36.6938,,adl
6.279081,-0.4394,-0.4069,-3.2168,-0.4718,0.3303,0.7378,13.8375,33.15,-36.6938,,adl
6.282931,-0.4394,-0.4069,-3.2168,0.1977,-0.4297,-0.6842,13.8375,33.15,-36.6938,,adl
6.287026,-0.4394,-0.4069,-3.2168,0.1977,-0.4297,-0.6842,13.8375,33.15,-36.6938,,adl
6.290465,-0.4394,-0.4069,-3.2168,0.1977,-0.4297,-0.6842,14.0625,33.0938,-39.1875,,adl
6.298146,-2.1193,-1.1909,-4.6816,0.1977,-0.4297,-0.6842,14.0625,33.0938,-39.1875,,adl
6.316432,-2.5188,-1.4124,-3.5873,0.1977,-0.4297,-0.6842,14.0625,33.0938,-39.1875,,adl
6.335543,-2.5188,-1.4124,-3.5873,0.1977,-0.4297,-0.6842,14.0625,33.0938,-39.1875,,adl
6.33696,-1.6083,-1.5763,-0.7074,0.1977,-0.4297,-0.6842,14.0625,33.0938,-39.1875,,adl
6.345321,-1.6083,-1.5763,-0.7074,-1.5726,0.7652,0.3579,14.0625,33.0938,-39.1875,,adl
6.350936,-1.6083,-1.5763,-0.7074,-1.5726,0.7652,0.3579,13.95,35.325,-36.4688,,adl
6.355253,-0.6113,-1.4722,1.4831,-1.5726,0.7652,0.3579,13.95,35.325,-36.4688,,adl
6.374789,-0.1434,-1.1393,1.9901,-1.5726,0.7652,0.3579,13.95,35.325,-36.4688,,adl
6.383648,-0.1434,-1.1393,1.9901,-1.5726,0.7652,0.3579,13.95,35.325,-36.4688,,adl
6.395646,-0.4715,-0.6651,1.5344,-1.5726,0.7652,0.3579,13.95,35.325,-36.4688,,adl
6.406375,-0.4715,-0.6651,1.5344,-0.6843,0.1812,0.7158,13.95,35.325,-36.4688,,adl
6.411682,-0.4715,-0.6651,1.5344,-0.6843,0.1812,0.7158,15.4313,36.4125,-33.6938,,adl
6.412969,-0.6698,-0.2427,1.2163,-0.6843,0.1812,0.7158,15.4313,36.4125,-33.6938,,adl
6.430883,-0.6698,-0.2427,1.2163,-0.6843,0.1812,0.7158,15.4313,36.4125,-33.6938,,adl
6.432284,-0.5762,0.0087,1.1618,-0.6843,0.1812,0.7158,15.4313,36.4125,-33.6938,,adl
6.45132,-0.2252,0.2538,0.7616,-0.6843,0.1812,0.7158,15.4313,36.4125,-33.6938,,adl
6.469149,-0.2252,0.2538,0.7616,-0.1541,0.6321,1.202,15.4313,36.4125,-33.6938,,adl
6.471019,0.312,0.406,0.48,-0.1541,0.6321,1.202,15.4313,36.4125,-33.6938,,adl
6.472004,0.312,0.406,0.48,-0.1541,0.6321,1.202,17.475,35.85,-31.9875,,adl
6.477892,0.312,0.406,0.48,-0.1541,0.6321,1.202,17.475,35.85,-31.9875,,adl
6.488941,1.016,0.6094,0.1357,-0.1541,0.6321,1.202,17.475,35.85,-31.9875,,adl
6.507344,1.4678,0.6715,-0.6506,-0.1541,0.6321,1.202,17.475,35.85,-31.9875,,adl
6.526477,1.4678,0.6715,-0.6506,-0.1541,0.6321,1.202,17.475,35.85,-31.9875,,adl
6.529725,1.8391,0.6687,-1.4639,-0.1541,0.6321,1.202,17.475,35.85,-31.9875,,adl
6.532631,1.8391,0.6687,-1.4639,-0.1541,0.6321,1.202,21.4688,33.6,-31.2,,adl
6.535356,1.8391,0.6687,-1.4639,-0.0014,0.7261,1.1435,21.4688,33.6,-31.2,,adl
6.546861,2.1324,0.6636,-2.0006,-0.0014,0.7261,1.1435,21.4688,33.6,-31.2,,adl
6.565793,2.3688,0.7311,-1.8968,-0.0014,0.7261,1.1435,21.4688,33.6,-31.2,,adl
6.574782,2.3688,0.7311,-1.8968,-0.0014,0.7261,1.1435,21.4688,33.6,-31.2,,adl
6.584321,2.4031,1.0048,-1.3553,-0.0014,0.7261,1.1435,21.4688,33.6,-31.2,,adl
6.591431,2.4031,1.0048,-1.3553,-0.0014,0.7261,1.1435,25.275,32.85,-28.9125,,adl
6.594149,2.4031,1.0048,-1.3553,-0.8212,0.7957,0.8026,25.275,32.85,-28.9125,,adl
6.602995,2.4275,1.1816,-0.3904,-0.8212,0.7957,0.8026,25.275,32.85,-28.9125,,adl
6.621991,2.4275,1.1816,-0.3904,-0.8212,0.7957,0.8026,25.275,32.85,-28.9125,,adl
6.623753,2.2675,1.3959,0.1953,-0.8212,0.7957,0.8026,25.275,32.85,-28.9125,,adl
6.642067,1.9448,1.4332,0.3018,-0.8212,0.7957,0.8026,25.275,32.85,-28.9125,,adl
6.651185,1.9448,1.4332,0.3018,-0.8212,0.7957,0.8026,27.6563,33.0375,-24.9375,,adl
6.655365,1.9448,1.4332,0.3018,-1.0362,1.3016,0.5253,27.6563,33.0375,-24.9375,,adl
6.660775,1.6681,1.6609,0.6335,-1.0362,1.3016,0.5253,27.6563,33.0375,-24.9375,,adl
6.670213,1.6681,1.6609,0.6335,-1.0362,1.3016,0.5253,27.6563,33.0375,-24.9375,,adl
6.680864,1.9731,1.7188,1.1286,-1.0362,1.3016,0.5253,27.6563,33.0375,-24.9375,,adl
6.700697,2.5381,1.3396,1.393,-1.0362,1.3016,0.5253,27.6563,33.0375,-24.9375,,adl
6.711334,2.5381,1.3396,1.393,-1.0362,1.3016,0.5253,30.9,33.4688,-20.25,,adl
6.718118,2.5381,1.3396,1.393,-1.0362,1.3016,0.5253,30.9,33.4688,-20.25,,adl
6.719555,2.5381,1.3396,1.393,-0.8286,1.5373,0.3274,30.9,33.4688,-20.25,,adl
6.720603,2.4564,1.2913,1.3991,-0.8286,1.5373,0.3274,30.9,33.4688,-20.25,,adl
6.738129,2.5175,1.2047,1.2685,-0.8286,1.5373,0.3274,30.9,33.4688,-20.25,,adl
6.756364,2.5777,1.2354,0.9839,-0.8286,1.5373,0.3274,30.9,33.4688,-20.25,,adl
6.765246,2.5777,1.2354,0.9839,-0.8286,1.5373,0.3274,30.9,33.4688,-20.25,,adl
6.771248,2.5777,1.2354,0.9839,-0.8286,1.5373,0.3274,33.2063,33.5063,-17.1,,adl
6.775642,2.774,1.3017,0.5931,-0.8286,1.5373,0.3274,33.2063,33.5063,-17.1,,adl
6.779197,2.774,1.3017,0.5931,-0.5415,0.8972,0.1991,33.2063,33.5063,-17.1,,adl
6.7956,2.7382,1.4013,0.3048,-0.5415,0.8972,0.1991,33.2063,33.5063,-17.1,,adl
6.813208,2.7382,1.4013,0.3048,-0.5415,0.8972,0.1991,33.2063,33.5063,-17.1,,adl
6.816475,2.5041,1.5504,0.3956,-0.5415,0.8972,0.1991,33.2063,33.5063,-17.1,,adl
6.830866,2.5041,1.5504,0.3956,-0.5415,0.8972,0.1991,33.5438,33.7313,-14.0813,,adl
6.834326,2.4084,1.5805,0.8281,-0.5415,0.8972,0.1991,33.5438,33.7313,-14.0813,,adl
6.842001,2.4084,1.5805,0.8281,-0.6611,0.9057,0.0683,33.5438,33.7313,-14.0813,,adl
6.852259,2.4863,1.4541,1.1255,-0.6611,0.9057,0.0683,33.5438,33.7313,-14.0813,,adl
6.86152,2.4863,1.4541,1.1255,-0.6611,0.9057,0.0683,33.5438,33.7313,-14.0813,,adl
6.872461,2.7746,1.3868,1.1364,-0.6611,0.9057,0.0683,33.5438,33.7313,-14.0813,,adl
6.891074,2.9643,1.2167,0.8325,-0.6611,0.9057,0.0683,33.5438,33.7313,-14.0813,,adl
6.895579,2.9643,1.2167,0.8325,-0.6611,0.9057,0.0683,35.0813,33.4688,-10.3875,,adl
6.904133,2.9643,1.2167,0.8325,-0.4852,0.7822,-0.1295,35.0813,33.4688,-10.3875,,adl
6.908393,2.9643,1.2167,0.8325,-0.4852,0.7822,-0.1295,35.0813,33.4688,-10.3875,,adl
6.909624,3.7129,0.3248,0.6735,-0.4852,0.7822,-0.1295,35.0813,33.4688,-10.3875,,adl
6.929344,4.1669,-0.6434,0.8004,-0.4852,0.7822,-0.1295,35.0813,33.4688,-10.3875,,adl
6.948339,4.5648,-1.2975,1.4712,-0.4852,0.7822,-0.1295,35.0813,33.4688,-10.3875,,adl
6.952037,4.5648,-1.2975,1.4712,-0.4852,0.7822,-0.1295,34.5,34.9688,-8.4938,,adl
6.956692,4.5648,-1.2975,1.4712,-0.4852,0.7822,-0.1295,34.5,34.9688,-8.4938,,adl
6.966314,4.5648,-1.2975,1.4712,-0.5548,0.6174,-0.3751,34.5,34.9688,-8.4938,,adl
6.969429,4.7215,-1.2508,2.1873,-0.5548,0.6174,-0.3751,34.5,34.9688,-8.4938,,adl
6.986188,4.6312,-0.5927,2.5795,-0.5548,0.6174,-0.3751,34.5,34.9688,-8.4938,,adl
7.005024,4.6312,-0.5927,2.5795,-0.5548,0.6174,-0.3751,34.5,34.9688,-8.4938,,adl
7.008306,4.6861,0.3519,2.4916,-0.5548,0.6174,-0.3751,34.5,34.9688,-8.4938,,adl
7.011087,4.6861,0.3519,2.4916,-0.5548,0.6174,-0.3751,33.8625,35.5312,-5.9813,,adl
7.025669,4.9634,0.6878,1.9325,-0.5548,0.6174,-0.3751,33.8625,35.5312,-5.9813,,adl
7.029048,4.9634,0.6878,1.9325,0.3175,0.7359,-0.9078,33.8625,35.5312,-5.9813,,adl
7.044682,4.5652,0.7085,0.8911,0.3175,0.7359,-0.9078,33.8625,35.5312,-5.9813,,adl
7.052114,4.5652,0.7085,0.8911,0.3175,0.7359,-0.9078,33.8625,35.5312,-5.9813,,adl
7.062938,3.9036,0.1931,-0.2207,0.3175,0.7359,-0.9078,33.8625,35.5312,-5.9813,,adl
7.07143,3.9036,0.1931,-0.2207,0.3175,0.7359,-0.9078,30.9375,38.0813,-5.5688,,adl
7.083185,2.9065,-0.2774,-1.0086,0.3175,0.7359,-0.9078,30.9375,38.0813,-5.5688,,adl
7.090641,2.9065,-0.2774,-1.0086,0.6302,0.7029,-1.8326,30.9375,38.0813,-5.5688,,adl
7.100256,2.9065,-0.2774,-1.0086,0.6302,0.7029,-1.8326,30.9375,38.0813,-5.5688,,adl
7.104147,2.2213,-0.901,-1.5137,0.6302,0.7029,-1.8326,30.9375,38.0813,-5.5688,,adl
7.119998,1.8814,-1.5538,-1.673,0.6302,0.7029,-1.8326,30.9375,38.0813,-5.5688,,adl
7.131158,1.8814,-1.5538,-1.673,0.6302,0.7029,-1.8326,26.4188,41.775,-7.1813,,adl
7.138851,1.2376,-1.8975,-1.7505,0.6302,0.7029,-1.8326,26.4188,41.775,-7.1813,,adl
7.148369,1.2376,-1.8975,-1.7505,0.6302,0.7029,-1.8326,26.4188,41.775,-7.1813,,adl
7.152073,1.2376,-1.8975,-1.7505,0.2943,-0.0253,-1.9328,26.4188,41.775,-7.1813,,adl
7.15948,0.4524,-2.0308,-1.74,0.2943,-0.0253,-1.9328,26.4188,41.775,-7.1813,,adl
7.177388,-0.2459,-2.0372,-1.4308,0.2943,-0.0253,-1.9328,26.4188,41.775,-7.1813,,adl
7.192783,-0.2459,-2.0372,-1.4308,0.2943,-0.0253,-1.9328,21.7875,45.3375,-8.1562,,adl
7.196655,-0.2459,-2.0372,-1.4308,0.2943,-0.0253,-1.9328,21.7875,45.3375,-8.1562,,adl
7.198946,-0.8628,-1.9199,-1.0102,0.2943,-0.0253,-1.9328,21.7875,45.3375,-8.1562,,adl
7.214714,-0.8628,-1.9199,-1.0102,-0.2006,-0.0998,-1.7483,21.7875,45.3375,-8.1562,,adl
7.216286,-1.3407,-1.871,-0.7136,-0.2006,-0.0998,-1.7483,21.7875,45.3375,-8.1562,,adl
7.235041,-1.8176,-1.8325,-0.4083,-0.2006,-0.0998,-1.7483,21.7875,45.3375,-8.1562,,adl
7.243641,-1.8176,-1.8325,-0.4083,-0.2006,-0.0998,-1.7483,21.7875,45.3375,-8.1562,,adl
7.252174,-1.8176,-1.8325,-0.4083,-0.2006,-0.0998,-1.7483,17.6625,48.1125,-5.9438,,adl
7.25588,-2.2365,-1.9383,-0.1646,-0.2006,-0.0998,-1.7483,17.6625,48.1125,-5.9438,,adl
7.273126,-2.8384,-2.0129,-0.1193,-0.2006,-0.0998,-1.7483,17.6625,48.1125,-5.9438,,adl
7.277195,-2.8384,-2.0129,-0.1193,-0.3594,0.224,-1.559,17.6625,48.1125,-5.9438,,adl
7.291413,-2.8384,-2.0129,-0.1193,-0.3594,0.224,-1.559,17.6625,48.1125,-5.9438,,adl
7.294177,-3.3687,-2.03,-0.1674,-0.3594,0.224,-1.559,17.6625,48.1125,-5.9438,,adl
7.311591,-3.804,-2.0729,-0.4026,-0.3594,0.224,-1.559,17.6625,48.1125,-5.9438,,adl
7.315121,-3.804,-2.0729,-0.4026,-0.3594,0.224,-1.559,13.0313,48.5625,-4.2375,,adl
7.330172,-4.107,-2.0437,-0.3258,-0.3594,0.224,-1.559,13.0313,48.5625,-4.2375,,adl
7.340245,-4.107,-2.0437,-0.3258,-0.3594,0.224,-1.559,13.0313,48.5625,-4.2375,,adl
7.343379,-4.107,-2.0437,-0.3258,-0.5512,0.3999,-1.0458,13.0313,48.5625,-4.2375,,adl
7.349964,-4.2148,-2.0743,-0.1048,-0.5512,0.3999,-1.0458,13.0313,48.5625,-4.2375,,adl
7.368747,-4.3038,-1.9813,0.101,-0.5512,0.3999,-1.0458,13.0313,48.5625,-4.2375,,adl
7.372863,-4.3038,-1.9813,0.101,-0.5512,0.3999,-1.0458,9.75,49.5938,-1.7438,,adl
7.386942,-4.3038,-1.9813,0.101,-0.5512,0.3999,-1.0458,9.75,49.5938,-1.7438,,adl
7.388336,-4.3702,-1.703,0.1922,-0.5512,0.3999,-1.0458,9.75,49.5938,-1.7438,,adl
7.401356,-4.3702,-1.703,0.1922,-0.638,0.0261,-0.3838,9.75,49.5938,-1.7438,,adl
7.409559,-4.3567,-1.4327,0.323,-0.638,0.0261,-0.3838,9.75,49.5938,-1.7438,,adl
7.427091,-4.2879,-1.2854,0.2917,-0.638,0.0261,-0.3838,9.75,49.5938,-1.7438,,adl
7.431592,-4.2879,-1.2854,0.2917,-0.638,0.0261,-0.3838,7.9875,49.4625,-0.0375,,adl
7.4349,-4.2879,-1.2854,0.2917,-0.638,0.0261,-0.3838,7.9875,49.4625,-0.0375,,adl
7.444816,-4.2833,-1.2396,0.1639,-0.638,0.0261,-0.3838,7.9875,49.4625,-0.0375,,adl
7.464117,-4.2833,-1.2396,0.1639,-0.8298,-0.0191,0.0806,7.9875,49.4625,-0.0375,,adl
7.467892,-4.2128,-1.3272,0.119,-0.8298,-0.0191,0.0806,7.9875,49.4625,-0.0375,,adl
7.48287,-4.2128,-1.3272,0.119,-0.8298,-0.0191,0.0806,7.9875,49.4625,-0.0375,,adl
7.484284,-4.1191,-1.5952,0.1644,-0.8298,-0.0191,0.0806,7.9875,49.4625,-0.0375,,adl
7.490805,-4.1191,-1.5952,0.1644,-0.8298,-0.0191,0.0806,8.0813,49.0125,2.4563,,adl
7.50307,-3.9829,-1.9627,0.5491,-0.8298,-0.0191,0.0806,8.0813,49.0125,2.4563,,adl
7.521738,-3.7959,-2.2938,1.0052,-0.8298,-0.0191,0.0806,8.0813,49.0125,2.4563,,adl
7.525622,-3.7959,-2.2938,1.0052,-1.1938,0.1787,0.7011,8.0813,49.0125,2.4563,,adl
7.529861,-3.7959,-2.2938,1.0052,-1.1938,0.1787,0.7011,8.0813,49.0125,2.4563,,adl
7.540947,-3.56,-2.4873,1.4483,-1.1938,0.1787,0.7011,8.0813,49.0125,2.4563,,adl
7.551515,-3.56,-2.4873,1.4483,-1.1938,0.1787,0.7011,9.2625,47.775,6.3563,,adl
7.561502,-3.1968,-2.5406,1.8335,-1.1938,0.1787,0.7011,9.2625,47.775,6.3563,,adl
7.579126,-3.1968,-2.5406,1.8335,-1.1938,0.1787,0.7011,9.2625,47.775,6.3563,,adl
7.582241,-2.7195,-2.4232,2.277,-1.1938,0.1787,0.7011,9.2625,47.775,6.3563,,adl
7.587102,-2.7195,-2.4232,2.277,-1.1279,-0.1414,1.6932,9.2625,47.775,6.3563,,adl
7.598836,-2.0786,-2.1036,2.7336,-1.1279,-0.1414,1.6932,9.2625,47.775,6.3563,,adl
7.61115,-2.0786,-2.1036,2.7336,-1.1279,-0.1414,1.6932,13.6688,46.5938,9.0188,,adl
7.617384,-0.4258,-2.1099,3.1175,-1.1279,-0.1414,1.6932,13.6688,46.5938,9.0188,,adl
7.626019,-0.4258,-2.1099,3.1175,-1.1279,-0.1414,1.6932,13.6688,46.5938,9.0188,,adl
7.63671,1.3195,-2.8116,2.4542,-1.1279,-0.1414,1.6932,13.6688,46.5938,9.0188,,adl
7.650254,1.3195,-2.8116,2.4542,-0.7906,-0.3209,1.8594,13.6688,46.5938,9.0188,,adl
7.654859,1.3435,-2.5232,1.9344,-0.7906,-0.3209,1.8594,13.6688,46.5938,9.0188,,adl
7.670682,1.3435,-2.5232,1.9344,-0.7906,-0.3209,1.8594,20.5875,44.2125,8.6063,,adl
7.673918,1.3435,-2.5232,1.9344,-0.7906,-0.3209,1.8594,20.5875,44.2125,8.6063,,adl
7.676478,1.7147,-2.3196,2.035,-0.7906,-0.3209,1.8594,20.5875,44.2125,8.6063,,adl
7.693746,1.7149,-1.7984,2.2466,-0.7906,-0.3209,1.8594,20.5875,44.2125,8.6063,,adl
7.712891,1.7149,-1.7984,2.2466,-1.2537,0.9399,1.7897,20.5875,44.2125,8.6063,,adl
7.716396,1.7268,-1.1333,2.6303,-1.2537,0.9399,1.7897,20.5875,44.2125,8.6063,,adl
7.721787,1.7268,-1.1333,2.6303,-1.2537,0.9399,1.7897,20.5875,44.2125,8.6063,,adl
7.732125,1.9378,-0.5089,3.0988,-1.2537,0.9399,1.7897,20.5875,44.2125,8.6063,,adl
7.733784,1.9378,-0.5089,3.0988,-1.2537,0.9399,1.7897,23.1375,40.275,13.6875,,adl
7.751749,2.0009,0.1789,3.6544,-1.2537,0.9399,1.7897,23.1375,40.275,13.6875,,adl
7.769991,2.0009,0.1789,3.6544,-1.2537,0.9399,1.7897,23.1375,40.275,13.6875,,adl
7.773059,2.139,0.5207,3.9133,-1.2537,0.9399,1.7897,23.1375,40.275,13.6875,,adl
7.775911,2.139,0.5207,3.9133,-1.2024,1.7758,1.4158,23.1375,40.275,13.6875,,adl
7.789645,2.098,0.6942,3.9919,-1.2024,1.7758,1.4158,23.1375,40.275,13.6875,,adl
7.791554,2.098,0.6942,3.9919,-1.2024,1.7758,1.4158,25.1063,35.7,19.8375,,adl
7.807805,2.2554,0.617,3.836,-1.2024,1.7758,1.4158,25.1063,35.7,19.8375,,adl
7.817742,2.2554,0.617,3.836,-1.2024,1.7758,1.4158,25.1063,35.7,19.8375,,adl
7.827108,2.1992,0.4492,3.546,-1.2024,1.7758,1.4158,25.1063,35.7,19.8375,,adl
7.836362,2.1992,0.4492,3.546,-0.5402,1.7648,1.0176,25.1063,35.7,19.8375,,adl
7.846515,2.1187,0.3315,3.3351,-0.5402,1.7648,1.0176,25.1063,35.7,19.8375,,adl
7.852789,2.1187,0.3315,3.3351,-0.5402,1.7648,1.0176,24.5063,32.775,24.5063,,adl
7.864944,2.1187,0.3315,3.3351,-0.5402,1.7648,1.0176,24.5063,32.775,24.5063,,adl
7.866325,2.1341,0.498,2.9052,-0.5402,1.7648,1.0176,24.5063,32.775,24.5063,,adl
7.884699,2.2749,0.8016,2.155,-0.5402,1.7648,1.0176,24.5063,32.775,24.5063,,adl
7.898938,2.2749,0.8016,2.155,0.0852,1.3421,1.1997,24.5063,32.775,24.5063,,adl
7.903827,2.3547,1.0979,1.4683,0.0852,1.3421,1.1997,24.5063,32.775,24.5063,,adl
7.910216,2.3547,1.0979,1.4683,0.0852,1.3421,1.1997,24.825,31.1438,27.0938,,adl
7.912123,2.3547,1.0979,1.4683,0.0852,1.3421,1.1997,24.825,31.1438,27.0938,,adl
7.922956,2.6947,1.3256,1.1874,0.0852,1.3421,1.1997,24.825,31.1438,27.0938,,adl
7.943624,2.9963,1.4624,1.254,0.0852,1.3421,1.1997,24.825,31.1438,27.0938,,adl
7.960533,2.9963,1.4624,1.254,0.0852,1.3421,1.1997,24.825,31.1438,27.0938,,adl
7.961855,2.9963,1.4624,1.254,0.0975,1.0281,1.0847,24.825,31.1438,27.0938,,adl
7.962995,3.2699,1.5352,1.141,0.0975,1.0281,1.0847,24.825,31.1438,27.0938,,adl
7.972964,3.2699,1.5352,1.141,0.0975,1.0281,1.0847,27.8625,25.7438,31.0688,,adl
7.980694,3.4034,1.6707,0.7564,0.0975,1.0281,1.0847,27.8625,25.7438,31.0688,,adl
7.999848,3.5211,1.7907,0.2493,0.0975,1.0281,1.0847,27.8625,25.7438,31.0688,,adl
8.008646,3.5211,1.7907,0.2493,0.0975,1.0281,1.0847,27.8625,25.7438,31.0688,,adl
8.018867,3.6816,1.6798,-0.0961,0.0975,1.0281,1.0847,27.8625,25.7438,31.0688,,adl
8.022513,3.6816,1.6798,-0.0961,-0.087,1.016,0.6572,27.8625,25.7438,31.0688,,adl
8.030842,3.6816,1.6798,-0.0961,-0.087,1.016,0.6572,27.3,24.4875,32.5312,,adl
8.039352,3.6297,1.6942,0.0913,-0.087,1.016,0.6572,27.3,24.4875,32.5312,,adl
8.056792,3.6297,1.6942,0.0913,-0.087,1.016,0.6572,27.3,24.4875,32.5312,,adl
8.059947,3.5783,1.7213,0.4325,-0.087,1.016,0.6572,27.3,24.4875,32.5312,,adl
8.076601,3.561,1.6938,0.8009,-0.087,1.016,0.6572,27.3,24.4875,32.5312,,adl
8.085496,3.561,1.6938,0.8009,-0.2079,1.0453,0.3297,27.3,24.4875,32.5312,,adl
8.090372,3.561,1.6938,0.8009,-0.2079,1.0453,0.3297,26.7375,23.7,34.5188,,adl
8.095299,3.8438,1.7176,1.0859,-0.2079,1.0453,0.3297,26.7375,23.7,34.5188,,adl
8.10473,3.8438,1.7176,1.0859,-0.2079,1.0453,0.3297,26.7375,23.7,34.5188,,adl
8.114437,4.3775,1.6146,1.1945,-0.2079,1.0453,0.3297,26.7375,23.7,34.5188,,adl
8.13377,5.1667,1.5861,1.3393,-0.2079,1.0453,0.3297,26.7375,23.7,34.5188,,adl
8.147456,5.1667,1.5861,1.3393,0.4469,0.6714,-0.2102,26.7375,23.7,34.5188,,adl
8.151385,5.1667,1.5861,1.3393,0.4469,0.6714,-0.2102,26.4375,24.0375,33.9938,,adl
8.153849,5.1667,1.5861,1.3393,0.4469,0.6714,-0.2102,26.4375,24.0375,33.9938,,adl
8.155732,6.3655,1.7043,1.3463,0.4469,0.6714,-0.2102,26.4375,24.0375,33.9938,,adl
8.17306,7.0113,1.7418,0.114,0.4469,0.6714,-0.2102,26.4375,24.0375,33.9938,,adl
8.192652,7.0096,1.4569,-1.2728,0.4469,0.6714,-0.2102,26.4375,24.0375,33.9938,,adl
8.199968,7.0096,1.4569,-1.2728,0.4469,0.6714,-0.2102,26.4375,24.0375,33.9938,,adl
8.208893,7.0096,1.4569,-1.2728,0.1768,1.3201,-1.3219,26.4375,24.0375,33.9938,,adl
8.210518,6.5856,1.2381,-1.3853,0.1768,1.3201,-1.3219,26.4375,24.0375,33.9938,,adl
8.21158,6.5856,1.2381,-1.3853,0.1768,1.3201,-1.3219,20.1938,26.1188,35.7563,,adl
8.229393,5.9633,1.0277,-0.2981,0.1768,1.3201,-1.3219,20.1938,26.1188,35.7563,,adl
8.248262,5.9633,1.0277,-0.2981,0.1768,1.3201,-1.3219,20.1938,26.1188,35.7563,,adl
8.251244,5.2108,0.8911,0.714,0.1768,1.3201,-1.3219,20.1938,26.1188,35.7563,,adl
8.268087,4.2773,0.822,1.0431,0.1768,1.3201,-1.3219,20.1938,26.1188,35.7563,,adl
8.269995,4.2773,0.822,1.0431,0.1768,1.3201,-1.3219,14.8688,27.3,37.0688,,adl
8.271126,4.2773,0.822,1.0431,0.0852,0.7508,-1.8718,14.8688,27.3,37.0688,,adl
8.285888,3.4918,0.6439,0.8514,0.0852,0.7508,-1.8718,14.8688,27.3,37.0688,,adl
8.295403,3.4918,0.6439,0.8514,0.0852,0.7508,-1.8718,14.8688,27.3,37.0688,,adl
8.306427,2.734,0.246,0.5317,0.0852,0.7508,-1.8718,14.8688,27.3,37.0688,,adl
8.325265,2.7409,-0.775,0.558,0.0852,0.7508,-1.8718,14.8688,27.3,37.0688,,adl
8.331198,2.7409,-0.775,0.558,0.0852,0.7508,-1.8718,9.9375,28.7625,36.6,,adl
8.334003,2.7409,-0.775,0.558,0.1878,-0.4734,-1.9841,9.9375,28.7625,36.6,,adl
8.343819,2.7409,-0.775,0.558,0.1878,-0.4734,-1.9841,9.9375,28.7625,36.6,,adl
8.34535,2.2342,-1.3919,0.7745,0.1878,-0.4734,-1.9841,9.9375,28.7625,36.6,,adl
8.363188,1.9632,-1.8205,1.3454,0.1878,-0.4734,-1.9841,9.9375,28.7625,36.6,,adl
8.38361,1.4952,-2.2011,1.4922,0.1878,-0.4734,-1.9841,9.9375,28.7625,36.6,,adl
8.391067,1.4952,-2.2011,1.4922,0.1878,-0.4734,-1.9841,7.0875,29.6625,36.2812,,adl
8.392128,1.4952,-2.2011,1.4922,0.1878,-0.4734,-1.9841,7.0875,29.6625,36.2812,,adl
8.395641,1.4952,-2.2011,1.4922,0.3345,-1.4251,-1.724,7.0875,29.6625,36.2812,,adl
8.401031,1.0452,-2.246,1.5246,0.3345,-1.4251,-1.724,7.0875,29.6625,36.2812,,adl
8.420684,0.5621,-1.8689,1.6147,0.3345,-1.4251,-1.724,7.0875,29.6625,36.2812,,adl
8.439471,0.5621,-1.8689,1.6147,0.3345,-1.4251,-1.724,7.0875,29.6625,36.2812,,adl
8.440822,0.2904,-1.6272,1.5366,0.3345,-1.4251,-1.724,7.0875,29.6625,36.2812,,adl
8.451547,0.2904,-1.6272,1.5366,0.3345,-1.4251,-1.724,5.325,30.1313,34.1438,,adl
8.457941,0.2904,-1.6272,1.5366,0.7292,-1.1844,-1.2231,5.325,30.1313,34.1438,,adl
8.459377,0.1041,-1.4375,1.6503,0.7292,-1.1844,-1.2231,5.325,30.1313,34.1438,,adl
8.477633,-0.0254,-1.581,1.7452,0.7292,-1.1844,-1.2231,5.325,30.1313,34.1438,,adl
8.486949,-0.0254,-1.581,1.7452,0.7292,-1.1844,-1.2231,5.325,30.1313,34.1438,,adl
8.496999,-0.1387,-2.0435,1.5319,0.7292,-1.1844,-1.2231,5.325,30.1313,34.1438,,adl
8.511484,-0.1387,-2.0435,1.5319,0.7292,-1.1844,-1.2231,4.4062,32.3438,30.5438,,adl
8.515894,-0.4444,-2.35,0.8787,0.7292,-1.1844,-1.2231,4.4062,32.3438,30.5438,,adl
8.520727,-0.4444,-2.35,0.8787,1.3656,-0.9401,-1.1338,4.4062,32.3438,30.5438,,adl
8.534799,-0.4444,-2.35,0.8787,1.3656,-0.9401,-1.1338,4.4062,32.3438,30.5438,,adl
8.536123,-0.862,-2.5439,0.0056,1.3656,-0.9401,-1.1338,4.4062,32.3438,30.5438,,adl
8.554946,-1.1235,-2.8753,-0.8416,1.3656,-0.9401,-1.1338,4.4062,32.3438,30.5438,,adl
8.570969,-1.1235,-2.8753,-0.8416,1.3656,-0.9401,-1.1338,5.0625,35.7938,27.1313,,adl
8.572788,-1.4883,-3.0956,-1.1565,1.3656,-0.9401,-1.1338,5.0625,35.7938,27.1313,,adl
8.582314,-1.4883,-3.0956,-1.1565,1.3656,-0.9401,-1.1338,5.0625,35.7938,27.1313,,adl
8.584747,-1.4883,-3.0956,-1.1565,0.916,-0.8056,-0.936,5.0625,35.7938,27.1313,,adl
8.594037,-1.9289,-2.9133,-0.9331,0.916,-0.8056,-0.936,5.0625,35.7938,27.1313,,adl
8.612046,-2.1245,-2.6627,-0.4405,0.916,-0.8056,-0.936,5.0625,35.7938,27.1313,,adl
8.629985,-2.1245,-2.6627,-0.4405,0.916,-0.8056,-0.936,5.0625,35.7938,27.1313,,adl
8.63147,-2.5003,-2.2774,-0.063,0.916,-0.8056,-0.936,5.0625,35.7938,27.1313,,adl
8.632409,-2.5003,-2.2774,-0.063,0.916,-0.8056,-0.936,6.2625,35.9625,25.2188,,adl
8.644899,-2.5003,-2.2774,-0.063,0.3198,-0.8729,-0.7209,6.2625,35.9625,25.2188,,adl
8.651612,-2.7714,-1.9971,0.2006,0.3198,-0.8729,-0.7209,6.2625,35.9625,25.2188,,adl
8.66931,-3.1424,-1.7339,0.2809,0.3198,-0.8729,-0.7209,6.2625,35.9625,25.2188,,adl
8.678259,-3.1424,-1.7339,0.2809,0.3198,-0.8729,-0.7209,6.2625,35.9625,25.2188,,adl
8.688662,-3.4464,-1.657,0.318,0.3198,-0.8729,-0.7209,6.2625,35.9625,25.2188,,adl
8.690405,-3.4464,-1.657,0.318,0.3198,-0.8729,-0.7209,4.7063,35.55,26.5125,,adl
8.705729,-3.4464,-1.657,0.318,-0.0455,-0.6016,-0.6611,4.7063,35.55,26.5125,,adl
8.70729,-3.788,-1.7319,0.1818,-0.0455,-0.6016,-0.6611,4.7063,35.55,26.5125,,adl
8.726394,-3.788,-1.7319,0.1818,-0.0455,-0.6016,-0.6611,4.7063,35.55,26.5125,,adl
8.729491,-4.1793,-1.8161,0.324,-0.0455,-0.6016,-0.6611,4.7063,35.55,26.5125,,adl
8.745466,-4.4581,-1.832,0.6548,-0.0455,-0.6016,-0.6611,4.7063,35.55,26.5125,,adl
8.750892,-4.4581,-1.832,0.6548,-0.0455,-0.6016,-0.6611,3.8063,35.4938,27.675,,adl
8.764203,-4.7109,-1.7706,0.9569,-0.0455,-0.6016,-0.6611,3.8063,35.4938,27.675,,adl
8.768183,-4.7109,-1.7706,0.9569,-0.3827,0.0569,-0.2212,3.8063,35.4938,27.675,,adl
8.774663,-4.7109,-1.7706,0.9569,-0.3827,0.0569,-0.2212,3.8063,35.4938,27.675,,adl
8.785505,-4.8629,-1.6085,1.1063,-0.3827,0.0569,-0.2212,3.8063,35.4938,27.675,,adl
8.803705,-4.8246,-1.381,1.2248,-0.3827,0.0569,-0.2212,3.8063,35.4938,27.675,,adl
8.81119,-4.8246,-1.381,1.2248,-0.3827,0.0569,-0.2212,3.1875,33.9563,28.9313,,adl
8.821317,-4.8246,-1.381,1.2248,-0.3827,0.0569,-0.2212,3.1875,33.9563,28.9313,,adl
8.824489,-4.707,-1.2237,1.1223,-0.3827,0.0569,-0.2212,3.1875,33.9563,28.9313,,adl
8.830249,-4.707,-1.2237,1.1223,-0.3094,0.0692,0.4128,3.1875,33.9563,28.9313,,adl
8.841508,-4.488,-1.1689,1.016,-0.3094,0.0692,0.4128,3.1875,33.9563,28.9313,,adl
8.862025,-4.4098,-1.2228,0.8828,-0.3094,0.0692,0.4128,3.1875,33.9563,28.9313,,adl
8.869314,-4.4098,-1.2228,0.8828,-0.3094,0.0692,0.4128,3.1875,33.9563,28.9313,,adl
8.873164,-4.4098,-1.2228,0.8828,-0.3094,0.0692,0.4128,4.3875,33.0,29.7188,,adl
8.88021,-4.1482,-1.3752,0.8809,-0.3094,0.0692,0.4128,4.3875,33.0,29.7188,,adl
8.892925,-4.1482,-1.3752,0.8809,-0.3228,-0.047,1.0469,4.3875,33.0,29.7188,,adl
8.898014,-3.6357,-1.7054,0.866,-0.3228,-0.047,1.0469,4.3875,33.0,29.7188,,adl
8.917297,-3.6357,-1.7054,0.866,-0.3228,-0.047,1.0469,4.3875,33.0,29.7188,,adl
8.920374,-3.0987,-2.1424,0.8929,-0.3228,-0.047,1.0469,4.3875,33.0,29.7188,,adl
8.930353,-3.0987,-2.1424,0.8929,-0.3228,-0.047,1.0469,6.5438,32.3625,30.9,,adl
8.937694,-2.4799,-2.5877,0.9021,-0.3228,-0.047,1.0469,6.5438,32.3625,30.9,,adl
8.955433,-2.4799,-2.5877,0.9021,-0.4927,-0.1191,1.7091,6.5438,32.3625,30.9,,adl
8.959421,-1.7596,-2.9592,1.1315,-0.4927,-0.1191,1.7091,6.5438,32.3625,30.9,,adl
8.965311,-1.7596,-2.9592,1.1315,-0.4927,-0.1191,1.7091,6.5438,32.3625,30.9,,adl
8.975163,-1.1646,-2.9894,1.549,-0.4927,-0.1191,1.7091,6.5438,32.3625,30.9,,adl
8.990894,-1.1646,-2.9894,1.549,-0.4927,-0.1191,1.7091,10.2938,30.8063,31.8188,,adl
8.995201,0.1192,-3.4378,1.8969,-0.4927,-0.1191,1.7091,10.2938,30.8063,31.8188,,adl
9.012878,0.1192,-3.4378,1.8969,-0.4927,-0.1191,1.7091,10.2938,30.8063,31.8188,,adl
9.015853,0.804,-3.8058,1.7535,-0.4927,-0.1191,1.7091,10.2938,30.8063,31.8188,,adl
9.018779,0.804,-3.8058,1.7535,-0.4719,-0.2914,2.1476,10.2938,30.8063,31.8188,,adl
9.032871,0.8149,-2.9757,2.249,-0.4719,-0.2914,2.1476,10.2938,30.8063,31.8188,,adl
9.052278,1.5999,-2.7285,2.5324,-0.4719,-0.2914,2.1476,10.2938,30.8063,31.8188,,adl
9.05403,1.5999,-2.7285,2.5324,-0.4719,-0.2914,2.1476,16.0312,28.7625,31.425,,adl
9.063347,1.5999,-2.7285,2.5324,-0.4719,-0.2914,2.1476,16.0312,28.7625,31.425,,adl
9.072709,2.0788,-2.2851,2.402,-0.4719,-0.2914,2.1476,16.0312,28.7625,31.425,,adl
9.079983,2.0788,-2.2851,2.402,-0.2703,0.2707,2.3284,16.0312,28.7625,31.425,,adl
9.089775,2.4449,-1.6152,2.3956,-0.2703,0.2707,2.3284,16.0312,28.7625,31.425,,adl
9.108242,2.4449,-1.6152,2.3956,-0.2703,0.2707,2.3284,16.0312,28.7625,31.425,,adl
9.109648,2.7459,-1.0169,2.4256,-0.2703,0.2707,2.3284,16.0312,28.7625,31.425,,adl
9.111251,2.7459,-1.0169,2.4256,-0.2703,0.2707,2.3284,19.8563,26.2875,29.4375,,adl
9.12775,3.0374,-0.5652,2.3518,-0.2703,0.2707,2.3284,19.8563,26.2875,29.4375,,adl
9.141967,3.0374,-0.5652,2.3518,0.0657,1.6573,1.8264,19.8563,26.2875,29.4375,,adl
9.146896,2.9895,-0.0134,2.1684,0.0657,1.6573,1.8264,19.8563,26.2875,29.4375,,adl
9.155997,2.9895,-0.0134,2.1684,0.0657,1.6573,1.8264,19.8563,26.2875,29.4375,,adl
9.166441,3.1589,0.329,1.5304,0.0657,1.6573,1.8264,19.8563,26.2875,29.4375,,adl
9.174013,3.1589,0.329,1.5304,0.0657,1.6573,1.8264,18.5813,23.25,34.65,,adl
9.185162,3.4623,0.5022,0.704,0.0657,1.6573,1.8264,18.5813,23.25,34.65,,adl
9.20599,3.4623,0.5022,0.704,0.0657,1.6573,1.8264,18.5813,23.25,34.65,,adl
9.208808,3.4623,0.5022,0.704,0.227,2.2914,1.257,18.5813,23.25,34.65,,adl
9.211621,3.5351,0.6333,0.122,0.227,2.2914,1.257,18.5813,23.25,34.65,,adl
9.223406,3.7035,0.6427,-0.2093,0.227,2.2914,1.257,18.5813,23.25,34.65,,adl
9.232367,3.7035,0.6427,-0.2093,0.227,2.2914,1.257,17.7,22.4625,36.9563,,adl
9.243019,3.9048,0.6197,-0.3052,0.227,2.2914,1.257,17.7,22.4625,36.9563,,adl
9.252796,3.9048,0.6197,-0.3052,0.227,2.2914,1.257,17.7,22.4625,36.9563,,adl
9.263736,3.9108,0.7641,-0.11,0.227,2.2914,1.257,17.7,22.4625,36.9563,,adl
9.267754,3.9108,0.7641,-0.11,-0.2971,1.6317,0.6621,17.7,22.4625,36.9563,,adl
9.281485,3.8441,1.0831,0.0615,-0.2971,1.6317,0.6621,17.7,22.4625,36.9563,,adl
9.291796,3.8441,1.0831,0.0615,-0.2971,1.6317,0.6621,15.2813,21.6188,38.8875,,adl
9.299254,3.8441,1.0831,0.0615,-0.2971,1.6317,0.6621,15.2813,21.6188,38.8875,,adl
9.300421,3.8716,1.4084,0.3391,-0.2971,1.6317,0.6621,15.2813,21.6188,38.8875,,adl
9.319703,3.8431,1.7086,0.6039,-0.2971,1.6317,0.6621,15.2813,21.6188,38.8875,,adl
9.330792,3.8431,1.7086,0.6039,-0.3777,0.9305,0.0573,15.2813,21.6188,38.8875,,adl
9.340657,3.748,1.8554,0.5482,-0.3777,0.9305,0.0573,15.2813,21.6188,38.8875,,adl
9.346933,3.748,1.8554,0.5482,-0.3777,0.9305,0.0573,15.2813,21.6188,38.8875,,adl
9.35259,3.748,1.8554,0.5482,-0.3777,0.9305,0.0573,13.1813,20.325,40.3875,,adl
9.357723,3.5298,1.9258,0.2478,-0.3777,0.9305,0.0573,13.1813,20.325,40.3875,,adl
9.376954,3.0196,1.7593,-0.164,-0.3777,0.9305,0.0573,13.1813,20.325,40.3875,,adl
9.391185,3.0196,1.7593,-0.164,-0.3789,1.1881,-0.5451,13.1813,20.325,40.3875,,adl
9.397824,3.0196,1.7593,-0.164,-0.3789,1.1881,-0.5451,13.1813,20.325,40.3875,,adl
9.399367,2.3543,1.5875,-0.2053,-0.3789,1.1881,-0.5451,13.1813,20.325,40.3875,,adl
9.410419,2.3543,1.5875,-0.2053,-0.3789,1.1881,-0.5451,9.9938,19.575,41.4188,,adl
9.415059,1.7243,1.3928,-0.0415,-0.3789,1.1881,-0.5451,9.9938,19.575,41.4188,,adl
9.434146,1.3024,1.2708,0.387,-0.3789,1.1881,-0.5451,9.9938,19.575,41.4188,,adl
9.442821,1.3024,1.2708,0.387,-0.3789,1.1881,-0.5451,9.9938,19.575,41.4188,,adl
9.452801,1.3024,1.2708,0.387,-0.3997,1.595,-0.3373,9.9938,19.575,41.4188,,adl
9.457542,1.025,1.1868,0.7258,-0.3997,1.595,-0.3373,9.9938,19.575,41.4188,,adl
9.470688,1.025,1.1868,0.7258,-0.3997,1.595,-0.3373,5.4375,18.6375,42.675,,adl
9.472753,0.9572,1.1559,0.9108,-0.3997,1.595,-0.3373,5.4375,18.6375,42.675,,adl
9.490318,0.9572,1.1559,0.9108,-0.3997,1.595,-0.3373,5.4375,18.6375,42.675,,adl
9.491784,1.1365,1.2109,0.9538,-0.3997,1.595,-0.3373,5.4375,18.6375,42.675,,adl
9.510834,1.4504,1.2722,0.8247,-0.3997,1.595,-0.3373,5.4375,18.6375,42.675,,adl
9.515107,1.4504,1.2722,0.8247,0.1561,0.8437,0.2626,5.4375,18.6375,42.675,,adl
9.529835,1.911,1.232,0.5787,0.1561,0.8437,0.2626,5.4375,18.6375,42.675,,adl
9.533476,1.911,1.232,0.5787,0.1561,0.8437,0.2626,2.4188,18.225,43.0875,,adl
9.538772,1.911,1.232,0.5787,0.1561,0.8437,0.2626,2.4188,18.225,43.0875,,adl
9.548932,2.4587,1.0742,0.0825,0.1561,0.8437,0.2626,2.4188,18.225,43.0875,,adl
9.567874,2.8306,1.0114,-0.306,0.1561,0.8437,0.2626,2.4188,18.225,43.0875,,adl
9.577046,2.8306,1.0114,-0.306,0.4946,-0.1423,0.3835,2.4188,18.225,43.0875,,adl
9.586716,2.8306,1.0114,-0.306,0.4946,-0.1423,0.3835,2.4188,18.225,43.0875,,adl
9.588074,3.1917,0.9571,-0.6442,0.4946,-0.1423,0.3835,2.4188,18.225,43.0875,,adl
9.590933,3.1917,0.9571,-0.6442,0.4946,-0.1423,0.3835,4.1438,19.35,41.3813,,adl
9.60629,3.4299,0.958,-0.7358,0.4946,-0.1423,0.3835,4.1438,19.35,41.3813,,adl
9.625344,3.5564,0.7929,-0.6909,0.4946,-0.1423,0.3835,4.1438,19.35,41.3813,,adl
9.634501,3.5564,0.7929,-0.6909,0.4946,-0.1423,0.3835,4.1438,19.35,41.3813,,adl
9.641826,3.5564,0.7929,-0.6909,0.2393,-0.4612,-0.1932,4.1438,19.35,41.3813,,adl
9.644269,3.4878,0.2211,-0.6226,0.2393,-0.4612,-0.1932,4.1438,19.35,41.3813,,adl
9.651876,3.4878,0.2211,-0.6226,0.2393,-0.4612,-0.1932,3.6375,19.8,42.5438,,adl
9.664461,2.7181,-0.5411,-0.3684,0.2393,-0.4612,-0.1932,3.6375,19.8,42.5438,,adl
9.682207,2.7181,-0.5411,-0.3684,0.2393,-0.4612,-0.1932,3.6375,19.8,42.5438,,adl
9.685301,3.0526,-1.873,0.2287,0.2393,-0.4612,-0.1932,3.6375,19.8,42.5438,,adl
9.701788,3.0526,-1.873,0.2287,-0.153,0.3501,-0.5963,3.6375,19.8,42.5438,,adl
9.703702,2.6611,-2.3586,1.0729,-0.153,0.3501,-0.5963,3.6375,19.8,42.5438,,adl
9.711073,2.6611,-2.3586,1.0729,-0.153,0.3501,-0.5963,2.6063,18.9563,42.15,,adl
9.721071,2.5221,-2.7522,1.9433,-0.153,0.3501,-0.5963,2.6063,18.9563,42.15,,adl
9.729172,2.5221,-2.7522,1.9433,-0.153,0.3501,-0.5963,2.6063,18.9563,42.15,,adl
9.739926,2.2527,-2.5332,2.0126,-0.153,0.3501,-0.5963,2.6063,18.9563,42.15,,adl
9.759052,1.7455,-1.6797,1.4061,-0.153,0.3501,-0.5963,2.6063,18.9563,42.15,,adl
9.764012,1.7455,-1.6797,1.4061,0.4236,0.344,-0.7099,2.6063,18.9563,42.15,,adl
9.771037,1.7455,-1.6797,1.4061,0.4236,0.344,-0.7099,-0.45,19.65,42.0375,,adl
9.777618,1.7455,-1.6797,1.4061,0.4236,0.344,-0.7099,-0.45,19.65,42.0375,,adl
9.779083,1.6939,-0.9079,0.8455,0.4236,0.344,-0.7099,-0.45,19.65,42.0375,,adl
9.797871,2.0747,-0.5576,0.429,0.4236,0.344,-0.7099,-0.45,19.65,42.0375,,adl
9.817242,2.2062,-0.4778,-0.0019,0.4236,0.344,-0.7099,-0.45,19.65,42.0375,,adl
9.825585,2.2062,-0.4778,-0.0019,0.4236,0.344,-0.7099,-0.45,19.65,42.0375,,adl
9.828485,2.2062,-0.4778,-0.0019,0.745,-0.2046,-1.1693,-0.45,19.65,42.0375,,adl
9.831268,2.2062,-0.4778,-0.0019,0.745,-0.2046,-1.1693,-2.2125,20.1562,41.0438,,adl
9.836511,2.144,-0.6425,-0.5296,0.745,-0.2046,-1.1693,-2.2125,20.1562,41.0438,,adl
9.854952,2.0944,-1.1957,-1.1804,0.745,-0.2046,-1.1693,-2.2125,20.1562,41.0438,,adl
9.873425,2.0944,-1.1957,-1.1804,0.745,-0.2046,-1.1693,-2.2125,20.1562,41.0438,,adl
9.876485,1.9532,-1.9364,-1.7453,0.745,-0.2046,-1.1693,-2.2125,20.1562,41.0438,,adl
9.887902,1.9532,-1.9364,-1.7453,0.5275,-0.8301,-2.1332,-2.2125,20.1562,41.0438,,adl
9.891691,1.9532,-1.9364,-1.7453,0.5275,-0.8301,-2.1332,-5.0813,21.3938,39.9938,,adl
9.894306,1.6098,-2.6493,-2.2506,0.5275,-0.8301,-2.1332,-5.0813,21.3938,39.9938,,adl
9.912753,1.0245,-3.3014,-2.5091,0.5275,-0.8301,-2.1332,-5.0813,21.3938,39.9938,,adl
9.921553,1.0245,-3.3014,-2.5091,0.5275,-0.8301,-2.1332,-5.0813,21.3938,39.9938,,adl
9.931722,0.2489,-3.7238,-2.4035,0.5275,-0.8301,-2.1332,-5.0813,21.3938,39.9938,,adl
9.95006,0.2489,-3.7238,-2.4035,-0.5732,-0.7397,-2.6818,-5.0813,21.3938,39.9938,,adl
9.953737,-0.7813,-3.9903,-1.8906,-0.5732,-0.7397,-2.6818,-5.0813,21.3938,39.9938,,adl
9.955925,-0.7813,-3.9903,-1.8906,-0.5732,-0.7397,-2.6818,-7.4438,20.1188,37.875,,adl
9.969037,-0.7813,-3.9903,-1.8906,-0.5732,-0.7397,-2.6818,-7.4438,20.1188,37.875,,adl
9.970451,-2.1303,-4.364,-1.0136,-0.5732,-0.7397,-2.6818,-7.4438,20.1188,37.875,,adl
9.98878,-3.4697,-4.2205,0.1019,-0.5732,-0.7397,-2.6818,-7.4438,20.1188,37.875,,adl
10.008437,-4.1013,-3.8196,0.9607,-0.5732,-0.7397,-2.6818,-7.4438,20.1188,37.875,,adl
10.012161,-4.1013,-3.8196,0.9607,-0.5732,-0.7397,-2.6818,-9.0375,16.125,39.0375,,adl
10.014422,-4.1013,-3.8196,0.9607,-0.9251,0.195,-2.0061,-9.0375,16.125,39.0375,,adl
10.016439,-4.1013,-3.8196,0.9607,-0.9251,0.195,-2.0061,-9.0375,16.125,39.0375,,adl
10.026864,-4.2322,-3.4018,1.2413,-0.9251,0.195,-2.0061,-9.0375,16.125,39.0375,,adl
10.046466,-4.3096,-3.0325,0.8463,-0.9251,0.195,-2.0061,-9.0375,16.125,39.0375,,adl
10.064781,-4.3096,-3.0325,0.8463,-0.9251,0.195,-2.0061,-9.0375,16.125,39.0375,,adl
10.066193,-4.5539,-2.8132,0.3178,-0.9251,0.195,-2.0061,-9.0375,16.125,39.0375,,adl
10.071068,-4.5539,-2.8132,0.3178,-0.9251,0.195,-2.0061,-11.7563,13.35,40.5563,,adl
10.073951,-4.5539,-2.8132,0.3178,-0.4621,0.7508,-1.5907,-11.7563,13.35,40.5563,,adl
10.087112,-4.9483,-2.6645,-0.4908,-0.4621,0.7508,-1.5907,-11.7563,13.35,40.5563,,adl
10.104227,-5.2402,-2.5699,-1.1995,-0.4621,0.7508,-1.5907,-11.7563,13.35,40.5563,,adl
10.112592,-5.2402,-2.5699,-1.1995,-0.4621,0.7508,-1.5907,-11.7563,13.35,40.5563,,adl
10.123083,-5.4452,-2.4185,-1.4209,-0.4621,0.7508,-1.5907,-11.7563,13.35,40.5563,,adl
10.13143,-5.4452,-2.4185,-1.4209,-0.4621,0.7508,-1.5907,-15.7125,10.425,40.125,,adl
10.136981,-5.4452,-2.4185,-1.4209,-0.8383,1.4069,-1.0117,-15.7125,10.425,40.125,,adl
10.142784,-5.7254,-2.0632,-1.3875,-0.8383,1.4069,-1.0117,-15.7125,10.425,40.125,,adl
10.160474,-5.7254,-2.0632,-1.3875,-0.8383,1.4069,-1.0117,-15.7125,10.425,40.125,,adl
10.161851,-5.6942,-1.7213,-1.1422,-0.8383,1.4069,-1.0117,-15.7125,10.425,40.125,,adl
10.18024,-5.465,-1.6816,-1.0455,-0.8383,1.4069,-1.0117,-15.7125,10.425,40.125,,adl
10.190746,-5.465,-1.6816,-1.0455,-0.8383,1.4069,-1.0117,-20.1375,6.7313,39.7125,,adl
10.198891,-5.465,-1.6816,-1.0455,-1.0582,0.961,-0.407,-20.1375,6.7313,39.7125,,adl
10.202969,-4.9148,-2.0692,-1.1967,-1.0582,0.961,-0.407,-20.1375,6.7313,39.7125,,adl
10.207716,-4.9148,-2.0692,-1.1967,-1.0582,0.961,-0.407,-20.1375,6.7313,39.7125,,adl
10.219188,-4.7179,-2.2437,-1.3135,-1.0582,0.961,-0.407,-20.1375,6.7313,39.7125,,adl
10.237949,-4.446,-2.3405,-1.2947,-1.0582,0.961,-0.407,-20.1375,6.7313,39.7125,,adl
10.254302,-4.446,-2.3405,-1.2947,-1.0582,0.961,-0.407,-21.375,3.8438,39.0,,adl
10.258056,-4.446,-2.3405,-1.2947,-1.0582,0.961,-0.407,-21.375,3.8438,39.0,,adl
10.260051,-4.2189,-2.4581,-1.1332,-1.0582,0.961,-0.407,-21.375,3.8438,39.0,,adl
10.260714,-4.2189,-2.4581,-1.1332,-1.481,0.085,0.0769,-21.375,3.8438,39.0,,adl
10.275974,-3.6713,-2.8047,-0.8667,-1.481,0.085,0.0769,-21.375,3.8438,39.0,,adl
10.29533,-3.3466,-3.0249,-0.2994,-1.481,0.085,0.0769,-21.375,3.8438,39.0,,adl
10.303981,-3.3466,-3.0249,-0.2994,-1.481,0.085,0.0769,-21.375,3.8438,39.0,,adl
10.310818,-3.3466,-3.0249,-0.2994,-1.481,0.085,0.0769,-21.3188,0.075,40.5375,,adl
10.31407,-3.0796,-3.019,0.3792,-1.481,0.085,0.0769,-21.3188,0.075,40.5375,,adl
10.322494,-3.0796,-3.019,0.3792,-1.9965,-0.3487,0.6083,-21.3188,0.075,40.5375,,adl
10.333183,-2.8297,-3.0503,1.0365,-1.9965,-0.3487,0.6083,-21.3188,0.075,40.5375,,adl
10.351664,-2.8297,-3.0503,1.0365,-1.9965,-0.3487,0.6083,-21.3188,0.075,40.5375,,adl
10.353049,-2.315,-3.1468,2.4298,-1.9965,-0.3487,0.6083,-21.3188,0.075,40.5375,,adl
10.371678,-1.3904,-3.3125,4.2566,-1.9965,-0.3487,0.6083,-21.3188,0.075,40.5375,,adl
10.37305,-1.3904,-3.3125,4.2566,-1.9965,-0.3487,0.6083,-19.9125,-3.5438,40.875,,adl
10.385651,-1.3904,-3.3125,4.2566,-1.393,-0.0788,1.092,-19.9125,-3.5438,40.875,,adl
10.390506,-0.2518,-4.2488,5.3766,-1.393,-0.0788,1.092,-19.9125,-3.5438,40.875,,adl
10.399641,-0.2518,-4.2488,5.3766,-1.393,-0.0788,1.092,-19.9125,-3.5438,40.875,,adl
10.409145,-0.7084,-3.8231,5.0397,-1.393,-0.0788,1.092,-19.9125,-3.5438,40.875,,adl
10.429109,-0.176,-4.2038,3.2639,-1.393,-0.0788,1.092,-19.9125,-3.5438,40.875,,adl
10.432117,-0.176,-4.2038,3.2639,-1.393,-0.0788,1.092,-20.0813,-4.2188,40.7812,,adl
10.447778,-0.176,-4.2038,3.2639,-1.393,-0.0788,1.092,-20.0813,-4.2188,40.7812,,adl
10.450963,-0.176,-4.2038,3.2639,-0.66,0.846,1.6016,-20.0813,-4.2188,40.7812,,adl
10.453443,-0.2453,-3.251,2.518,-0.66,0.846,1.6016,-20.0813,-4.2188,40.7812,,adl
10.468478,0.1695,-2.3598,2.4606,-0.66,0.846,1.6016,-20.0813,-4.2188,40.7812,,adl
10.486632,0.8682,-1.815,2.323,-0.66,0.846,1.6016,-20.0813,-4.2188,40.7812,,adl
10.491596,0.8682,-1.815,2.323,-0.66,0.846,1.6016,-22.8188,-3.6375,38.9813,,adl
10.494967,0.8682,-1.815,2.323,-0.66,0.846,1.6016,-22.8188,-3.6375,38.9813,,adl
10.505351,1.1791,-1.2614,2.6016,-0.66,0.846,1.6016,-22.8188,-3.6375,38.9813,,adl
10.509144,1.1791,-1.2614,2.6016,-1.3685,1.7501,1.6699,-22.8188,-3.6375,38.9813,,adl
10.524582,1.2476,-0.6182,3.1052,-1.3685,1.7501,1.6699,-22.8188,-3.6375,38.9813,,adl
10.542284,1.2476,-0.6182,3.1052,-1.3685,1.7501,1.6699,-22.8188,-3.6375,38.9813,,adl
10.544629,1.3063,-0.2124,3.386,-1.3685,1.7501,1.6699,-22.8188,-3.6375,38.9813,,adl
10.550989,1.3063,-0.2124,3.386,-1.3685,1.7501,1.6699,-27.0188,-5.1,37.125,,adl
10.56274,1.3553,0.1784,3.3456,-1.3685,1.7501,1.6699,-27.0188,-5.1,37.125,,adl
10.57157,1.3553,0.1784,3.3456,-1.2195,1.6963,1.2875,-27.0188,-5.1,37.125,,adl
10.581947,1.2671,0.5699,2.9677,-1.2195,1.6963,1.2875,-27.0188,-5.1,37.125,,adl
10.591007,1.2671,0.5699,2.9677,-1.2195,1.6963,1.2875,-27.0188,-5.1,37.125,,adl
10.600977,1.2573,0.921,2.7003,-1.2195,1.6963,1.2875,-27.0188,-5.1,37.125,,adl
10.610444,1.2573,0.921,2.7003,-1.2195,1.6963,1.2875,-30.3938,-5.1938,35.4563,,adl
10.620018,1.3455,1.1766,2.5627,-1.2195,1.6963,1.2875,-30.3938,-5.1938,35.4563,,adl
10.633758,1.3455,1.1766,2.5627,-1.1719,1.4007,0.8734,-30.3938,-5.1938,35.4563,,adl
10.638175,1.3455,1.1766,2.5627,-1.1719,1.4007,0.8734,-30.3938,-5.1938,35.4563,,adl
10.639185,1.5764,1.2152,2.5503,-1.1719,1.4007,0.8734,-30.3938,-5.1938,35.4563,,adl
10.658813,1.6746,1.2005,2.5886,-1.1719,1.4007,0.8734,-30.3938,-5.1938,35.4563,,adl
10.671099,1.6746,1.2005,2.5886,-1.1719,1.4007,0.8734,-33.1688,-5.85,32.8313,,adl
10.678961,1.5693,1.0727,2.6998,-1.1719,1.4007,0.8734,-33.1688,-5.85,32.8313,,adl
10.686796,1.5693,1.0727,2.6998,-1.1719,1.4007,0.8734,-33.1688,-5.85,32.8313,,adl
10.69646,1.5693,1.0727,2.6998,-1.2732,1.4289,0.3065,-33.1688,-5.85,32.8313,,adl
10.699191,1.3049,0.8157,2.8853,-1.2732,1.4289,0.3065,-33.1688,-5.85,32.8313,,adl
10.71767,0.5524,0.2775,2.7907,-1.2732,1.4289,0.3065,-33.1688,-5.85,32.8313,,adl
10.730782,0.5524,0.2775,2.7907,-1.2732,1.4289,0.3065,-36.4875,-7.3688,30.1125,,adl
10.734463,0.5524,0.2775,2.7907,-1.2732,1.4289,0.3065,-36.4875,-7.3688,30.1125,,adl
10.735521,-0.578,-0.1645,3.146,-1.2732,1.4289,0.3065,-36.4875,-7.3688,30.1125,,adl
10.753767,-1.0397,-0.1438,4.6666,-1.2732,1.4289,0.3065,-36.4875,-7.3688,30.1125,,adl
10.758369,-1.0397,-0.1438,4.6666,-1.1707,2.7031,1.3133,-36.4875,-7.3688,30.1125,,adl
10.772594,0.1663,-0.1235,5.4783,-1.1707,2.7031,1.3133,-36.4875,-7.3688,30.1125,,adl
10.782497,0.1663,-0.1235,5.4783,-1.1707,2.7031,1.3133,-36.4875,-7.3688,30.1125,,adl
10.790788,0.1663,-0.1235,5.4783,-1.1707,2.7031,1.3133,-40.35,-6.8063,24.0938,,adl
10.791736,-0.1479,0.6155,5.8005,-1.1707,2.7031,1.3133,-40.35,-6.8063,24.0938,,adl
10.810944,1.1402,0.4129,5.5407,-1.1707,2.7031,1.3133,-40.35,-6.8063,24.0938,,adl
10.819651,1.1402,0.4129,5.5407,0.227,2.2718,1.0994,-40.35,-6.8063,24.0938,,adl
10.83193,1.1402,0.4129,5.5407,0.227,2.2718,1.0994,-40.35,-6.8063,24.0938,,adl
10.835314,1.4501,0.6989,4.7549,0.227,2.2718,1.0994,-40.35,-6.8063,24.0938,,adl
10.849315,1.7656,0.8146,3.4109,0.227,2.2718,1.0994,-40.35,-6.8063,24.0938,,adl
10.850709,1.7656,0.8146,3.4109,0.227,2.2718,1.0994,-44.2125,-3.4313,17.5875,,adl
10.869672,1.9012,0.8049,1.7076,0.227,2.2718,1.0994,-44.2125,-3.4313,17.5875,,adl
10.8777,1.9012,0.8049,1.7076,0.227,2.2718,1.0994,-44.2125,-3.4313,17.5875,,adl
10.882277,1.9012,0.8049,1.7076,0.8635,2.1875,0.5033,-44.2125,-3.4313,17.5875,,adl
10.888468,2.1012,0.9074,0.6451,0.8635,2.1875,0.5033,-44.2125,-3.4313,17.5875,,adl
10.907558,2.2703,0.9303,0.0687,0.8635,2.1875,0.5033,-44.2125,-3.4313,17.5875,,adl
10.920891,2.2703,0.9303,0.0687,0.8635,2.1875,0.5033,-45.7125,-1.0312,11.1,,adl
10.925986,2.2703,0.9303,0.0687,0.8635,2.1875,0.5033,-45.7125,-1.0312,11.1,,adl
10.928116,2.4327,0.8837,-0.2495,0.8635,2.1875,0.5033,-45.7125,-1.0312,11.1,,adl
10.944527,2.4327,0.8837,-0.2495,0.3956,2.6921,-0.0967,-45.7125,-1.0312,11.1,,adl
10.946231,2.5591,0.7986,-0.6773,0.3956,2.6921,-0.0967,-45.7125,-1.0312,11.1,,adl
10.964738,2.5903,0.7375,-0.903,0.3956,2.6921,-0.0967,-45.7125,-1.0312,11.1,,adl
10.970989,2.5903,0.7375,-0.903,0.3956,2.6921,-0.0967,-46.0312,-0.075,1.4625,,adl
10.975107,2.5903,0.7375,-0.903,0.3956,2.6921,-0.0967,-46.0312,-0.075,1.4625,,adl
10.98301,2.5119,0.594,-1.0691,0.3956,2.6921,-0.0967,-46.0312,-0.075,1.4625,,adl
11.002873,2.2578,0.4169,-1.0636,0.3956,2.6921,-0.0967,-46.0312,-0.075,1.4625,,adl
11.008462,2.2578,0.4169,-1.0636,-0.2153,2.4405,-0.6721,-46.0312,-0.075,1.4625,,adl
11.021228,2.2578,0.4169,-1.0636,-0.2153,2.4405,-0.6721,-46.0312,-0.075,1.4625,,adl
11.024657,1.8327,0.2898,-0.7344,-0.2153,2.4405,-0.6721,-46.0312,-0.075,1.4625,,adl
11.031459,1.8327,0.2898,-0.7344,-0.2153,2.4405,-0.6721,-46.35,-2.2875,-4.6875,,adl
11.041486,1.397,0.1234,-0.5896,-0.2153,2.4405,-0.6721,-46.35,-2.2875,-4.6875,,adl
11.060509,0.7624,0.0677,-0.2132,-0.2153,2.4405,-0.6721,-46.35,-2.2875,-4.6875,,adl
11.068663,0.7624,0.0677,-0.2132,-0.2153,2.4405,-0.6721,-46.35,-2.2875,-4.6875,,adl
11.069488,0.7624,0.0677,-0.2132,-0.4939,2.4588,-0.7307,-46.35,-2.2875,-4.6875,,adl
11.079012,0.3895,0.0118,0.0104,-0.4939,2.4588,-0.7307,-46.35,-2.2875,-4.6875,,adl
11.091632,0.3895,0.0118,0.0104,-0.4939,2.4588,-0.7307,-45.3375,-3.825,-11.2688,,adl
11.097373,-0.0289,-0.1953,0.229,-0.4939,2.4588,-0.7307,-45.3375,-3.825,-11.2688,,adl
11.116523,-0.0289,-0.1953,0.229,-0.4939,2.4588,-0.7307,-45.3375,-3.825,-11.2688,,adl
11.117977,-0.5702,-0.3788,0.7672,-0.4939,2.4588,-0.7307,-45.3375,-3.825,-11.2688,,adl
11.131323,-0.5702,-0.3788,0.7672,-0.3766,2.537,0.0952,-45.3375,-3.825,-11.2688,,adl
11.136085,-1.1438,-0.907,1.1471,-0.3766,2.537,0.0952,-45.3375,-3.825,-11.2688,,adl
11.151987,-1.1438,-0.907,1.1471,-0.3766,2.537,0.0952,-42.2438,-3.45,-19.5563,,adl
11.155813,-1.138,-1.3164,1.7042,-0.3766,2.537,0.0952,-42.2438,-3.45,-19.5563,,adl
11.164748,-1.138,-1.3164,1.7042,-0.3766,2.537,0.0952,-42.2438,-3.45,-19.5563,,adl
11.176598,-1.0647,-1.8398,2.1856,-0.3766,2.537,0.0952,-42.2438,-3.45,-19.5563,,adl
11.193342,-1.0647,-1.8398,2.1856,0.1891,1.8576,1.7262,-42.2438,-3.45,-19.5563,,adl
11.197095,0.3204,-2.1628,2.7833,0.1891,1.8576,1.7262,-42.2438,-3.45,-19.5563,,adl
11.210899,0.3204,-2.1628,2.7833,0.1891,1.8576,1.7262,-39.7125,0.1313,-24.3938,,adl
11.212583,0.3204,-2.1628,2.7833,0.1891,1.8576,1.7262,-39.7125,0.1313,-24.3938,,adl
11.213308,2.1533,-2.3727,2.536,0.1891,1.8576,1.7262,-39.7125,0.1313,-24.3938,,adl
11.232334,3.461,-2.1483,1.6253,0.1891,1.8576,1.7262,-39.7125,0.1313,-24.3938,,adl
11.251393,4.4287,-1.6968,0.5774,0.1891,1.8576,1.7262,-39.7125,0.1313,-24.3938,,adl
11.255442,4.4287,-1.6968,0.5774,0.6864,0.333,1.6981,-39.7125,0.1313,-24.3938,,adl
11.260176,4.4287,-1.6968,0.5774,0.6864,0.333,1.6981,-39.7125,0.1313,-24.3938,,adl
11.269205,5.0581,-1.0212,-0.0847,0.6864,0.333,1.6981,-39.7125,0.1313,-24.3938,,adl
11.270683,5.0581,-1.0212,-0.0847,0.6864,0.333,1.6981,-37.3875,3.2625,-26.8313,,adl
11.289758,5.8301,-0.3081,-0.0588,0.6864,0.333,1.6981,-37.3875,3.2625,-26.8313,,adl
11.308477,5.8301,-0.3081,-0.0588,0.6864,0.333,1.6981,-37.3875,3.2625,-26.8313,,adl
11.311201,6.9313,0.2476,-0.0045,0.6864,0.333,1.6981,-37.3875,3.2625,-26.8313,,adl
11.317158,6.9313,0.2476,-0.0045,0.5434,0.6519,0.5985,-37.3875,3.2625,-26.8313,,adl
11.328175,7.8432,0.5303,-0.2502,0.5434,0.6519,0.5985,-37.3875,3.2625,-26.8313,,adl
11.331398,7.8432,0.5303,-0.2502,0.5434,0.6519,0.5985,-36.1875,5.1,-28.4063,,adl
11.346061,8.4023,0.5506,-0.577,0.5434,0.6519,0.5985,-36.1875,5.1,-28.4063,,adl
11.355307,8.4023,0.5506,-0.577,0.5434,0.6519,0.5985,-36.1875,5.1,-28.4063,,adl
11.367121,8.0699,0.3206,-1.4404,0.5434,0.6519,0.5985,-36.1875,5.1,-28.4063,,adl
11.379915,8.0699,0.3206,-1.4404,0.6252,1.9554,-1.6092,-36.1875,5.1,-28.4063,,adl
11.385186,7.1774,-0.205,-2.4524,0.6252,1.9554,-1.6092,-36.1875,5.1,-28.4063,,adl
11.391034,7.1774,-0.205,-2.4524,0.6252,1.9554,-1.6092,-33.6,2.4938,-31.1063,,adl
11.403489,7.1774,-0.205,-2.4524,0.6252,1.9554,-1.6092,-33.6,2.4938,-31.1063,,adl
11.404833,5.8612,-0.6935,-3.0784,0.6252,1.9554,-1.6092,-33.6,2.4938,-31.1063,,adl
11.423464,4.6115,-1.0228,-2.824,0.6252,1.9554,-1.6092,-33.6,2.4938,-31.1063,,adl
11.441968,4.6115,-1.0228,-2.824,-0.0968,2.1447,-2.644,-33.6,2.4938,-31.1063,,adl
11.445426,3.6225,-1.3446,-2.1775,-0.0968,2.1447,-2.644,-33.6,2.4938,-31.1063,,adl
11.455029,3.6225,-1.3446,-2.1775,-0.0968,2.1447,-2.644,-33.6,2.4938,-31.1063,,adl
11.45644,3.6225,-1.3446,-2.1775,-0.0968,2.1447,-2.644,-28.4438,-2.625,-37.725,,adl
11.462209,2.9996,-1.5558,-1.2626,-0.0968,2.1447,-2.644,-28.4438,-2.625,-37.725,,adl
11.480888,2.8457,-1.7253,-0.414,-0.0968,2.1447,-2.644,-28.4438,-2.625,-37.725,,adl
11.499707,2.8457,-1.7253,-0.414,-0.0968,2.1447,-2.644,-28.4438,-2.625,-37.725,,adl
11.502712,2.5164,-1.8727,-0.473,-0.0968,2.1447,-2.644,-28.4438,-2.625,-37.725,,adl
11.50541,2.5164,-1.8727,-0.473,-0.2201,-0.1691,-3.1107,-28.4438,-2.625,-37.725,,adl
11.510396,2.5164,-1.8727,-0.473,-0.2201,-0.1691,-3.1107,-28.3688,-7.1625,-36.525,,adl
11.519813,2.1173,-2.1792,-0.7374,-0.2201,-0.1691,-3.1107,-28.3688,-7.1625,-36.525,,adl
11.537829,1.3163,-2.4724,-0.8914,-0.2201,-0.1691,-3.1107,-28.3688,-7.1625,-36.525,,adl
11.546964,1.3163,-2.4724,-0.8914,-0.2201,-0.1691,-3.1107,-28.3688,-7.1625,-36.525,,adl
11.556385,0.9249,-2.7515,-0.7025,-0.2201,-0.1691,-3.1107,-28.3688,-7.1625,-36.525,,adl
11.565871,0.9249,-2.7515,-0.7025,-0.8213,-1.1245,-3.5931,-28.3688,-7.1625,-36.525,,adl
11.571796,0.9249,-2.7515,-0.7025,-0.8213,-1.1245,-3.5931,-29.9438,-11.3813,-36.3,,adl
11.576093,0.4603,-3.3053,-0.538,-0.8213,-1.1245,-3.5931,-29.9438,-11.3813,-36.3,,adl
11.595166,0.4603,-3.3053,-0.538,-0.8213,-1.1245,-3.5931,-29.9438,-11.3813,-36.3,,adl
11.596583,-0.8356,-3.7341,-0.7628,-0.8213,-1.1245,-3.5931,-29.9438,-11.3813,-36.3,,adl
11.614867,-2.2463,-4.3389,-0.532,-0.8213,-1.1245,-3.5931,-29.9438,-11.3813,-36.3,,adl
11.627869,-2.2463,-4.3389,-0.532,-1.4712,0.6531,-3.1668,-29.9438,-11.3813,-36.3,,adl
11.630936,-2.2463,-4.3389,-0.532,-1.4712,0.6531,-3.1668,-28.8938,-15.45,-36.7688,,adl
11.632609,-4.0144,-4.2338,0.3528,-1.4712,0.6531,-3.1668,-28.8938,-15.45,-36.7688,,adl
11.642905,-4.0144,-4.2338,0.3528,-1.4712,0.6531,-3.1668,-28.8938,-15.45,-36.7688,,adl
11.652883,-5.2694,-3.5272,1.5225,-1.4712,0.6531,-3.1668,-28.8938,-15.45,-36.7688,,adl
11.672416,-5.3964,-2.9007,2.1394,-1.4712,0.6531,-3.1668,-28.8938,-15.45,-36.7688,,adl
11.690214,-5.3964,-2.9007,2.1394,-1.4712,0.6531,-3.1668,-28.8938,-15.45,-36.7688,,adl
11.693318,-5.3964,-2.9007,2.1394,-0.4742,1.5265,-1.7045,-28.8938,-15.45,-36.7688,,adl
11.695922,-5.0088,-2.5458,2.0539,-0.4742,1.5265,-1.7045,-28.8938,-15.45,-36.7688,,adl
11.696522,-5.0088,-2.5458,2.0539,-0.4742,1.5265,-1.7045,-24.7313,-12.375,-38.0063,,adl
11.710746,-4.5201,-2.2058,1.3481,-0.4742,1.5265,-1.7045,-24.7313,-12.375,-38.0063,,adl
11.730464,-4.0838,-2.0431,0.3753,-0.4742,1.5265,-1.7045,-24.7313,-12.375,-38.0063,,adl
11.738227,-4.0838,-2.0431,0.3753,-0.4742,1.5265,-1.7045,-24.7313,-12.375,-38.0063,,adl
11.748641,-3.655,-2.0349,-0.3347,-0.4742,1.5265,-1.7045,-24.7313,-12.375,-38.0063,,adl
11.750464,-3.655,-2.0349,-0.3347,-0.4742,1.5265,-1.7045,-21.9188,-14.2313,-38.3063,,adl
11.751642,-3.655,-2.0349,-0.3347,0.5226,0.052,-1.0923,-21.9188,-14.2313,-38.3063,,adl
11.767802,-3.7869,-1.971,-1.0652,0.5226,0.052,-1.0923,-21.9188,-14.2313,-38.3063,,adl
11.786753,-3.7869,-1.971,-1.0652,0.5226,0.052,-1.0923,-21.9188,-14.2313,-38.3063,,adl
11.790009,-4.0174,-1.7628,-1.6406,0.5226,0.052,-1.0923,-21.9188,-14.2313,-38.3063,,adl
11.806068,-3.9905,-1.7219,-2.0422,0.5226,0.052,-1.0923,-21.9188,-14.2313,-38.3063,,adl
11.81101,-3.9905,-1.7219,-2.0422,0.5226,0.052,-1.0923,-22.5,-17.2125,-36.0188,,adl
11.814736,-3.9905,-1.7219,-2.0422,0.3149,-0.7628,-0.44,-22.5,-17.2125,-36.0188,,adl
11.824873,-3.8475,-1.6053,-2.1931,0.3149,-0.7628,-0.44,-22.5,-17.2125,-36.0188,,adl
11.833356,-3.8475,-1.6053,-2.1931,0.3149,-0.7628,-0.44,-22.5,-17.2125,-36.0188,,adl
11.844558,-3.6033,-1.7377,-2.0763,0.3149,-0.7628,-0.44,-22.5,-17.2125,-36.0188,,adl
11.863817,-3.4689,-1.9892,-1.7262,0.3149,-0.7628,-0.44,-22.5,-17.2125,-36.0188,,adl
11.870852,-3.4689,-1.9892,-1.7262,0.3149,-0.7628,-0.44,-23.5875,-17.4563,-34.7438,,adl
11.877363,-3.4689,-1.9892,-1.7262,-0.4669,-0.5149,0.2454,-23.5875,-17.4563,-34.7438,,adl
11.881337,-3.4689,-1.9892,-1.7262,-0.4669,-0.5149,0.2454,-23.5875,-17.4563,-34.7438,,adl
11.88374,-3.2943,-2.1796,-1.1035,-0.4669,-0.5149,0.2454,-23.5875,-17.4563,-34.7438,,adl
11.901749,-2.9634,-2.1779,-0.4506,-0.4669,-0.5149,0.2454,-23.5875,-17.4563,-34.7438,,adl
11.92029,-2.2931,-2.3317,0.0149,-0.4669,-0.5149,0.2454,-23.5875,-17.4563,-34.7438,,adl
11.930131,-2.2931,-2.3317,0.0149,-0.4669,-0.5149,0.2454,-23.5875,-17.4563,-34.7438,,adl
11.932603,-2.2931,-2.3317,0.0149,-0.4669,-0.5149,0.2454,-23.3813,-14.8688,-36.9188,,adl
11.938916,-2.2931,-2.3317,0.0149,-0.7382,-0.1129,0.6731,-23.3813,-14.8688,-36.9188,,adl
11.940327,-1.3712,-3.1509,0.1261,-0.7382,-0.1129,0.6731,-23.3813,-14.8688,-36.9188,,adl
11.95865,-1.7848,-2.8543,0.1148,-0.7382,-0.1129,0.6731,-23.3813,-14.8688,-36.9188,,adl
11.977592,-1.7848,-2.8543,0.1148,-0.7382,-0.1129,0.6731,-23.3813,-14.8688,-36.9188,,adl
11.980723,-1.5392,-2.8235,0.4388,-0.7382,-0.1129,0.6731,-23.3813,-14.8688,-36.9188,,adl
11.991327,-1.5392,-2.8235,0.4388,-0.7382,-0.1129,0.6731,-25.95,-11.6625,-36.0938,,adl
11.999304,-1.43,-2.5262,0.7589,-0.7382,-0.1129,0.6731,-25.95,-11.6625,-36.0938,,adl
12.000882,-1.43,-2.5262,0.7589,-0.8896,-0.0066,0.9675,-25.95,-11.6625,-36.0938,,adl
12.016409,-1.3993,-1.9643,1.2368,-0.8896,-0.0066,0.9675,-25.95,-11.6625,-36.0938,,adl
12.024978,-1.3993,-1.9643,1.2368,-0.8896,-0.0066,0.9675,-25.95,-11.6625,-36.0938,,adl
12.036895,-1.1219,-1.4279,1.6575,-0.8896,-0.0066,0.9675,-25.95,-11.6625,-36.0938,,adl
12.050804,-1.1219,-1.4279,1.6575,-0.8896,-0.0066,0.9675,-26.6813,-8.0438,-36.675,,adl
12.054294,-0.8844,-0.9105,1.7665,-0.8896,-0.0066,0.9675,-26.6813,-8.0438,-36.675,,adl
12.066396,-0.8844,-0.9105,1.7665,-0.5207,-0.2962,1.3168,-26.6813,-8.0438,-36.675,,adl
12.07286,-0.8844,-0.9105,1.7665,-0.5207,-0.2962,1.3168,-26.6813,-8.0438,-36.675,,adl
12.073689,-0.9012,-0.4412,1.6433,-0.5207,-0.2962,1.3168,-26.6813,-8.0438,-36.675,,adl
12.092715,-0.8223,0.181,1.8277,-0.5207,-0.2962,1.3168,-26.6813,-8.0438,-36.675,,adl
12.111009,-0.8223,0.181,1.8277,-0.5207,-0.2962,1.3168,-28.9688,-4.65,-37.4062,,adl
12.115029,-0.136,0.4036,1.8754,-0.5207,-0.2962,1.3168,-28.9688,-4.65,-37.4062,,adl
12.122217,-0.136,0.4036,1.8754,-0.5207,-0.2962,1.3168,-28.9688,-4.65,-37.4062,,adl
12.125105,-0.136,0.4036,1.8754,0.051,-0.1288,1.4866,-28.9688,-4.65,-37.4062,,adl
12.131609,0.6141,0.4268,1.7397,0.051,-0.1288,1.4866,-28.9688,-4.65,-37.4062,,adl
12.151281,1.2014,0.1804,1.4601,0.051,-0.1288,1.4866,-28.9688,-4.65,-37.4062,,adl
12.168428,1.2014,0.1804,1.4601,0.051,-0.1288,1.4866,-28.9688,-4.65,-37.4062,,adl
12.171575,1.6091,-0.237,1.0697,0.051,-0.1288,1.4866,-28.9688,-4.65,-37.4062,,adl
12.173167,1.6091,-0.237,1.0697,0.051,-0.1288,1.4866,-30.3938,-3.2063,-35.9062,,adl
12.187122,1.6091,-0.237,1.0697,0.646,-0.0921,1.0102,-30.3938,-3.2063,-35.9062,,adl
12.188619,1.6664,-0.5836,0.267,0.646,-0.0921,1.0102,-30.3938,-3.2063,-35.9062,,adl
12.206453,1.4531,-0.7081,-0.4004,0.646,-0.0921,1.0102,-30.3938,-3.2063,-35.9062,,adl
12.216683,1.4531,-0.7081,-0.4004,0.646,-0.0921,1.0102,-30.3938,-3.2063,-35.9062,,adl
12.227173,1.2075,-0.5561,-0.8267,0.646,-0.0921,1.0102,-30.3938,-3.2063,-35.9062,,adl
12.231767,1.2075,-0.5561,-0.8267,0.646,-0.0921,1.0102,-30.0375,-2.7938,-34.6688,,adl
12.245764,1.3016,-0.1663,-0.8667,0.646,-0.0921,1.0102,-30.0375,-2.7938,-34.6688,,adl
12.248517,1.3016,-0.1663,-0.8667,0.4176,0.6249,1.1055,-30.0375,-2.7938,-34.6688,,adl
12.264346,1.3016,-0.1663,-0.8667,0.4176,0.6249,1.1055,-30.0375,-2.7938,-34.6688,,adl
12.267586,1.7367,0.1945,-0.6559,0.4176,0.6249,1.1055,-30.0375,-2.7938,-34.6688,,adl
12.284873,2.1567,0.5817,-0.622,0.4176,0.6249,1.1055,-30.0375,-2.7938,-34.6688,,adl
12.290827,2.1567,0.5817,-0.622,0.4176,0.6249,1.1055,-27.7313,-1.9125,-35.8688,,adl
12.303368,2.4705,0.7176,-0.7886,0.4176,0.6249,1.1055,-27.7313,-1.9125,-35.8688,,adl
12.312173,2.4705,0.7176,-0.7886,0.4176,0.6249,1.1055,-27.7313,-1.9125,-35.8688,,adl
12.315223,2.4705,0.7176,-0.7886,0.4261,1.0843,0.8392,-27.7313,-1.9125,-35.8688,,adl
12.321657,2.4579,0.9439,-0.9899,0.4261,1.0843,0.8392,-27.7313,-1.9125,-35.8688,,adl
12.341225,2.3904,0.9615,-1.3218,0.4261,1.0843,0.8392,-27.7313,-1.9125,-35.8688,,adl
12.35165,2.3904,0.9615,-1.3218,0.4261,1.0843,0.8392,-25.1063,-1.3125,-37.3875,,adl
12.359536,2.3904,0.9615,-1.3218,0.4261,1.0843,0.8392,-25.1063,-1.3125,-37.3875,,adl
12.36222,2.3072,0.8255,-1.8065,0.4261,1.0843,0.8392,-25.1063,-1.3125,-37.3875,,adl
12.373908,2.3072,0.8255,-1.8065,0.3943,1.2224,0.3798,-25.1063,-1.3125,-37.3875,,adl
12.379623,2.1808,0.6927,-2.1599,0.3943,1.2224,0.3798,-25.1063,-1.3125,-37.3875,,adl
12.400358,2.1622,0.6041,-2.3034,0.3943,1.2224,0.3798,-25.1063,-1.3125,-37.3875,,adl
12.409805,2.1622,0.6041,-2.3034,0.3943,1.2224,0.3798,-25.1063,-1.3125,-37.3875,,adl
12.413214,2.1622,0.6041,-2.3034,0.3943,1.2224,0.3798,-20.7,-1.3688,-40.3313,,adl
12.417108,2.1926,0.5153,-2.0822,0.3943,1.2224,0.3798,-20.7,-1.3688,-40.3313,,adl
12.435932,2.1926,0.5153,-2.0822,0.012,0.9963,0.2735,-20.7,-1.3688,-40.3313,,adl
12.437639,2.1658,0.4591,-1.8393,0.012,0.9963,0.2735,-20.7,-1.3688,-40.3313,,adl
12.45513,2.1658,0.4591,-1.8393,0.012,0.9963,0.2735,-20.7,-1.3688,-40.3313,,adl
12.456588,2.0619,0.5442,-1.7063,0.012,0.9963,0.2735,-20.7,-1.3688,-40.3313,,adl
12.470828,2.0619,0.5442,-1.7063,0.012,0.9963,0.2735,-20.325,-1.0125,-39.9188,,adl
12.475736,2.0845,0.5939,-1.5287,0.012,0.9963,0.2735,-20.325,-1.0125,-39.9188,,adl
12.49445,2.3262,0.5532,-1.251,0.012,0.9963,0.2735,-20.325,-1.0125,-39.9188,,adl
12.498384,2.3262,0.5532,-1.251,-0.0063,0.4539,0.425,-20.325,-1.0125,-39.9188,,adl
12.503003,2.3262,0.5532,-1.251,-0.0063,0.4539,0.425,-20.325,-1.0125,-39.9188,,adl
12.513536,2.6181,0.3948,-1.1429,-0.0063,0.4539,0.425,-20.325,-1.0125,-39.9188,,adl
12.531059,2.6181,0.3948,-1.1429,-0.0063,0.4539,0.425,-19.2563,-0.6188,-40.6688,,adl
12.535137,2.7775,0.2631,-1.1143,-0.0063,0.4539,0.425,-19.2563,-0.6188,-40.6688,,adl
12.550902,2.7775,0.2631,-1.1143,-0.0063,0.4539,0.425,-19.2563,-0.6188,-40.6688,,adl
12.552459,3.0421,0.0152,-1.2699,-0.0063,0.4539,0.425,-19.2563,-0.6188,-40.6688,,adl
12.560528,3.0421,0.0152,-1.2699,0.1317,-0.1911,0.3517,-19.2563,-0.6188,-40.6688,,adl
12.570919,3.1001,-0.0979,-1.3439,0.1317,-0.1911,0.3517,-19.2563,-0.6188,-40.6688,,adl
12.590005,3.453,-0.3243,-1.2152,0.1317,-0.1911,0.3517,-19.2563,-0.6188,-40.6688,,adl
12.591855,3.453,-0.3243,-1.2152,0.1317,-0.1911,0.3517,-19.4625,-0.6188,-40.575,,adl
12.598868,3.453,-0.3243,-1.2152,0.1317,-0.1911,0.3517,-19.4625,-0.6188,-40.575,,adl
12.611362,4.2188,-1.2539,-1.0903,0.1317,-0.1911,0.3517,-19.4625,-0.6188,-40.575,,adl
12.622895,4.2188,-1.2539,-1.0903,-0.1676,-0.8448,-0.0051,-19.4625,-0.6188,-40.575,,adl
12.628355,4.1154,-1.8582,-1.0631,-0.1676,-0.8448,-0.0051,-19.4625,-0.6188,-40.575,,adl
12.646829,4.1154,-1.8582,-1.0631,-0.1676,-0.8448,-0.0051,-19.4625,-0.6188,-40.575,,adl
12.64825,4.3896,-2.5565,-0.7322,-0.1676,-0.8448,-0.0051,-19.4625,-0.6188,-40.575,,adl
12.650858,4.3896,-2.5565,-0.7322,-0.1676,-0.8448,-0.0051,-22.0688,0.975,-39.1313,,adl
12.667818,4.445,-2.5691,0.0823,-0.1676,-0.8448,-0.0051,-22.0688,0.975,-39.1313,,adl
12.685156,4.445,-2.5691,0.0823,-0.5745,-1.0011,-0.1552,-22.0688,0.975,-39.1313,,adl
12.688951,4.1952,-1.86,1.0218,-0.5745,-1.0011,-0.1552,-22.0688,0.975,-39.1313,,adl
12.694148,4.1952,-1.86,1.0218,-0.5745,-1.0011,-0.1552,-22.0688,0.975,-39.1313,,adl
12.704387,3.7753,-0.8922,1.5514,-0.5745,-1.0011,-0.1552,-22.0688,0.975,-39.1313,,adl
12.710198,3.7753,-0.8922,1.5514,-0.5745,-1.0011,-0.1552,-25.2375,1.9688,-37.575,,adl
12.723998,3.4366,0.0063,1.7575,-0.5745,-1.0011,-0.1552,-25.2375,1.9688,-37.575,,adl
12.742037,3.4366,0.0063,1.7575,-0.5745,-1.0011,-0.1552,-25.2375,1.9688,-37.575,,adl
12.743507,2.995,0.8059,1.8908,-0.5745,-1.0011,-0.1552,-25.2375,1.9688,-37.575,,adl
12.746776,2.995,0.8059,1.8908,0.0437,-0.8178,-0.6733,-25.2375,1.9688,-37.575,,adl
12.762344,2.9409,0.7814,1.7508,0.0437,-0.8178,-0.6733,-25.2375,1.9688,-37.575,,adl
12.771296,2.9409,0.7814,1.7508,0.0437,-0.8178,-0.6733,-27.9563,1.0688,-36.0375,,adl
12.782295,2.5263,0.3557,0.8938,0.0437,-0.8178,-0.6733,-27.9563,1.0688,-36.0375,,adl
12.790378,2.5263,0.3557,0.8938,0.0437,-0.8178,-0.6733,-27.9563,1.0688,-36.0375,,adl
12.799717,2.0338,-0.4554,-0.4369,0.0437,-0.8178,-0.6733,-27.9563,1.0688,-36.0375,,adl
12.808586,2.0338,-0.4554,-0.4369,0.4346,-0.6505,-1.6972,-27.9563,1.0688,-36.0375,,adl
12.819272,1.3132,-1.308,-1.0878,0.4346,-0.6505,-1.6972,-27.9563,1.0688,-36.0375,,adl
12.831125,1.3132,-1.308,-1.0878,0.4346,-0.6505,-1.6972,-31.6125,-2.1,-35.7563,,adl
12.837899,1.3132,-1.308,-1.0878,0.4346,-0.6505,-1.6972,-31.6125,-2.1,-35.7563,,adl
12.840279,0.1851,-1.6902,-1.2502,0.4346,-0.6505,-1.6972,-31.6125,-2.1,-35.7563,,adl
12.857799,-0.7738,-1.6551,-0.9399,0.4346,-0.6505,-1.6972,-31.6125,-2.1,-35.7563,,adl
12.871297,-0.7738,-1.6551,-0.9399,-0.4609,-0.2619,-1.7485,-31.6125,-2.1,-35.7563,,adl
12.878182,-1.3238,-1.3805,-0.3345,-0.4609,-0.2619,-1.7485,-31.6125,-2.1,-35.7563,,adl
12.885541,-1.3238,-1.3805,-0.3345,-0.4609,-0.2619,-1.7485,-31.6125,-2.1,-35.7563,,adl
12.891849,-1.3238,-1.3805,-0.3345,-0.4609,-0.2619,-1.7485,-30.6188,-4.2188,-38.8125,,adl
12.895397,-1.2643,-1.2094,0.4386,-0.4609,-0.2619,-1.7485,-30.6188,-4.2188,-38.8125,,adl
12.915311,-1.1366,-1.2171,0.7024,-0.4609,-0.2619,-1.7485,-30.6188,-4.2188,-38.8125,,adl
12.933628,-1.1366,-1.2171,0.7024,-0.4609,-0.2619,-1.7485,-30.6188,-4.2188,-38.8125,,adl
12.936634,-1.1366,-1.2171,0.7024,-1.0436,-0.2131,-1.4198,-30.6188,-4.2188,-38.8125,,adl
12.939493,-0.8106,-1.3052,1.1861,-1.0436,-0.2131,-1.4198,-30.6188,-4.2188,-38.8125,,adl
12.951377,-0.8106,-1.3052,1.1861,-1.0436,-0.2131,-1.4198,-31.1813,-5.3438,-36.4125,,adl
12.953089,-0.6935,-1.3705,2.0837,-1.0436,-0.2131,-1.4198,-31.1813,-5.3438,-36.4125,,adl
12.973795,-0.8561,-1.5128,2.5959,-1.0436,-0.2131,-1.4198,-31.1813,-5.3438,-36.4125,,adl
12.981415,-0.8561,-1.5128,2.5959,-1.0436,-0.2131,-1.4198,-31.1813,-5.3438,-36.4125,,adl
12.991771,-1.1094,-1.9659,2.7731,-1.0436,-0.2131,-1.4198,-31.1813,-5.3438,-36.4125,,adl
12.995403,-1.1094,-1.9659,2.7731,-0.7626,0.0703,-1.9488,-31.1813,-5.3438,-36.4125,,adl
13.010655,-1.6327,-2.3615,2.6184,-0.7626,0.0703,-1.9488,-31.1813,-5.3438,-36.4125,,adl
13.012338,-1.6327,-2.3615,2.6184,-0.7626,0.0703,-1.9488,-31.2,-7.4625,-35.5875,,adl
13.028593,-1.6327,-2.3615,2.6184,-0.7626,0.0703,-1.9488,-31.2,-7.4625,-35.5875,,adl
13.029973,-2.2956,-2.8323,2.0808,-0.7626,0.0703,-1.9488,-31.2,-7.4625,-35.5875,,adl
13.049215,-3.0665,-3.1197,1.8353,-0.7626,0.0703,-1.9488,-31.2,-7.4625,-35.5875,,adl
13.058409,-3.0665,-3.1197,1.8353,-0.5134,0.4161,-2.2199,-31.2,-7.4625,-35.5875,,adl
13.067503,-3.7367,-3.3288,1.6378,-0.5134,0.4161,-2.2199,-31.2,-7.4625,-35.5875,,adl
13.070423,-3.7367,-3.3288,1.6378,-0.5134,0.4161,-2.2199,-29.3063,-10.5375,-36.5063,,adl
13.076191,-3.7367,-3.3288,1.6378,-0.5134,0.4161,-2.2199,-29.3063,-10.5375,-36.5063,,adl
13.086982,-4.3737,-3.494,1.4679,-0.5134,0.4161,-2.2199,-29.3063,-10.5375,-36.5063,,adl
13.106374,-5.0651,-3.5896,1.5001,-0.5134,0.4161,-2.2199,-29.3063,-10.5375,-36.5063,,adl
13.123473,-5.0651,-3.5896,1.5001,-0.5587,0.763,-1.6592,-29.3063,-10.5375,-36.5063,,adl
13.129149,-5.0651,-3.5896,1.5001,-0.5587,0.763,-1.6592,-29.3063,-10.5375,-36.5063,,adl
13.131429,-5.6433,-3.6375,1.6444,-0.5587,0.763,-1.6592,-29.3063,-10.5375,-36.5063,,adl
13.132335,-5.6433,-3.6375,1.6444,-0.5587,0.763,-1.6592,-26.6438,-13.425,-37.7438,,adl
13.14465,-6.0483,-3.442,2.01,-0.5587,0.763,-1.6592,-26.6438,-13.425,-37.7438,,adl
13.16389,-6.2258,-3.0998,2.122,-0.5587,0.763,-1.6592,-26.6438,-13.425,-37.7438,,adl
13.172438,-6.2258,-3.0998,2.122,-0.5587,0.763,-1.6592,-26.6438,-13.425,-37.7438,,adl
13.182374,-6.2258,-3.0998,2.122,-0.0113,0.4196,-0.4045,-26.6438,-13.425,-37.7438,,adl
13.186194,-6.02,-2.7868,2.1577,-0.0113,0.4196,-0.4045,-26.6438,-13.425,-37.7438,,adl
13.191884,-6.02,-2.7868,2.1577,-0.0113,0.4196,-0.4045,-24.1688,-14.3813,-38.1375,,adl
13.201533,-4.1075,-3.9949,1.3787,-0.0113,0.4196,-0.4045,-24.1688,-14.3813,-38.1375,,adl
13.220693,-4.1075,-3.9949,1.3787,-0.0113,0.4196,-0.4045,-24.1688,-14.3813,-38.1375,,adl
13.223611,-4.0163,-4.5405,-0.0305,-0.0113,0.4196,-0.4045,-24.1688,-14.3813,-38.1375,,adl
13.24057,-4.6031,-4.3883,-0.727,-0.0113,0.4196,-0.4045,-24.1688,-14.3813,-38.1375,,adl
13.244133,-4.6031,-4.3883,-0.727,0.045,0.3488,0.4311,-24.1688,-14.3813,-38.1375,,adl
13.251568,-4.6031,-4.3883,-0.727,0.045,0.3488,0.4311,-24.0375,-14.9438,-38.5688,,adl
13.259382,-5.6392,-3.0686,-0.7556,0.045,0.3488,0.4311,-24.0375,-14.9438,-38.5688,,adl
13.267342,-5.6392,-3.0686,-0.7556,0.045,0.3488,0.4311,-24.0375,-14.9438,-38.5688,,adl
13.278823,-5.193,-1.4876,0.1175,0.045,0.3488,0.4311,-24.0375,-14.9438,-38.5688,,adl
13.297977,-2.6148,-0.4407,1.2741,0.045,0.3488,0.4311,-24.0375,-14.9438,-38.5688,,adl
13.307209,-2.6148,-0.4407,1.2741,-0.2153,1.4202,2.0804,-24.0375,-14.9438,-38.5688,,adl
13.313209,-2.6148,-0.4407,1.2741,-0.2153,1.4202,2.0804,-21.9,-11.7188,-40.575,,adl
13.315405,-2.6148,-0.4407,1.2741,-0.2153,1.4202,2.0804,-21.9,-11.7188,-40.575,,adl
13.316178,-0.4782,0.6813,1.3693,-0.2153,1.4202,2.0804,-21.9,-11.7188,-40.575,,adl
13.336073,0.7218,1.4725,0.7957,-0.2153,1.4202,2.0804,-21.9,-11.7188,-40.575,,adl
13.355576,0.9056,1.1825,-0.2086,-0.2153,1.4202,2.0804,-21.9,-11.7188,-40.575,,adl
13.364047,0.9056,1.1825,-0.2086,-0.2153,1.4202,2.0804,-21.9,-11.7188,-40.575,,adl
13.369194,0.9056,1.1825,-0.2086,0.5239,0.5456,0.965,-21.9,-11.7188,-40.575,,adl
13.37274,0.9056,1.1825,-0.2086,0.5239,0.5456,0.965,-20.4,-10.2,-42.1688,,adl
13.375358,0.5478,0.3288,-1.0926,0.5239,0.5456,0.965,-20.4,-10.2,-42.1688,,adl
13.39355,0.519,-0.7655,-1.5925,0.5239,0.5456,0.965,-20.4,-10.2,-42.1688,,adl
13.411022,0.519,-0.7655,-1.5925,0.5239,0.5456,0.965,-20.4,-10.2,-42.1688,,adl
13.412388,0.1649,-1.2831,-1.8414,0.5239,0.5456,0.965,-20.4,-10.2,-42.1688,,adl
13.430435,0.1649,-1.2831,-1.8414,0.4456,-1.0244,0.9797,-20.4,-10.2,-42.1688,,adl
13.434421,-0.1051,-1.5489,-1.6239,0.4456,-1.0244,0.9797,-20.4,-10.2,-42.1688,,adl
13.436787,-0.1051,-1.5489,-1.6239,0.4456,-1.0244,0.9797,-22.5375,-10.2563,-41.6813,,adl
13.450978,0.3099,-1.2898,-1.1198,0.4456,-1.0244,0.9797,-22.5375,-10.2563,-41.6813,,adl
13.459628,0.3099,-1.2898,-1.1198,0.4456,-1.0244,0.9797,-22.5375,-10.2563,-41.6813,,adl
13.470177,1.1079,-0.9471,-0.895,0.4456,-1.0244,0.9797,-22.5375,-10.2563,-41.6813,,adl
13.489432,1.6529,-0.6812,-1.2306,0.4456,-1.0244,0.9797,-22.5375,-10.2563,-41.6813,,adl
13.493105,1.6529,-0.6812,-1.2306,0.4456,-1.0244,0.9797,-26.85,-10.3688,-39.075,,adl
13.495831,1.6529,-0.6812,-1.2306,0.69,-1.4642,1.3083,-26.85,-10.3688,-39.075,,adl
13.506981,1.6529,-0.6812,-1.2306,0.69,-1.4642,1.3083,-26.85,-10.3688,-39.075,,adl
13.508305,2.1091,-0.4524,-1.6205,0.69,-1.4642,1.3083,-26.85,-10.3688,-39.075,,adl
13.52762,2.1945,-0.1224,-1.7256,0.69,-1.4642,1.3083,-26.85,-10.3688,-39.075,,adl
13.546484,2.3088,0.1314,-1.277,0.69,-1.4642,1.3083,-26.85,-10.3688,-39.075,,adl
13.551585,2.3088,0.1314,-1.277,0.69,-1.4642,1.3083,-30.3188,-10.0688,-35.7375,,adl
13.554759,2.3088,0.1314,-1.277,0.69,-1.4642,1.3083,-30.3188,-10.0688,-35.7375,,adl
13.556027,2.3088,0.1314,-1.277,0.5837,-0.8473,1.081,-30.3188,-10.0688,-35.7375,,adl
13.565785,2.3086,0.3819,-0.9681,0.5837,-0.8473,1.081,-30.3188,-10.0688,-35.7375,,adl
13.585097,2.3725,0.3777,-1.1324,0.5837,-0.8473,1.081,-30.3188,-10.0688,-35.7375,,adl
13.602741,2.3725,0.3777,-1.1324,0.5837,-0.8473,1.081,-30.3188,-10.0688,-35.7375,,adl
13.604291,2.3521,0.396,-1.5007,0.5837,-0.8473,1.081,-30.3188,-10.0688,-35.7375,,adl
13.610219,2.3521,0.396,-1.5007,0.5837,-0.8473,1.081,-32.6625,-10.3313,-33.1875,,adl
13.61718,2.3521,0.396,-1.5007,0.7095,-0.9718,0.7121,-32.6625,-10.3313,-33.1875,,adl
13.623315,2.3864,0.276,-1.8422,0.7095,-0.9718,0.7121,-32.6625,-10.3313,-33.1875,,adl
13.641965,2.2948,0.2321,-2.0918,0.7095,-0.9718,0.7121,-32.6625,-10.3313,-33.1875,,adl
13.651079,2.2948,0.2321,-2.0918,0.7095,-0.9718,0.7121,-32.6625,-10.3313,-33.1875,,adl
13.660965,2.0436,0.4839,-1.9741,0.7095,-0.9718,0.7121,-32.6625,-10.3313,-33.1875,,adl
13.671512,2.0436,0.4839,-1.9741,0.7095,-0.9718,0.7121,-34.7438,-10.2,-31.05,,adl
13.678331,2.0436,0.4839,-1.9741,0.2513,-0.7751,0.4348,-34.7438,-10.2,-31.05,,adl
13.680185,1.7576,0.7545,-1.7711,0.2513,-0.7751,0.4348,-34.7438,-10.2,-31.05,,adl
13.698871,1.7576,0.7545,-1.7711,0.2513,-0.7751,0.4348,-34.7438,-10.2,-31.05,,adl
13.700826,1.6112,0.9631,-1.3524,0.2513,-0.7751,0.4348,-34.7438,-10.2,-31.05,,adl
13.718742,1.4367,1.1755,-0.7859,0.2513,-0.7751,0.4348,-34.7438,-10.2,-31.05,,adl
13.73446,1.4367,1.1755,-0.7859,0.2513,-0.7751,0.4348,-36.5063,-10.35,-28.9125,,adl
13.738314,1.429,1.3225,-0.3522,0.2513,-0.7751,0.4348,-36.5063,-10.35,-28.9125,,adl
13.74248,1.429,1.3225,-0.3522,0.1023,-0.6127,0.315,-36.5063,-10.35,-28.9125,,adl
13.745482,1.429,1.3225,-0.3522,0.1023,-0.6127,0.315,-36.5063,-10.35,-28.9125,,adl
13.756503,1.3445,1.287,-0.4372,0.1023,-0.6127,0.315,-36.5063,-10.35,-28.9125,,adl
13.775999,1.2226,1.0445,-0.7289,0.1023,-0.6127,0.315,-36.5063,-10.35,-28.9125,,adl
13.792,1.2226,1.0445,-0.7289,0.1023,-0.6127,0.315,-38.0063,-9.9938,-27.7313,,adl
13.795734,1.2226,1.0445,-0.7289,0.1023,-0.6127,0.315,-38.0063,-9.9938,-27.7313,,adl
13.797771,1.1535,0.7545,-0.6903,0.1023,-0.6127,0.315,-38.0063,-9.9938,-27.7313,,adl
