time,ax,ay,az,wx,wy,wz,Bx,By,Bz,Unnamed: 10,label
0.01912,0.0,0.0,0.0,0.0,0.0,0.0,0.0,0.0,0.0,,adl
0.024161,0.094,0.036,-0.6847,0.0,0.0,0.0,0.0,0.0,0.0,,adl
0.043333,0.1871,0.0801,-0.7365,0.0,0.0,0.0,0.0,0.0,0.0,,adl
0.051924,0.1871,0.0801,-0.7365,0.0,0.0,0.0,-30.8438,-30.9938,-2.7,,adl
0.062269,0.1871,0.0801,-0.7365,-0.0661,0.1567,0.0125,-30.8438,-30.9938,-2.7,,adl
0.063465,-0.0118,0.0733,0.0159,-0.0661,0.1567,0.0125,-30.8438,-30.9938,-2.7,,adl
0.067016,-0.0118,0.0733,0.0159,-0.0661,0.1567,0.0125,-30.8438,-30.9938,-2.7,,adl
0.082963,-0.048,-0.1144,0.4004,-0.0661,0.1567,0.0125,-30.8438,-30.9938,-2.7,,adl
0.101601,-0.0705,0.0155,0.241,-0.0661,0.1567,0.0125,-30.8438,-30.9938,-2.7,,adl
0.111806,-0.0705,0.0155,0.241,-0.0661,0.1567,0.0125,-30.75,-30.8813,-3.0188,,adl
0.114173,-0.0705,0.0155,0.241,-0.0661,0.1567,0.0125,-30.75,-30.8813,-3.0188,,adl
0.119972,-0.0302,0.0197,-0.0545,-0.0661,0.1567,0.0125,-30.75,-30.8813,-3.0188,,adl
0.123492,-0.0302,0.0197,-0.0545,0.0071,-0.0351,-0.0022,-30.75,-30.8813,-3.0188,,adl
0.139182,0.0416,-0.011,-0.0051,0.0071,-0.0351,-0.0022,-30.75,-30.8813,-3.0188,,adl
0.158916,0.0026,0.0039,0.0079,0.0071,-0.0351,-0.0022,-30.75,-30.8813,-3.0188,,adl
0.162987,0.0026,0.0039,0.0079,0.0071,-0.0351,-0.0022,-30.75,-30.8813,-3.0188,,adl
0.174219,0.0026,0.0039,0.0079,0.0071,-0.0351,-0.0022,-30.4688,-30.7125,-2.6063,,adl
0.180987,0.0208,0.0138,-0.1296,0.0071,-0.0351,-0.0022,-30.4688,-30.7125,-2.6063,,adl
0.186202,0.0208,0.0138,-0.1296,0.0084,0.0004,0.0015,-30.4688,-30.7125,-2.6063,,adl
0.197041,0.0178,0.0534,-0.1104,0.0084,0.0004,0.0015,-30.4688,-30.7125,-2.6063,,adl
0.211591,0.0178,0.0534,-0.1104,0.0084,0.0004,0.0015,-30.4688,-30.7125,-2.6063,,adl
0.216117,0.0149,-0.023,0.0819,0.0084,0.0004,0.0015,-30.4688,-30.7125,-2.6063,,adl
0.234252,0.0149,-0.023,0.0819,0.0084,0.0004,0.0015,-30.8813,-30.3188,-2.4938,,adl
0.237151,-0.0578,-0.0423,0.1354,0.0084,0.0004,0.0015,-30.8813,-30.3188,-2.4938,,adl
0.248242,-0.0578,-0.0423,0.1354,0.0059,-0.0131,-0.001,-30.8813,-30.3188,-2.4938,,adl
0.25948,-0.0295,-0.0048,0.0756,0.0059,-0.0131,-0.001,-30.8813,-30.3188,-2.4938,,adl
0.260606,-0.0295,-0.0048,0.0756,0.0059,-0.0131,-0.001,-30.8813,-30.3188,-2.4938,,adl
0.273863,0.0281,-0.0082,-0.0213,0.0059,-0.0131,-0.001,-30.8813,-30.3188,-2.4938,,adl
0.29296,0.0035,0.0104,-0.0253,0.0059,-0.0131,-0.001,-30.8813,-30.3188,-2.4938,,adl
0.295984,0.0035,0.0104,-0.0253,0.0059,-0.0131,-0.001,-31.1438,-30.7875,-2.7938,,adl
0.305936,0.0035,0.0104,-0.0253,0.0059,-0.0131,-0.001,-31.1438,-30.7875,-2.7938,,adl
0.310624,0.0035,0.0104,-0.0253,-0.0001,0.0052,0.0015,-31.1438,-30.7875,-2.7938,,adl
0.311477,0.0102,0.0222,-0.0444,-0.0001,0.0052,0.0015,-31.1438,-30.7875,-2.7938,,adl
0.330867,0.0187,0.0221,-0.016,-0.0001,0.0052,0.0015,-31.1438,-30.7875,-2.7938,,adl
0.350267,0.012,0.0013,0.0527,-0.0001,0.0052,0.0015,-31.1438,-30.7875,-2.7938,,adl
0.353492,0.012,0.0013,0.0527,-0.0001,0.0052,0.0015,-30.675,-30.4125,-2.6063,,adl
0.355653,0.012,0.0013,0.0527,-0.0001,0.0052,0.0015,-30.675,-30.4125,-2.6063,,adl
0.36945,0.0022,-0.0315,0.0761,-0.0001,0.0052,0.0015,-30.675,-30.4125,-2.6063,,adl
0.373514,0.0022,-0.0315,0.0761,0.001,0.0016,0.0015,-30.675,-30.4125,-2.6063,,adl
0.389386,-0.0131,-0.0082,0.0523,0.001,0.0016,0.0015,-30.675,-30.4125,-2.6063,,adl
0.401871,-0.0131,-0.0082,0.0523,0.001,0.0016,0.0015,-30.675,-30.4125,-2.6063,,adl
0.406987,-0.0275,0.0123,-0.0142,0.001,0.0016,0.0015,-30.675,-30.4125,-2.6063,,adl
0.415204,-0.0275,0.0123,-0.0142,0.001,0.0016,0.0015,-31.2563,-30.6,-2.5875,,adl
0.426467,0.0164,0.0072,-0.0353,0.001,0.0016,0.0015,-31.2563,-30.6,-2.5875,,adl
0.434623,0.0164,0.0072,-0.0353,-0.0038,0.004,0.0003,-31.2563,-30.6,-2.5875,,adl
0.445878,0.0071,-0.0206,0.0079,-0.0038,0.004,0.0003,-31.2563,-30.6,-2.5875,,adl
0.450095,0.0071,-0.0206,0.0079,-0.0038,0.004,0.0003,-31.2563,-30.6,-2.5875,,adl
0.465101,-0.0157,0.0018,0.0484,-0.0038,0.004,0.0003,-31.2563,-30.6,-2.5875,,adl
0.472561,-0.0157,0.0018,0.0484,-0.0038,0.004,0.0003,-31.0688,-30.5813,-2.7938,,adl
0.484992,0.0057,0.0043,0.0436,-0.0038,0.004,0.0003,-31.0688,-30.5813,-2.7938,,adl
0.497282,0.0057,0.0043,0.0436,-0.0038,0.004,0.0003,-31.0688,-30.5813,-2.7938,,adl
0.498001,0.0057,0.0043,0.0436,-0.0001,-0.0045,0.0003,-31.0688,-30.5813,-2.7938,,adl
0.502501,0.007,-0.0028,0.0248,-0.0001,-0.0045,0.0003,-31.0688,-30.5813,-2.7938,,adl
0.522849,-0.0129,-0.0121,0.0299,-0.0001,-0.0045,0.0003,-31.0688,-30.5813,-2.7938,,adl
0.536009,-0.0129,-0.0121,0.0299,-0.0001,-0.0045,0.0003,-30.6563,-30.7875,-2.8125,,adl
0.541034,-0.0136,0.0093,0.0133,-0.0001,-0.0045,0.0003,-30.6563,-30.7875,-2.8125,,adl
0.54489,-0.0136,0.0093,0.0133,-0.0001,-0.0045,0.0003,-30.6563,-30.7875,-2.8125,,adl
0.560088,-0.0136,0.0093,0.0133,-0.0014,0.0029,0.0027,-30.6563,-30.7875,-2.8125,,adl
0.562843,0.0101,-0.01,-0.0106,-0.0014,0.0029,0.0027,-30.6563,-30.7875,-2.8125,,adl
0.579493,-0.0129,-0.0093,0.0252,-0.0014,0.0029,0.0027,-30.6563,-30.7875,-2.8125,,adl
0.592571,-0.0129,-0.0093,0.0252,-0.0014,0.0029,0.0027,-30.8625,-30.6188,-2.3813,,adl
0.595565,-0.0129,-0.0093,0.0252,-0.0014,0.0029,0.0027,-30.8625,-30.6188,-2.3813,,adl
0.598129,-0.009,0.0034,0.0416,-0.0014,0.0029,0.0027,-30.8625,-30.6188,-2.3813,,adl
0.618035,-0.0226,-0.0222,0.0343,-0.0014,0.0029,0.0027,-30.8625,-30.6188,-2.3813,,adl
0.623209,-0.0226,-0.0222,0.0343,-0.0014,0.0029,0.0015,-30.8625,-30.6188,-2.3813,,adl
0.636589,-0.0271,-0.0167,0.0223,-0.0014,0.0029,0.0015,-30.8625,-30.6188,-2.3813,,adl
0.641537,-0.0271,-0.0167,0.0223,-0.0014,0.0029,0.0015,-30.8625,-30.6188,-2.3813,,adl
0.652212,-0.0271,-0.0167,0.0223,-0.0014,0.0029,0.0015,-31.35,-30.6,-2.475,,adl
0.657094,-0.0081,-0.0325,0.0584,-0.0014,0.0029,0.0015,-31.35,-30.6,-2.475,,adl
0.676031,-0.0551,0.0245,0.054,-0.0014,0.0029,0.0015,-31.35,-30.6,-2.475,,adl
0.684421,-0.0551,0.0245,0.054,-0.0001,-0.0155,-0.0047,-31.35,-30.6,-2.475,,adl
0.689744,-0.0551,0.0245,0.054,-0.0001,-0.0155,-0.0047,-31.35,-30.6,-2.475,,adl
0.694133,-0.018,0.0307,0.043,-0.0001,-0.0155,-0.0047,-31.35,-30.6,-2.475,,adl
0.712617,-0.018,0.0307,0.043,-0.0001,-0.0155,-0.0047,-30.7688,-30.7125,-2.6063,,adl
0.714985,-0.0128,0.0062,0.0394,-0.0001,-0.0155,-0.0047,-30.7688,-30.7125,-2.6063,,adl
0.733197,0.0115,-0.0137,0.0071,-0.0001,-0.0155,-0.0047,-30.7688,-30.7125,-2.6063,,adl
0.736006,0.0115,-0.0137,0.0071,-0.0001,-0.0155,-0.0047,-30.7688,-30.7125,-2.6063,,adl
0.745623,0.0115,-0.0137,0.0071,0.0022,-0.0143,-0.0034,-30.7688,-30.7125,-2.6063,,adl
0.751589,-0.0167,-0.0095,-0.0276,0.0022,-0.0143,-0.0034,-30.7688,-30.7125,-2.6063,,adl
0.771157,0.0098,-0.019,0.0018,0.0022,-0.0143,-0.0034,-30.7688,-30.7125,-2.6063,,adl
0.774079,0.0098,-0.019,0.0018,0.0022,-0.0143,-0.0034,-30.675,-30.6,-2.6063,,adl
0.784698,0.0098,-0.019,0.0018,0.0022,-0.0143,-0.0034,-30.675,-30.6,-2.6063,,adl
0.790849,-0.0169,0.0096,0.0258,0.0022,-0.0143,-0.0034,-30.675,-30.6,-2.6063,,adl
0.809089,-0.0169,0.0096,0.0258,-0.0001,0.0052,0.0015,-30.675,-30.6,-2.6063,,adl
0.811559,0.0073,-0.0004,0.0209,-0.0001,0.0052,0.0015,-30.675,-30.6,-2.6063,,adl
0.827997,-0.0306,0.0087,0.0279,-0.0001,0.0052,0.0015,-30.675,-30.6,-2.6063,,adl
0.831576,-0.0306,0.0087,0.0279,-0.0001,0.0052,0.0015,-30.675,-30.6,-2.6063,,adl
0.834799,-0.0306,0.0087,0.0279,-0.0001,0.0052,0.0015,-30.4688,-30.7125,-2.7188,,adl
0.848187,-0.0034,0.0139,0.0373,-0.0001,0.0052,0.0015,-30.4688,-30.7125,-2.7188,,adl
0.867998,-0.0281,-0.0095,0.0489,-0.0001,0.0052,0.0015,-30.4688,-30.7125,-2.7188,,adl
0.87059,-0.0281,-0.0095,0.0489,-0.0014,0.0102,0.0052,-30.4688,-30.7125,-2.7188,,adl
0.879291,-0.0281,-0.0095,0.0489,-0.0014,0.0102,0.0052,-30.4688,-30.7125,-2.7188,,adl
0.886546,0.0084,-0.0258,0.032,-0.0014,0.0102,0.0052,-30.4688,-30.7125,-2.7188,,adl
0.89206,0.0084,-0.0258,0.032,-0.0014,0.0102,0.0052,-30.8625,-30.675,-2.9062,,adl
0.905038,-0.0076,-0.0253,0.039,-0.0014,0.0102,0.0052,-30.8625,-30.675,-2.9062,,adl
0.923351,-0.0113,-0.0108,0.0483,-0.0014,0.0102,0.0052,-30.8625,-30.675,-2.9062,,adl
0.927633,-0.0113,-0.0108,0.0483,-0.0014,0.0102,0.0052,-30.8625,-30.675,-2.9062,,adl
0.933626,-0.0113,-0.0108,0.0483,-0.0001,0.0114,0.0015,-30.8625,-30.675,-2.9062,,adl
0.942942,-0.029,0.0175,0.0502,-0.0001,0.0114,0.0015,-30.8625,-30.675,-2.9062,,adl
0.952634,-0.029,0.0175,0.0502,-0.0001,0.0114,0.0015,-31.1625,-30.6938,-2.5875,,adl
0.962164,-0.0208,-0.0017,0.0283,-0.0001,0.0114,0.0015,-31.1625,-30.6938,-2.5875,,adl
0.977657,-0.0208,-0.0017,0.0283,-0.0001,0.0114,0.0015,-31.1625,-30.6938,-2.5875,,adl
0.983664,-0.0298,0.0053,0.0449,-0.0001,0.0114,0.0015,-31.1625,-30.6938,-2.5875,,adl
0.994823,-0.0298,0.0053,0.0449,-0.0014,0.0029,0.0027,-31.1625,-30.6938,-2.5875,,adl
1.003137,-0.0344,0.0029,0.064,-0.0014,0.0029,0.0027,-31.1625,-30.6938,-2.5875,,adl
1.011425,-0.0344,0.0029,0.064,-0.0014,0.0029,0.0027,-30.6375,-31.3688,-3.1313,,adl
1.018982,-0.0392,-0.0143,0.0735,-0.0014,0.0029,0.0027,-30.6375,-31.3688,-3.1313,,adl
1.023168,-0.0392,-0.0143,0.0735,-0.0014,0.0029,0.0027,-30.6375,-31.3688,-3.1313,,adl
1.038691,-0.0003,-0.0014,0.0331,-0.0014,0.0029,0.0027,-30.6375,-31.3688,-3.1313,,adl
1.057001,-0.0003,-0.0014,0.0331,0.0059,-0.007,0.004,-30.6375,-31.3688,-3.1313,,adl
1.059534,0.0187,0.0066,-0.0215,0.0059,-0.007,0.004,-30.6375,-31.3688,-3.1313,,adl
1.071082,0.0187,0.0066,-0.0215,0.0059,-0.007,0.004,-30.6375,-31.3688,-3.1313,,adl
1.07265,0.0187,0.0066,-0.0215,0.0059,-0.007,0.004,-31.4438,-30.5813,-2.5875,,adl
1.077604,-0.0314,-0.0148,-0.0047,0.0059,-0.007,0.004,-31.4438,-30.5813,-2.5875,,adl
1.095329,-0.0425,-0.0236,0.0973,0.0059,-0.007,0.004,-31.4438,-30.5813,-2.5875,,adl
1.11538,-0.0171,-0.0261,0.0897,0.0059,-0.007,0.004,-31.4438,-30.5813,-2.5875,,adl
1.119384,-0.0171,-0.0261,0.0897,0.0059,-0.007,0.004,-31.4438,-30.5813,-2.5875,,adl
1.121685,-0.0171,-0.0261,0.0897,0.0047,-0.0045,0.0003,-31.4438,-30.5813,-2.5875,,adl
1.132276,-0.0171,-0.0261,0.0897,0.0047,-0.0045,0.0003,-31.275,-30.0938,-2.475,,adl
1.134638,-0.0348,-0.0203,0.0252,0.0047,-0.0045,0.0003,-31.275,-30.0938,-2.475,,adl
1.154243,-0.0014,-0.009,0.0131,0.0047,-0.0045,0.0003,-31.275,-30.0938,-2.475,,adl
1.168117,-0.0014,-0.009,0.0131,0.0047,-0.0045,0.0003,-31.275,-30.0938,-2.475,,adl
1.172708,-0.015,-0.0067,0.0344,0.0047,-0.0045,0.0003,-31.275,-30.0938,-2.475,,adl
1.1812,-0.015,-0.0067,0.0344,-0.0014,0.0052,0.0003,-31.275,-30.0938,-2.475,,adl
1.192024,-0.0187,-0.0188,0.0413,-0.0014,0.0052,0.0003,-31.275,-30.0938,-2.475,,adl
1.194578,-0.0187,-0.0188,0.0413,-0.0014,0.0052,0.0003,-31.2375,-30.8813,-2.7938,,adl
1.210483,-0.0269,-0.0045,0.0552,-0.0014,0.0052,0.0003,-31.2375,-30.8813,-2.7938,,adl
1.214127,-0.0269,-0.0045,0.0552,-0.0014,0.0052,0.0003,-31.2375,-30.8813,-2.7938,,adl
1.230247,-0.04,-0.0073,0.0715,-0.0014,0.0052,0.0003,-31.2375,-30.8813,-2.7938,,adl
1.243438,-0.04,-0.0073,0.0715,0.001,-0.0045,0.0015,-31.2375,-30.8813,-2.7938,,adl
1.248243,-0.0352,-0.0174,0.0546,0.001,-0.0045,0.0015,-31.2375,-30.8813,-2.7938,,adl
1.251592,-0.0352,-0.0174,0.0546,0.001,-0.0045,0.0015,-30.8625,-30.5813,-2.9062,,adl
1.262418,-0.0352,-0.0174,0.0546,0.001,-0.0045,0.0015,-30.8625,-30.5813,-2.9062,,adl
1.26912,-0.0138,-0.0129,0.0475,0.001,-0.0045,0.0015,-30.8625,-30.5813,-2.9062,,adl
1.28791,-0.019,-0.0535,0.038,0.001,-0.0045,0.0015,-30.8625,-30.5813,-2.9062,,adl
1.306021,-0.019,-0.0535,0.038,-0.0014,-0.0008,0.0003,-30.8625,-30.5813,-2.9062,,adl
1.308571,-0.0453,-0.0153,0.0524,-0.0014,-0.0008,0.0003,-30.8625,-30.5813,-2.9062,,adl
1.310854,-0.0453,-0.0153,0.0524,-0.0014,-0.0008,0.0003,-30.8625,-30.5813,-2.9062,,adl
1.313042,-0.0453,-0.0153,0.0524,-0.0014,-0.0008,0.0003,-31.4438,-30.8813,-2.475,,adl
1.325174,-0.0095,-0.0037,0.0595,-0.0014,-0.0008,0.0003,-31.4438,-30.8813,-2.475,,adl
1.345368,-0.0158,-0.0303,0.0384,-0.0014,-0.0008,0.0003,-31.4438,-30.8813,-2.475,,adl
1.358226,-0.0158,-0.0303,0.0384,-0.0014,-0.0008,0.0003,-31.4438,-30.8813,-2.475,,adl
1.36413,-0.0334,-0.0164,0.041,-0.0014,-0.0008,0.0003,-31.4438,-30.8813,-2.475,,adl
1.370361,-0.0334,-0.0164,0.041,0.001,-0.0021,-0.0034,-31.4438,-30.8813,-2.475,,adl
1.372332,-0.0334,-0.0164,0.041,0.001,-0.0021,-0.0034,-30.4688,-30.7125,-2.7188,,adl
1.382322,-0.0335,0.0047,0.0768,0.001,-0.0021,-0.0034,-30.4688,-30.7125,-2.7188,,adl
1.402039,-0.034,0.0162,0.0577,0.001,-0.0021,-0.0034,-30.4688,-30.7125,-2.7188,,adl
1.406277,-0.034,0.0162,0.0577,0.001,-0.0021,-0.0034,-30.4688,-30.7125,-2.7188,,adl
1.42137,-0.009,-0.0156,0.0173,0.001,-0.0021,-0.0034,-30.4688,-30.7125,-2.7188,,adl
1.42985,-0.009,-0.0156,0.0173,0.0034,-0.0045,0.004,-30.4688,-30.7125,-2.7188,,adl
1.433953,-0.009,-0.0156,0.0173,0.0034,-0.0045,0.004,-31.05,-30.7875,-2.7938,,adl
1.439493,-0.0144,-0.0087,-0.016,0.0034,-0.0045,0.004,-31.05,-30.7875,-2.7938,,adl
1.452946,-0.0144,-0.0087,-0.016,0.0034,-0.0045,0.004,-31.05,-30.7875,-2.7938,,adl
1.45986,-0.0201,-0.0293,0.0172,0.0034,-0.0045,0.004,-31.05,-30.7875,-2.7938,,adl
1.479433,-0.0262,-0.0399,0.0858,0.0034,-0.0045,0.004,-31.05,-30.7875,-2.7938,,adl
1.492061,-0.0262,-0.0399,0.0858,-0.0014,0.0077,0.0003,-31.05,-30.7875,-2.7938,,adl
1.494538,-0.0262,-0.0399,0.0858,-0.0014,0.0077,0.0003,-30.7875,-30.4125,-2.3813,,adl
1.4975,-0.0192,-0.0201,0.1092,-0.0014,0.0077,0.0003,-30.7875,-30.4125,-2.3813,,adl
1.502641,-0.0192,-0.0201,0.1092,-0.0014,0.0077,0.0003,-30.7875,-30.4125,-2.3813,,adl
1.51646,-0.0366,-0.0016,0.0733,-0.0014,0.0077,0.0003,-30.7875,-30.4125,-2.3813,,adl
1.535385,-0.0224,0.0091,0.0308,-0.0014,0.0077,0.0003,-30.7875,-30.4125,-2.3813,,adl
1.550411,-0.0224,0.0091,0.0308,-0.0014,0.0077,0.0003,-30.7875,-30.4125,-2.3813,,adl
1.553122,-0.0224,0.0091,0.0308,-0.0014,0.0077,0.0003,-31.0688,-30.5063,-2.5875,,adl
1.55435,-0.0224,0.0091,0.0308,0.0034,-0.0033,0.0015,-31.0688,-30.5063,-2.5875,,adl
1.555162,0.0022,-0.0012,-0.0047,0.0034,-0.0033,0.0015,-31.0688,-30.5063,-2.5875,,adl
1.573855,0.0096,-0.0275,0.0096,0.0034,-0.0033,0.0015,-31.0688,-30.5063,-2.5875,,adl
1.59409,-0.0168,-0.0053,0.0402,0.0034,-0.0033,0.0015,-31.0688,-30.5063,-2.5875,,adl
1.597187,-0.0168,-0.0053,0.0402,0.0034,-0.0033,0.0015,-31.0688,-30.5063,-2.5875,,adl
1.612429,-0.0422,-0.0422,0.1304,0.0034,-0.0033,0.0015,-31.0688,-30.5063,-2.5875,,adl
1.613622,-0.0422,-0.0422,0.1304,0.0034,-0.0033,0.0015,-30.7688,-30.4875,-3.0188,,adl
1.615701,-0.0422,-0.0422,0.1304,-0.0026,0.0077,0.0027,-30.7688,-30.4875,-3.0188,,adl
1.631042,-0.0651,-0.0353,0.2066,-0.0026,0.0077,0.0027,-30.7688,-30.4875,-3.0188,,adl
1.645519,-0.0651,-0.0353,0.2066,-0.0026,0.0077,0.0027,-30.7688,-30.4875,-3.0188,,adl
1.650015,-0.0199,-0.0028,0.1047,-0.0026,0.0077,0.0027,-30.7688,-30.4875,-3.0188,,adl
1.670018,0.0089,0.0006,-0.0152,-0.0026,0.0077,0.0027,-30.7688,-30.4875,-3.0188,,adl
1.672562,0.0089,0.0006,-0.0152,-0.0026,0.0077,0.0027,-30.8625,-30.7875,-2.9062,,adl
1.678082,0.0089,0.0006,-0.0152,0.012,-0.0388,-0.001,-30.8625,-30.7875,-2.9062,,adl
1.689513,-0.0286,0.0227,-0.0806,0.012,-0.0388,-0.001,-30.8625,-30.7875,-2.9062,,adl
1.692216,-0.0286,0.0227,-0.0806,0.012,-0.0388,-0.001,-30.8625,-30.7875,-2.9062,,adl
1.707815,0.0418,0.0012,-0.0203,0.012,-0.0388,-0.001,-30.8625,-30.7875,-2.9062,,adl
1.72712,0.0116,-0.0123,0.0107,0.012,-0.0388,-0.001,-30.8625,-30.7875,-2.9062,,adl
1.732411,0.0116,-0.0123,0.0107,0.012,-0.0388,-0.001,-30.7875,-30.4125,-2.4938,,adl
1.740032,0.0116,-0.0123,0.0107,0.012,-0.0388,-0.001,-30.7875,-30.4125,-2.4938,,adl
1.740937,0.0116,-0.0123,0.0107,-0.0038,0.0162,0.0051,-30.7875,-30.4125,-2.4938,,adl
1.746733,-0.0166,-0.0375,0.0267,-0.0038,0.0162,0.0051,-30.7875,-30.4125,-2.4938,,adl
1.765766,-0.0317,-0.0333,0.0977,-0.0038,0.0162,0.0051,-30.7875,-30.4125,-2.4938,,adl
1.784601,-0.027,-0.0153,0.1043,-0.0038,0.0162,0.0051,-30.7875,-30.4125,-2.4938,,adl
1.792011,-0.027,-0.0153,0.1043,-0.0038,0.0162,0.0051,-30.7875,-30.4125,-2.4938,,adl
1.793564,-0.027,-0.0153,0.1043,-0.0038,0.0162,0.0051,-30.7688,-30.6,-2.7,,adl
1.803258,-0.027,-0.0153,0.1043,0.0047,-0.0155,-0.0034,-30.7688,-30.6,-2.7,,adl
1.804356,-0.0185,-0.0276,0.0759,0.0047,-0.0155,-0.0034,-30.7688,-30.6,-2.7,,adl
1.823938,-0.0065,-0.0186,-0.0145,0.0047,-0.0155,-0.0034,-30.7688,-30.6,-2.7,,adl
1.836469,-0.0065,-0.0186,-0.0145,0.0047,-0.0155,-0.0034,-30.7688,-30.6,-2.7,,adl
1.841862,0.015,-0.0085,0.0024,0.0047,-0.0155,-0.0034,-30.7688,-30.6,-2.7,,adl
1.852188,0.015,-0.0085,0.0024,0.0047,-0.0155,-0.0034,-30.6938,-30.3188,-2.4938,,adl
1.861123,-0.0068,0.0115,0.0665,0.0047,-0.0155,-0.0034,-30.6938,-30.3188,-2.4938,,adl
1.864397,-0.0068,0.0115,0.0665,-0.0038,0.0102,-0.001,-30.6938,-30.3188,-2.4938,,adl
1.881263,-0.0383,0.0141,0.0587,-0.0038,0.0102,-0.001,-30.6938,-30.3188,-2.4938,,adl
1.88428,-0.0383,0.0141,0.0587,-0.0038,0.0102,-0.001,-30.6938,-30.3188,-2.4938,,adl
1.899165,-0.0134,-0.0045,0.0561,-0.0038,0.0102,-0.001,-30.6938,-30.3188,-2.4938,,adl
1.912139,-0.0134,-0.0045,0.0561,-0.0038,0.0102,-0.001,-30.8625,-30.7125,-2.4938,,adl
1.9184,-0.0128,-0.0089,0.0656,-0.0038,0.0102,-0.001,-30.8625,-30.7125,-2.4938,,adl
1.926825,-0.0128,-0.0089,0.0656,-0.0026,-0.0021,0.0038,-30.8625,-30.7125,-2.4938,,adl
1.93225,-0.0128,-0.0089,0.0656,-0.0026,-0.0021,0.0038,-30.8625,-30.7125,-2.4938,,adl
1.937244,-0.0149,-0.032,0.0249,-0.0026,-0.0021,0.0038,-30.8625,-30.7125,-2.4938,,adl
1.955881,-0.0169,-0.0046,0.0274,-0.0026,-0.0021,0.0038,-30.8625,-30.7125,-2.4938,,adl
1.972651,-0.0169,-0.0046,0.0274,-0.0026,-0.0021,0.0038,-30.375,-30.6,-2.8125,,adl
1.976276,0.0031,-0.0109,0.0632,-0.0026,-0.0021,0.0038,-30.375,-30.6,-2.8125,,adl
1.978717,0.0031,-0.0109,0.0632,-0.0026,-0.0021,0.0038,-30.375,-30.6,-2.8125,,adl
1.991597,0.0031,-0.0109,0.0632,-0.0038,0.0027,0.0027,-30.375,-30.6,-2.8125,,adl
1.993738,-0.0145,-0.0148,0.07,-0.0038,0.0027,0.0027,-30.375,-30.6,-2.8125,,adl
2.013844,0.0114,-0.0136,0.0552,-0.0038,0.0027,0.0027,-30.375,-30.6,-2.8125,,adl
2.028285,0.0114,-0.0136,0.0552,-0.0038,0.0027,0.0027,-30.375,-30.6,-2.8125,,adl
2.033495,0.0008,-0.0243,0.0574,-0.0038,0.0027,0.0027,-30.375,-30.6,-2.8125,,adl
2.036298,0.0008,-0.0243,0.0574,-0.0038,0.0027,0.0027,-30.675,-30.5063,-2.7,,adl
2.050646,0.0008,-0.0243,0.0574,-0.0001,-0.0033,-0.001,-30.675,-30.5063,-2.7,,adl
2.051185,-0.0052,-0.0303,0.0549,-0.0001,-0.0033,-0.001,-30.675,-30.5063,-2.7,,adl
2.071552,0.0173,-0.0031,0.0571,-0.0001,-0.0033,-0.001,-30.675,-30.5063,-2.7,,adl
2.075431,0.0173,-0.0031,0.0571,-0.0001,-0.0033,-0.001,-30.675,-30.5063,-2.7,,adl
2.090757,0.0179,0.002,0.0426,-0.0001,-0.0033,-0.001,-30.675,-30.5063,-2.7,,adl
2.093757,0.0179,0.002,0.0426,-0.0001,-0.0033,-0.001,-30.675,-30.6,-2.7,,adl
2.109695,0.0138,0.0282,0.0376,-0.0001,-0.0033,-0.001,-30.675,-30.6,-2.7,,adl
2.115402,0.0138,0.0282,0.0376,0.0022,-0.007,0.0003,-30.675,-30.6,-2.7,,adl
2.124321,0.0138,0.0282,0.0376,0.0022,-0.007,0.0003,-30.675,-30.6,-2.7,,adl
2.128569,0.0097,0.0255,0.0158,0.0022,-0.007,0.0003,-30.675,-30.6,-2.7,,adl
2.148159,0.0155,-0.0022,0.0276,0.0022,-0.007,0.0003,-30.675,-30.6,-2.7,,adl
2.153291,0.0155,-0.0022,0.0276,0.0022,-0.007,0.0003,-30.8625,-30.4875,-3.0188,,adl
2.168034,0.0149,-0.034,0.0561,0.0022,-0.007,0.0003,-30.8625,-30.4875,-3.0188,,adl
2.170521,0.0149,-0.034,0.0561,0.0022,-0.007,0.0003,-30.8625,-30.4875,-3.0188,,adl
2.17474,0.0149,-0.034,0.0561,-0.0014,0.0027,0.0015,-30.8625,-30.4875,-3.0188,,adl
2.186165,0.0261,-0.016,0.0606,-0.0014,0.0027,0.0015,-30.8625,-30.4875,-3.0188,,adl
2.213331,-0.0038,-0.013,0.0412,-0.0014,0.0027,0.0015,-30.8625,-30.4875,-3.0188,,adl
2.216026,-0.0038,-0.013,0.0412,-0.0014,0.0027,0.0015,-31.0688,-30.5813,-2.7938,,adl
2.219227,-0.0038,-0.013,0.0412,-0.0014,0.0027,0.0015,-31.0688,-30.5813,-2.7938,,adl
2.223711,-0.0024,-0.0051,0.0433,-0.0014,0.0027,0.0015,-31.0688,-30.5813,-2.7938,,adl
2.237397,-0.0024,-0.0051,0.0433,-0.0026,-0.0008,-0.0022,-31.0688,-30.5813,-2.7938,,adl
2.243032,-0.0009,-0.0134,0.055,-0.0026,-0.0008,-0.0022,-31.0688,-30.5813,-2.7938,,adl
2.26274,0.0257,-0.0126,0.0646,-0.0026,-0.0008,-0.0022,-31.0688,-30.5813,-2.7938,,adl
2.267933,0.0257,-0.0126,0.0646,-0.0026,-0.0008,-0.0022,-31.0688,-30.5813,-2.7938,,adl
2.275202,0.0257,-0.0126,0.0646,-0.0026,-0.0008,-0.0022,-30.675,-30.3938,-3.0188,,adl
2.281686,-0.0108,0.0138,0.0528,-0.0026,-0.0008,-0.0022,-30.675,-30.3938,-3.0188,,adl
2.299576,-0.0108,0.0138,0.0528,0.001,-0.007,0.0026,-30.675,-30.3938,-3.0188,,adl
2.300648,0.0317,0.0137,0.0171,0.001,-0.007,0.0026,-30.675,-30.3938,-3.0188,,adl
2.314326,0.0317,0.0137,0.0171,0.001,-0.007,0.0026,-30.675,-30.3938,-3.0188,,adl
2.320117,-0.0121,-0.0074,0.1028,0.001,-0.007,0.0026,-30.675,-30.3938,-3.0188,,adl
2.332276,-0.0121,-0.0074,0.1028,0.001,-0.007,0.0026,-30.4875,-30.4125,-2.8125,,adl
2.339463,-0.0225,-0.064,0.1979,0.001,-0.007,0.0026,-30.4875,-30.4125,-2.8125,,adl
2.358447,0.0406,-0.1333,0.2869,0.001,-0.007,0.0026,-30.4875,-30.4125,-2.8125,,adl
2.36339,0.0406,-0.1333,0.2869,0.001,-0.007,0.0026,-30.4875,-30.4125,-2.8125,,adl
2.366,0.0406,-0.1333,0.2869,0.045,-0.0411,0.0076,-30.4875,-30.4125,-2.8125,,adl
2.377033,0.0808,0.0285,0.0923,0.045,-0.0411,0.0076,-30.4875,-30.4125,-2.8125,,adl
2.392237,0.0808,0.0285,0.0923,0.045,-0.0411,0.0076,-30.4875,-30.525,-2.4,,adl
2.396328,-0.0391,0.0613,-0.1067,0.045,-0.0411,0.0076,-30.4875,-30.525,-2.4,,adl
2.410546,-0.0391,0.0613,-0.1067,0.045,-0.0411,0.0076,-30.4875,-30.525,-2.4,,adl
2.416312,0.0024,0.0839,-0.1785,0.045,-0.0411,0.0076,-30.4875,-30.525,-2.4,,adl
2.423613,0.0024,0.0839,-0.1785,0.0084,-0.0253,0.0015,-30.4875,-30.525,-2.4,,adl
2.435186,0.0707,0.0076,-0.0454,0.0084,-0.0253,0.0015,-30.4875,-30.525,-2.4,,adl
2.452627,0.0707,0.0076,-0.0454,0.0084,-0.0253,0.0015,-30.8813,-30.525,-2.175,,adl
2.455517,0.0334,-0.0487,0.1703,0.0084,-0.0253,0.0015,-30.8813,-30.525,-2.175,,adl
2.457719,0.0334,-0.0487,0.1703,0.0084,-0.0253,0.0015,-30.8813,-30.525,-2.175,,adl
2.473116,0.0391,0.0433,-0.0654,0.0084,-0.0253,0.0015,-30.8813,-30.525,-2.175,,adl
2.485991,0.0391,0.0433,-0.0654,0.0096,-0.0228,-0.0047,-30.8813,-30.525,-2.175,,adl
2.492073,-0.0059,-0.0012,-0.1262,0.0096,-0.0228,-0.0047,-30.8813,-30.525,-2.175,,adl
2.506036,-0.0059,-0.0012,-0.1262,0.0096,-0.0228,-0.0047,-30.8813,-30.525,-2.175,,adl
2.514494,0.0078,-0.0126,-0.0017,0.0096,-0.0228,-0.0047,-30.8813,-30.525,-2.175,,adl
2.517037,0.0078,-0.0126,-0.0017,0.0096,-0.0228,-0.0047,-30.675,-30.7313,-2.2875,,adl
2.530357,0.079,-0.0466,0.0907,0.0096,-0.0228,-0.0047,-30.675,-30.7313,-2.2875,,adl
2.554944,0.079,-0.0466,0.0907,0.0047,0.0162,-0.0034,-30.675,-30.7313,-2.2875,,adl
2.556365,0.0372,0.0078,-0.02,0.0047,0.0162,-0.0034,-30.675,-30.7313,-2.2875,,adl
2.557251,0.0372,0.0078,-0.02,0.0047,0.0162,-0.0034,-30.675,-30.7313,-2.2875,,adl
2.568248,-0.0254,0.0384,-0.0525,0.0047,0.0162,-0.0034,-30.675,-30.7313,-2.2875,,adl
2.572988,-0.0254,0.0384,-0.0525,0.0047,0.0162,-0.0034,-31.1625,-30.4875,-2.7938,,adl
2.590854,0.0203,-0.0061,0.0647,0.0047,0.0162,-0.0034,-31.1625,-30.4875,-2.7938,,adl
2.601246,0.0203,-0.0061,0.0647,0.0047,0.0162,-0.0034,-31.1625,-30.4875,-2.7938,,adl
2.606592,-0.0057,-0.0358,0.1988,0.0047,0.0162,-0.0034,-31.1625,-30.4875,-2.7938,,adl
2.61068,-0.0057,-0.0358,0.1988,-0.0148,0.0272,0.0003,-31.1625,-30.4875,-2.7938,,adl
2.626009,-0.0364,-0.0372,0.1383,-0.0148,0.0272,0.0003,-31.1625,-30.4875,-2.7938,,adl
2.633448,-0.0364,-0.0372,0.1383,-0.0148,0.0272,0.0003,-31.05,-30.6938,-2.7,,adl
2.645715,0.0048,-0.0257,0.0214,-0.0148,0.0272,0.0003,-31.05,-30.6938,-2.7,,adl
2.649007,0.0048,-0.0257,0.0214,-0.0148,0.0272,0.0003,-31.05,-30.6938,-2.7,,adl
2.663882,0.0098,-0.0007,0.012,-0.0148,0.0272,0.0003,-31.05,-30.6938,-2.7,,adl
2.673689,0.0098,-0.0007,0.012,-0.0113,0.0102,0.0003,-31.05,-30.6938,-2.7,,adl
2.684418,0.0027,-0.006,0.0546,-0.0113,0.0102,0.0003,-31.05,-30.6938,-2.7,,adl
2.693592,0.0027,-0.006,0.0546,-0.0113,0.0102,0.0003,-30.5625,-31.0313,-2.1938,,adl
2.696717,0.0027,-0.006,0.0546,-0.0113,0.0102,0.0003,-30.5625,-31.0313,-2.1938,,adl
2.702023,0.0099,-0.0117,0.0565,-0.0113,0.0102,0.0003,-30.5625,-31.0313,-2.1938,,adl
2.721664,-0.0097,-0.0133,0.0512,-0.0113,0.0102,0.0003,-30.5625,-31.0313,-2.1938,,adl
2.735428,-0.0097,-0.0133,0.0512,-0.0051,0.0052,0.0038,-30.5625,-31.0313,-2.1938,,adl
2.742413,0.0091,-0.0171,0.0675,-0.0051,0.0052,0.0038,-30.5625,-31.0313,-2.1938,,adl
2.745486,0.0091,-0.0171,0.0675,-0.0051,0.0052,0.0038,-30.5625,-31.0313,-2.1938,,adl
2.751401,0.0091,-0.0171,0.0675,-0.0051,0.0052,0.0038,-30.6563,-30.9188,-2.4938,,adl
2.759339,-0.0225,-0.0209,0.0648,-0.0051,0.0052,0.0038,-30.6563,-30.9188,-2.4938,,adl
2.78041,-0.017,0.0107,0.0837,-0.0051,0.0052,0.0038,-30.6563,-30.9188,-2.4938,,adl
2.792765,-0.017,0.0107,0.0837,-0.0051,0.0052,0.0038,-30.6563,-30.9188,-2.4938,,adl
2.79781,-0.017,0.0107,0.0837,0.0071,-0.018,0.0088,-30.6563,-30.9188,-2.4938,,adl
2.800531,0.0304,-0.016,0.1006,0.0071,-0.018,0.0088,-30.6563,-30.9188,-2.4938,,adl
2.813086,0.0304,-0.016,0.1006,0.0071,-0.018,0.0088,-31.0688,-30.7125,-2.3813,,adl
2.817346,0.0453,-0.0167,0.0204,0.0071,-0.018,0.0088,-31.0688,-30.7125,-2.3813,,adl
2.836474,0.0177,0.0018,-0.0146,0.0071,-0.018,0.0088,-31.0688,-30.7125,-2.3813,,adl
2.84052,0.0177,0.0018,-0.0146,0.0071,-0.018,0.0088,-31.0688,-30.7125,-2.3813,,adl
2.856088,0.0265,0.0043,-0.0287,0.0071,-0.018,0.0088,-31.0688,-30.7125,-2.3813,,adl
2.862282,0.0265,0.0043,-0.0287,-0.0038,0.0052,0.0015,-31.0688,-30.7125,-2.3813,,adl
2.872437,0.0265,0.0043,-0.0287,-0.0038,0.0052,0.0015,-30.7688,-30.7125,-2.6063,,adl
2.875006,0.0306,-0.0109,0.0046,-0.0038,0.0052,0.0015,-30.7688,-30.7125,-2.6063,,adl
2.887488,0.0306,-0.0109,0.0046,-0.0038,0.0052,0.0015,-30.7688,-30.7125,-2.6063,,adl
2.894194,0.0203,-0.0638,0.0731,-0.0038,0.0052,0.0015,-30.7688,-30.7125,-2.6063,,adl
2.913072,0.0219,-0.0337,0.1009,-0.0038,0.0052,0.0015,-30.7688,-30.7125,-2.6063,,adl
2.925938,0.0219,-0.0337,0.1009,-0.0003,0.0052,-0.0022,-30.7688,-30.7125,-2.6063,,adl
2.932388,-0.0145,-0.0216,0.0955,-0.0003,0.0052,-0.0022,-30.7688,-30.7125,-2.6063,,adl
2.934926,-0.0145,-0.0216,0.0955,-0.0003,0.0052,-0.0022,-31.1625,-30.6,-2.5875,,adl
2.937325,-0.0145,-0.0216,0.0955,-0.0003,0.0052,-0.0022,-31.1625,-30.6,-2.5875,,adl
2.950762,0.0023,-0.0099,0.0715,-0.0003,0.0052,-0.0022,-31.1625,-30.6,-2.5875,,adl
2.970326,0.0321,-0.0104,0.0431,-0.0003,0.0052,-0.0022,-31.1625,-30.6,-2.5875,,adl
2.98391,0.0321,-0.0104,0.0431,-0.0003,0.0052,-0.0022,-31.1625,-30.6,-2.5875,,adl
2.986375,0.0321,-0.0104,0.0431,0.0022,-0.0106,-0.0034,-31.1625,-30.6,-2.5875,,adl
2.989804,0.0353,0.0058,0.0124,0.0022,-0.0106,-0.0034,-31.1625,-30.6,-2.5875,,adl
2.99199,0.0353,0.0058,0.0124,0.0022,-0.0106,-0.0034,-30.9563,-30.8063,-2.3813,,adl
3.007965,0.0372,-0.0043,-0.0163,0.0022,-0.0106,-0.0034,-30.9563,-30.8063,-2.3813,,adl
3.028041,0.0269,-0.0065,0.0144,0.0022,-0.0106,-0.0034,-30.9563,-30.8063,-2.3813,,adl
3.031491,0.0269,-0.0065,0.0144,0.0022,-0.0106,-0.0034,-30.9563,-30.8063,-2.3813,,adl
3.046713,0.0269,-0.0065,0.0144,-0.0038,0.0126,0.0003,-30.9563,-30.8063,-2.3813,,adl
3.04936,0.0391,-0.0271,0.064,-0.0038,0.0126,0.0003,-30.9563,-30.8063,-2.3813,,adl
3.051545,0.0391,-0.0271,0.064,-0.0038,0.0126,0.0003,-30.75,-30.9,-2.6063,,adl
3.065548,0.0142,-0.0054,0.0852,-0.0038,0.0126,0.0003,-30.75,-30.9,-2.6063,,adl
3.079455,0.0142,-0.0054,0.0852,-0.0038,0.0126,0.0003,-30.75,-30.9,-2.6063,,adl
3.085674,0.0168,-0.0213,0.0521,-0.0038,0.0126,0.0003,-30.75,-30.9,-2.6063,,adl
3.104557,0.0302,-0.0252,-0.0022,-0.0038,0.0126,0.0003,-30.75,-30.9,-2.6063,,adl
3.108241,0.0302,-0.0252,-0.0022,-0.0003,-0.0021,-0.001,-30.75,-30.9,-2.6063,,adl
3.11357,0.0302,-0.0252,-0.0022,-0.0003,-0.0021,-0.001,-31.1625,-30.7313,-1.9688,,adl
3.123297,0.0092,-0.0167,0.0149,-0.0003,-0.0021,-0.001,-31.1625,-30.7313,-1.9688,,adl
3.126588,0.0092,-0.0167,0.0149,-0.0003,-0.0021,-0.001,-31.1625,-30.7313,-1.9688,,adl
3.142398,0.0321,-0.0082,0.0558,-0.0003,-0.0021,-0.001,-31.1625,-30.7313,-1.9688,,adl
3.161999,0.0161,-0.0049,0.0632,-0.0003,-0.0021,-0.001,-31.1625,-30.7313,-1.9688,,adl
3.169237,0.0161,-0.0049,0.0632,0.0022,-0.0021,-0.001,-31.1625,-30.7313,-1.9688,,adl
3.1713,0.0161,-0.0049,0.0632,0.0022,-0.0021,-0.001,-31.1625,-30.7125,-2.175,,adl
3.174447,0.0161,-0.0049,0.0632,0.0022,-0.0021,-0.001,-31.1625,-30.7125,-2.175,,adl
3.180141,0.0305,-0.0093,0.0373,0.0022,-0.0021,-0.001,-31.1625,-30.7125,-2.175,,adl
3.19909,-0.0051,-0.0062,0.0137,0.0022,-0.0021,-0.001,-31.1625,-30.7125,-2.175,,adl
3.219491,0.0036,-0.0169,0.0282,0.0022,-0.0021,-0.001,-31.1625,-30.7125,-2.175,,adl
3.226094,0.0036,-0.0169,0.0282,0.0022,-0.0021,-0.001,-31.1625,-30.7125,-2.175,,adl
3.231627,0.0036,-0.0169,0.0282,0.0022,-0.0021,-0.001,-30.7688,-30.6188,-2.4,,adl
3.232585,0.0036,-0.0169,0.0282,-0.0038,0.0102,0.0001,-30.7688,-30.6188,-2.4,,adl
3.237461,0.0131,-0.0436,0.0784,-0.0038,0.0102,0.0001,-30.7688,-30.6188,-2.4,,adl
3.258285,-0.002,-0.0466,0.0666,-0.0038,0.0102,0.0001,-30.7688,-30.6188,-2.4,,adl
3.271016,-0.002,-0.0466,0.0666,-0.0038,0.0102,0.0001,-30.7688,-30.6188,-2.4,,adl
3.276101,-0.0109,-0.0357,0.0478,-0.0038,0.0102,0.0001,-30.7688,-30.6188,-2.4,,adl
3.291364,-0.0109,-0.0357,0.0478,-0.0038,0.0102,0.0001,-30.7688,-30.7875,-2.8125,,adl
3.294258,-0.0109,-0.0357,0.0478,0.001,-0.0045,-0.0034,-30.7688,-30.7875,-2.8125,,adl
3.295249,-0.0013,-0.0253,0.0411,0.001,-0.0045,-0.0034,-30.7688,-30.7875,-2.8125,,adl
3.314389,-0.0013,-0.0076,0.0248,0.001,-0.0045,-0.0034,-30.7688,-30.7875,-2.8125,,adl
3.31936,-0.0013,-0.0076,0.0248,0.001,-0.0045,-0.0034,-30.7688,-30.7875,-2.8125,,adl
3.333108,-0.0126,0.0122,0.0226,0.001,-0.0045,-0.0034,-30.7688,-30.7875,-2.8125,,adl
3.352761,-0.0106,-0.0202,0.0058,0.001,-0.0045,-0.0034,-30.7688,-30.7875,-2.8125,,adl
3.353884,-0.0106,-0.0202,0.0058,0.001,-0.0045,-0.0034,-31.2563,-30.5063,-2.3813,,adl
3.358738,-0.0106,-0.0202,0.0058,-0.0003,0.0125,0.0038,-31.2563,-30.5063,-2.3813,,adl
3.366926,-0.0106,-0.0202,0.0058,-0.0003,0.0125,0.0038,-31.2563,-30.5063,-2.3813,,adl
3.371854,0.0165,-0.0516,-0.0017,-0.0003,0.0125,0.0038,-31.2563,-30.5063,-2.3813,,adl
3.391081,-0.0052,-0.0252,0.0288,-0.0003,0.0125,0.0038,-31.2563,-30.5063,-2.3813,,adl
3.409511,0.0269,-0.0523,0.0513,-0.0003,0.0125,0.0038,-31.2563,-30.5063,-2.3813,,adl
3.411346,0.0269,-0.0523,0.0513,-0.0003,0.0125,0.0038,-31.0688,-30.3,-2.5875,,adl
3.412874,0.0269,-0.0523,0.0513,-0.0003,0.0125,0.0038,-31.0688,-30.3,-2.5875,,adl
3.418512,0.0269,-0.0523,0.0513,0.0194,0.0492,0.0148,-31.0688,-30.3,-2.5875,,adl
3.428985,0.0189,0.0202,-0.097,0.0194,0.0492,0.0148,-31.0688,-30.3,-2.5875,,adl
3.448056,-0.1859,0.0054,0.1156,0.0194,0.0492,0.0148,-31.0688,-30.3,-2.5875,,adl
3.46214,-0.1859,0.0054,0.1156,0.0194,0.0492,0.0148,-31.0688,-30.3,-2.5875,,adl
3.470224,0.0148,-0.0594,0.3482,0.0194,0.0492,0.0148,-31.0688,-30.3,-2.5875,,adl
3.473306,0.0148,-0.0594,0.3482,0.0194,0.0492,0.0148,-30.7875,-30.3188,-2.3813,,adl
3.480566,0.0148,-0.0594,0.3482,0.0107,-0.0265,-0.0022,-30.7875,-30.3188,-2.3813,,adl
3.487334,-0.0205,-0.0601,0.1787,0.0107,-0.0265,-0.0022,-30.7875,-30.3188,-2.3813,,adl
3.506183,-0.0271,0.0032,-0.1034,0.0107,-0.0265,-0.0022,-30.7875,-30.3188,-2.3813,,adl
3.509766,-0.0271,0.0032,-0.1034,0.0107,-0.0265,-0.0022,-30.7875,-30.3188,-2.3813,,adl
3.525018,0.0552,-0.0149,-0.1736,0.0107,-0.0265,-0.0022,-30.7875,-30.3188,-2.3813,,adl
3.532384,0.0552,-0.0149,-0.1736,0.0107,-0.0265,-0.0022,-30.6563,-30.8063,-2.4938,,adl
3.543333,0.0552,-0.0149,-0.1736,-0.0148,0.0407,0.0014,-30.6563,-30.8063,-2.4938,,adl
3.544803,0.0374,-0.0177,-0.0283,-0.0148,0.0407,0.0014,-30.6563,-30.8063,-2.4938,,adl
3.560013,0.0374,-0.0177,-0.0283,-0.0148,0.0407,0.0014,-30.6563,-30.8063,-2.4938,,adl
3.562866,-0.0238,-0.041,0.1468,-0.0148,0.0407,0.0014,-30.6563,-30.8063,-2.4938,,adl
3.582332,-0.0139,-0.0449,0.1574,-0.0148,0.0407,0.0014,-30.6563,-30.8063,-2.4938,,adl
3.592115,-0.0139,-0.0449,0.1574,-0.0148,0.0407,0.0014,-30.375,-30.6188,-2.5125,,adl
3.604074,-0.0201,-0.027,0.0619,-0.0148,0.0407,0.0014,-30.375,-30.6188,-2.5125,,adl
3.607125,-0.0201,-0.027,0.0619,-0.0148,0.0407,0.0014,-30.375,-30.6188,-2.5125,,adl
3.609125,-0.0201,-0.027,0.0619,0.0071,-0.0192,-0.0034,-30.375,-30.6188,-2.5125,,adl
3.621209,-0.0126,-0.0062,0.0265,0.0071,-0.0192,-0.0034,-30.375,-30.6188,-2.5125,,adl
3.640451,0.037,-0.0199,0.0387,0.0071,-0.0192,-0.0034,-30.375,-30.6188,-2.5125,,adl
3.652587,0.037,-0.0199,0.0387,0.0071,-0.0192,-0.0034,-30.9375,-31.0875,-2.6063,,adl
3.656453,0.037,-0.0199,0.0387,0.0071,-0.0192,-0.0034,-30.9375,-31.0875,-2.6063,,adl
3.660452,0.0311,-0.0386,0.0104,0.0071,-0.0192,-0.0034,-30.9375,-31.0875,-2.6063,,adl
3.667374,0.0311,-0.0386,0.0104,0.0022,-0.0045,-0.0034,-30.9375,-31.0875,-2.6063,,adl
3.677998,0.016,-0.0053,0.001,0.0022,-0.0045,-0.0034,-30.9375,-31.0875,-2.6063,,adl
3.696752,-0.0154,0.0045,0.0363,0.0022,-0.0045,-0.0034,-30.9375,-31.0875,-2.6063,,adl
3.704474,-0.0154,0.0045,0.0363,0.0022,-0.0045,-0.0034,-30.9375,-31.0875,-2.6063,,adl
3.712361,-0.0154,0.0045,0.0363,0.0022,-0.0045,-0.0034,-30.1688,-30.8063,-2.7188,,adl
3.716066,-0.0114,-0.028,0.0688,0.0022,-0.0045,-0.0034,-30.1688,-30.8063,-2.7188,,adl
3.729793,-0.0114,-0.028,0.0688,-0.0026,0.0102,0.0026,-30.1688,-30.8063,-2.7188,,adl
3.73598,0.0048,-0.0341,0.0924,-0.0026,0.0102,0.0026,-30.1688,-30.8063,-2.7188,,adl
3.749122,0.0048,-0.0341,0.0924,-0.0026,0.0102,0.0026,-30.1688,-30.8063,-2.7188,,adl
3.754449,-0.0077,-0.029,0.0782,-0.0026,0.0102,0.0026,-30.1688,-30.8063,-2.7188,,adl
3.771701,-0.0077,-0.029,0.0782,-0.0026,0.0102,0.0026,-30.5813,-30.3188,-2.4938,,adl
3.773375,-0.0051,-0.0032,0.0453,-0.0026,0.0102,0.0026,-30.5813,-30.3188,-2.4938,,adl
3.791956,-0.0051,-0.0032,0.0453,0.0034,-0.0082,-0.0011,-30.5813,-30.3188,-2.4938,,adl
3.793521,0.002,-0.0203,0.0076,0.0034,-0.0082,-0.0011,-30.5813,-30.3188,-2.4938,,adl
3.796854,0.002,-0.0203,0.0076,0.0034,-0.0082,-0.0011,-30.5813,-30.3188,-2.4938,,adl
3.81206,-0.0136,-0.0108,0.0248,0.0034,-0.0082,-0.0011,-30.5813,-30.3188,-2.4938,,adl
3.831185,-0.0137,-0.0058,0.0416,0.0034,-0.0082,-0.0011,-30.5813,-30.3188,-2.4938,,adl
3.834405,-0.0137,-0.0058,0.0416,0.0034,-0.0082,-0.0011,-30.2813,-30.4125,-2.8125,,adl
3.845378,-0.0137,-0.0058,0.0416,0.0034,-0.0082,-0.0011,-30.2813,-30.4125,-2.8125,,adl
3.849586,-0.0017,-0.015,0.056,0.0034,-0.0082,-0.0011,-30.2813,-30.4125,-2.8125,,adl
3.854039,-0.0017,-0.015,0.056,-0.0003,0.0015,0.0001,-30.2813,-30.4125,-2.8125,,adl
3.869157,0.0029,-0.0196,0.0417,-0.0003,0.0015,0.0001,-30.2813,-30.4125,-2.8125,,adl
3.889247,0.0001,-0.0171,0.0586,-0.0003,0.0015,0.0001,-30.2813,-30.4125,-2.8125,,adl
3.892304,0.0001,-0.0171,0.0586,-0.0003,0.0015,0.0001,-30.2813,-30.4125,-2.8125,,adl
3.893794,0.0001,-0.0171,0.0586,-0.0003,0.0015,0.0001,-31.1625,-30.6,-2.5875,,adl
3.907207,-0.0009,-0.0266,0.0542,-0.0003,0.0015,0.0001,-31.1625,-30.6,-2.5875,,adl
3.915989,-0.0009,-0.0266,0.0542,0.001,-0.0033,-0.0023,-31.1625,-30.6,-2.5875,,adl
3.926321,-0.0045,-0.0383,0.0354,0.001,-0.0033,-0.0023,-31.1625,-30.6,-2.5875,,adl
3.940656,-0.0045,-0.0383,0.0354,0.001,-0.0033,-0.0023,-31.1625,-30.6,-2.5875,,adl
3.947881,0.0071,-0.0095,0.0427,0.001,-0.0033,-0.0023,-31.1625,-30.6,-2.5875,,adl
3.952403,0.0071,-0.0095,0.0427,0.001,-0.0033,-0.0023,-30.6563,-30.8063,-2.7,,adl
3.964889,-0.0295,-0.0068,0.0573,0.001,-0.0033,-0.0023,-30.6563,-30.8063,-2.7,,adl
3.980443,-0.0295,-0.0068,0.0573,-0.0003,-0.0033,-0.0023,-30.6563,-30.8063,-2.7,,adl
3.98401,-0.0066,-0.002,0.0504,-0.0003,-0.0033,-0.0023,-30.6563,-30.8063,-2.7,,adl
3.988287,-0.0066,-0.002,0.0504,-0.0003,-0.0033,-0.0023,-30.6563,-30.8063,-2.7,,adl
4.003444,0.0207,-0.0166,0.0389,-0.0003,-0.0033,-0.0023,-30.6563,-30.8063,-2.7,,adl
4.012704,0.0207,-0.0166,0.0389,-0.0003,-0.0033,-0.0023,-30.5813,-30.6375,-2.1938,,adl
4.022263,0.0263,-0.0121,0.0441,-0.0003,-0.0033,-0.0023,-30.5813,-30.6375,-2.1938,,adl
4.035217,0.0263,-0.0121,0.0441,-0.0003,-0.0033,-0.0023,-30.5813,-30.6375,-2.1938,,adl
4.040244,0.0263,-0.0121,0.0441,0.0047,-0.0095,-0.0034,-30.5813,-30.6375,-2.1938,,adl
4.041206,0.0026,-0.0175,0.0566,0.0047,-0.0095,-0.0034,-30.5813,-30.6375,-2.1938,,adl
4.0614,-0.0146,-0.0119,0.0668,0.0047,-0.0095,-0.0034,-30.5813,-30.6375,-2.1938,,adl
4.0722,-0.0146,-0.0119,0.0668,0.0047,-0.0095,-0.0034,-31.1438,-30.675,-3.0,,adl
4.081661,-0.0299,-0.028,0.046,0.0047,-0.0095,-0.0034,-31.1438,-30.675,-3.0,,adl
4.08495,-0.0299,-0.028,0.046,0.0047,-0.0095,-0.0034,-31.1438,-30.675,-3.0,,adl
4.098691,-0.023,-0.0081,0.001,0.0047,-0.0095,-0.0034,-31.1438,-30.675,-3.0,,adl
4.102758,-0.023,-0.0081,0.001,0.0107,-0.0118,-0.0023,-31.1438,-30.675,-3.0,,adl
4.118145,-0.0053,-0.0289,-0.0299,0.0107,-0.0118,-0.0023,-31.1438,-30.675,-3.0,,adl
4.132146,-0.0053,-0.0289,-0.0299,0.0107,-0.0118,-0.0023,-31.1438,-30.675,-3.0,,adl
4.135181,-0.0053,-0.0289,-0.0299,0.0107,-0.0118,-0.0023,-30.375,-30.8438,-1.9875,,adl
4.137782,-0.0253,-0.0168,-0.0112,0.0107,-0.0118,-0.0023,-30.375,-30.8438,-1.9875,,adl
4.156277,-0.0399,-0.0034,0.105,0.0107,-0.0118,-0.0023,-30.375,-30.8438,-1.9875,,adl
4.164654,-0.0399,-0.0034,0.105,-0.0063,0.0162,0.0038,-30.375,-30.8438,-1.9875,,adl
4.174779,-0.0247,-0.0333,0.1042,-0.0063,0.0162,0.0038,-30.375,-30.8438,-1.9875,,adl
4.180954,-0.0247,-0.0333,0.1042,-0.0063,0.0162,0.0038,-30.375,-30.8438,-1.9875,,adl
4.192423,-0.0247,-0.0333,0.1042,-0.0063,0.0162,0.0038,-30.375,-30.8063,-2.925,,adl
4.196079,-0.0042,-0.0143,0.0422,-0.0063,0.0162,0.0038,-30.375,-30.8063,-2.925,,adl
4.213373,-0.0148,-0.0215,-0.0101,-0.0063,0.0162,0.0038,-30.375,-30.8063,-2.925,,adl
4.226703,-0.0148,-0.0215,-0.0101,-0.0063,0.0162,0.0038,-30.375,-30.8063,-2.925,,adl
4.229657,-0.0148,-0.0215,-0.0101,-0.0063,0.0102,0.0001,-30.375,-30.8063,-2.925,,adl
4.232384,0.0128,-0.018,0.028,-0.0063,0.0102,0.0001,-30.375,-30.8063,-2.925,,adl
4.251309,-0.0084,-0.0115,0.0873,-0.0063,0.0102,0.0001,-30.375,-30.8063,-2.925,,adl
4.253017,-0.0084,-0.0115,0.0873,-0.0063,0.0102,0.0001,-30.375,-30.825,-2.6063,,adl
4.271447,-0.0143,-0.0154,0.0846,-0.0063,0.0102,0.0001,-30.375,-30.825,-2.6063,,adl
4.275308,-0.0143,-0.0154,0.0846,-0.0063,0.0102,0.0001,-30.375,-30.825,-2.6063,,adl
4.289259,-0.0143,-0.0154,0.0846,0.0022,-0.0045,0.0014,-30.375,-30.825,-2.6063,,adl
4.292129,-0.0074,-0.0179,0.032,0.0022,-0.0045,0.0014,-30.375,-30.825,-2.6063,,adl
4.309318,-0.0074,-0.0059,0.0176,0.0022,-0.0045,0.0014,-30.375,-30.825,-2.6063,,adl
4.31242,-0.0074,-0.0059,0.0176,0.0022,-0.0045,0.0014,-30.4688,-30.6188,-2.5125,,adl
4.32234,-0.0074,-0.0059,0.0176,0.0022,-0.0045,0.0014,-30.4688,-30.6188,-2.5125,,adl
4.327969,0.0106,-0.0193,0.0366,0.0022,-0.0045,0.0014,-30.4688,-30.6188,-2.5125,,adl
4.350509,0.0055,-0.0232,0.0505,0.0022,-0.0045,0.0014,-30.4688,-30.6188,-2.5125,,adl
4.352085,0.0055,-0.0232,0.0505,-0.0003,0.0089,0.0026,-30.4688,-30.6188,-2.5125,,adl
4.365656,-0.0361,-0.0158,0.0285,-0.0003,0.0089,0.0026,-30.4688,-30.6188,-2.5125,,adl
4.369877,-0.0361,-0.0158,0.0285,-0.0003,0.0089,0.0026,-30.4688,-30.6188,-2.5125,,adl
4.371123,-0.0361,-0.0158,0.0285,-0.0003,0.0089,0.0026,-31.05,-30.9563,-3.1125,,adl
4.385773,0.0013,-0.0319,0.0545,-0.0003,0.0089,0.0026,-31.05,-30.9563,-3.1125,,adl
4.404526,-0.0256,-0.0118,0.0924,-0.0003,0.0089,0.0026,-31.05,-30.9563,-3.1125,,adl
4.416417,-0.0256,-0.0118,0.0924,-0.0026,0.0015,0.0026,-31.05,-30.9563,-3.1125,,adl
4.417783,-0.0256,-0.0118,0.0924,-0.0026,0.0015,0.0026,-31.05,-30.9563,-3.1125,,adl
4.426612,-0.0119,-0.0227,0.0729,-0.0026,0.0015,0.0026,-31.05,-30.9563,-3.1125,,adl
4.432749,-0.0119,-0.0227,0.0729,-0.0026,0.0015,0.0026,-30.4688,-30.6,-2.7188,,adl
4.443158,0.0143,-0.0104,0.0179,-0.0026,0.0015,0.0026,-30.4688,-30.6,-2.7188,,adl
4.462224,0.0152,0.0043,0.0225,-0.0026,0.0015,0.0026,-30.4688,-30.6,-2.7188,,adl
4.465688,0.0152,0.0043,0.0225,-0.0026,0.0015,0.0026,-30.4688,-30.6,-2.7188,,adl
4.47563,0.0152,0.0043,0.0225,-0.0015,0.0077,0.0026,-30.4688,-30.6,-2.7188,,adl
4.481511,-0.0085,-0.0091,0.0171,-0.0015,0.0077,0.0026,-30.4688,-30.6,-2.7188,,adl
4.493333,-0.0085,-0.0091,0.0171,-0.0015,0.0077,0.0026,-30.6563,-30.8063,-2.4938,,adl
4.500353,0.0047,-0.0294,0.0329,-0.0015,0.0077,0.0026,-30.6563,-30.8063,-2.4938,,adl
4.514146,0.0047,-0.0294,0.0329,-0.0015,0.0077,0.0026,-30.6563,-30.8063,-2.4938,,adl
4.519635,0.0064,0.0005,0.0798,-0.0015,0.0077,0.0026,-30.6563,-30.8063,-2.4938,,adl
4.538116,0.0064,0.0005,0.0798,-0.0003,0.0015,0.0014,-30.6563,-30.8063,-2.4938,,adl
4.541144,-0.0029,-0.0415,0.0959,-0.0003,0.0015,0.0014,-30.6563,-30.8063,-2.4938,,adl
4.553127,-0.0029,-0.0415,0.0959,-0.0003,0.0015,0.0014,-30.3938,-30.4313,-2.4,,adl
4.558924,-0.0167,-0.0387,0.0503,-0.0003,0.0015,0.0014,-30.3938,-30.4313,-2.4,,adl
4.561921,-0.0167,-0.0387,0.0503,-0.0003,0.0015,0.0014,-30.3938,-30.4313,-2.4,,adl
4.576892,0.0185,-0.0243,0.0098,-0.0003,0.0015,0.0014,-30.3938,-30.4313,-2.4,,adl
4.596261,0.0071,0.0004,0.0217,-0.0003,0.0015,0.0014,-30.3938,-30.4313,-2.4,,adl
4.599646,0.0071,0.0004,0.0217,-0.0026,0.0004,0.0001,-30.3938,-30.4313,-2.4,,adl
4.609409,0.0071,0.0004,0.0217,-0.0026,0.0004,0.0001,-30.3938,-30.4313,-2.4,,adl
4.612467,0.0071,0.0004,0.0217,-0.0026,0.0004,0.0001,-30.1875,-30.6375,-2.4,,adl
4.613854,-0.0009,0.0036,0.0549,-0.0026,0.0004,0.0001,-30.1875,-30.6375,-2.4,,adl
4.633796,-0.0165,-0.0054,0.0571,-0.0026,0.0004,0.0001,-30.1875,-30.6375,-2.4,,adl
4.654747,0.0361,-0.0121,0.0141,-0.0026,0.0004,0.0001,-30.1875,-30.6375,-2.4,,adl
4.65712,0.0361,-0.0121,0.0141,-0.0026,0.0004,0.0001,-30.1875,-30.6375,-2.4,,adl
4.661325,0.0361,-0.0121,0.0141,-0.0003,0.0004,-0.0011,-30.1875,-30.6375,-2.4,,adl
4.672865,0.0087,-0.0186,0.0234,-0.0003,0.0004,-0.0011,-30.1875,-30.6375,-2.4,,adl
4.675519,0.0087,-0.0186,0.0234,-0.0003,0.0004,-0.0011,-30.4875,-30.6188,-2.4,,adl
4.691219,0.0131,-0.0132,0.0396,-0.0003,0.0004,-0.0011,-30.4875,-30.6188,-2.4,,adl
4.70537,0.0131,-0.0132,0.0396,-0.0003,0.0004,-0.0011,-30.4875,-30.6188,-2.4,,adl
4.710855,-0.0004,-0.0027,0.0587,-0.0003,0.0004,-0.0011,-30.4875,-30.6188,-2.4,,adl
4.724588,-0.0004,-0.0027,0.0587,-0.0015,-0.0045,-0.0034,-30.4875,-30.6188,-2.4,,adl
4.729848,-0.0068,0.0168,0.0537,-0.0015,-0.0045,-0.0034,-30.4875,-30.6188,-2.4,,adl
4.733191,-0.0068,0.0168,0.0537,-0.0015,-0.0045,-0.0034,-31.0688,-30.7125,-2.175,,adl
4.748821,0.0247,0.0089,0.0278,-0.0015,-0.0045,-0.0034,-31.0688,-30.7125,-2.175,,adl
4.752043,0.0247,0.0089,0.0278,-0.0015,-0.0045,-0.0034,-31.0688,-30.7125,-2.175,,adl
4.767241,0.0267,-0.0062,0.0094,-0.0015,-0.0045,-0.0034,-31.0688,-30.7125,-2.175,,adl
4.786338,0.0267,-0.0062,0.0094,-0.0015,0.0027,0.0038,-31.0688,-30.7125,-2.175,,adl
4.789686,0.0186,0.0102,0.0144,-0.0015,0.0027,0.0038,-31.0688,-30.7125,-2.175,,adl
4.795316,0.0186,0.0102,0.0144,-0.0015,0.0027,0.0038,-30.7688,-30.6188,-2.4938,,adl
4.800887,0.0186,0.0102,0.0144,-0.0015,0.0027,0.0038,-30.7688,-30.6188,-2.4938,,adl
4.805417,0.0075,-0.0059,0.043,-0.0015,0.0027,0.0038,-30.7688,-30.6188,-2.4938,,adl
4.82553,0.0042,-0.0131,0.0521,-0.0015,0.0027,0.0038,-30.7688,-30.6188,-2.4938,,adl
4.84471,0.0265,-0.0227,0.0591,-0.0015,0.0027,0.0038,-30.7688,-30.6188,-2.4938,,adl
4.848334,0.0265,-0.0227,0.0591,-0.0015,0.0027,0.0038,-30.7688,-30.6188,-2.4938,,adl
4.850306,0.0265,-0.0227,0.0591,-0.0015,0.004,0.0001,-30.7688,-30.6188,-2.4938,,adl
4.852833,0.0265,-0.0227,0.0591,-0.0015,0.004,0.0001,-30.5813,-30.5063,-2.8125,,adl
4.864041,0.0076,-0.0012,0.0566,-0.0015,0.004,0.0001,-30.5813,-30.5063,-2.8125,,adl
4.882953,0.0027,-0.0087,0.0518,-0.0015,0.004,0.0001,-30.5813,-30.5063,-2.8125,,adl
4.896725,0.0027,-0.0087,0.0518,-0.0015,0.004,0.0001,-30.5813,-30.5063,-2.8125,,adl
4.904184,0.0203,0.0,0.0402,-0.0015,0.004,0.0001,-30.5813,-30.5063,-2.8125,,adl
4.911001,0.0203,0.0,0.0402,0.0034,-0.007,0.0014,-30.5813,-30.5063,-2.8125,,adl
4.912134,0.0203,0.0,0.0402,0.0034,-0.007,0.0014,-30.375,-30.6,-2.8125,,adl
4.921772,0.0258,0.0088,0.0046,0.0034,-0.007,0.0014,-30.375,-30.6,-2.8125,,adl
4.940571,0.0136,-0.0009,0.0094,0.0034,-0.007,0.0014,-30.375,-30.6,-2.8125,,adl
4.944183,0.0136,-0.0009,0.0094,0.0034,-0.007,0.0014,-30.375,-30.6,-2.8125,,adl
4.959458,0.0127,-0.0172,0.0522,0.0034,-0.007,0.0014,-30.375,-30.6,-2.8125,,adl
4.972298,0.0127,-0.0172,0.0522,0.0034,-0.007,0.0014,-30.5625,-30.7125,-2.7188,,adl
4.975129,0.0127,-0.0172,0.0522,-0.0015,0.0065,0.0001,-30.5625,-30.7125,-2.7188,,adl
4.978077,0.0043,-0.0145,0.0519,-0.0015,0.0065,0.0001,-30.5625,-30.7125,-2.7188,,adl
4.991209,0.0043,-0.0145,0.0519,-0.0015,0.0065,0.0001,-30.5625,-30.7125,-2.7188,,adl
4.99767,-0.0263,-0.017,0.0828,-0.0015,0.0065,0.0001,-30.5625,-30.7125,-2.7188,,adl
5.016941,0.0184,-0.0148,0.0543,-0.0015,0.0065,0.0001,-30.5625,-30.7125,-2.7188,,adl
5.032446,0.0184,-0.0148,0.0543,-0.0015,0.0065,0.0001,-30.9563,-30.825,-2.2875,,adl
5.035573,0.0184,-0.0148,0.0543,0.0034,-0.0095,0.0001,-30.9563,-30.825,-2.2875,,adl
5.037613,0.0094,-0.006,0.014,0.0034,-0.0095,0.0001,-30.9563,-30.825,-2.2875,,adl
5.039592,0.0094,-0.006,0.014,0.0034,-0.0095,0.0001,-30.9563,-30.825,-2.2875,,adl
5.054476,0.0082,-0.023,-0.0024,0.0034,-0.0095,0.0001,-30.9563,-30.825,-2.2875,,adl
5.07412,-0.0073,0.0088,0.0452,0.0034,-0.0095,0.0001,-30.9563,-30.825,-2.2875,,adl
5.088024,-0.0073,0.0088,0.0452,0.0034,-0.0095,0.0001,-30.9563,-30.825,-2.2875,,adl
5.093254,0.0207,-0.0193,0.0688,0.0034,-0.0095,0.0001,-30.9563,-30.825,-2.2875,,adl
5.095592,0.0207,-0.0193,0.0688,0.0034,-0.0095,0.0001,-30.8438,-30.9563,-3.3188,,adl
5.098005,0.0207,-0.0193,0.0688,-0.0003,0.0015,0.0014,-30.8438,-30.9563,-3.3188,,adl
5.112682,0.0017,-0.0052,0.0327,-0.0003,0.0015,0.0014,-30.8438,-30.9563,-3.3188,,adl
5.131687,0.0156,-0.0105,0.0136,-0.0003,0.0015,0.0014,-30.8438,-30.9563,-3.3188,,adl
5.137335,0.0156,-0.0105,0.0136,-0.0003,0.0015,0.0014,-30.8438,-30.9563,-3.3188,,adl
5.150939,-0.0074,0.0018,0.0302,-0.0003,0.0015,0.0014,-30.8438,-30.9563,-3.3188,,adl
5.154247,-0.0074,0.0018,0.0302,-0.0003,0.0015,0.0014,-29.6063,-30.8063,-1.5938,,adl
5.160229,-0.0074,0.0018,0.0302,-0.0038,0.004,0.0014,-29.6063,-30.8063,-1.5938,,adl
5.169989,0.0294,-0.024,0.0587,-0.0038,0.004,0.0014,-29.6063,-30.8063,-1.5938,,adl
5.183025,0.0294,-0.024,0.0587,-0.0038,0.004,0.0014,-29.6063,-30.8063,-1.5938,,adl
5.193677,0.0101,-0.0262,0.03,-0.0038,0.004,0.0014,-29.6063,-30.8063,-1.5938,,adl
5.208277,-0.0162,-0.0047,0.03,-0.0038,0.004,0.0014,-29.6063,-30.8063,-1.5938,,adl
5.212923,-0.0162,-0.0047,0.03,-0.0038,0.004,0.0014,-30.675,-30.525,-2.4938,,adl
5.220452,-0.0162,-0.0047,0.03,-0.0027,0.0015,0.0014,-30.675,-30.525,-2.4938,,adl
5.226596,0.0131,-0.0142,0.0443,-0.0027,0.0015,0.0014,-30.675,-30.525,-2.4938,,adl
5.230349,0.0131,-0.0142,0.0443,-0.0027,0.0015,0.0014,-30.675,-30.525,-2.4938,,adl
5.246104,0.0178,-0.0119,0.0323,-0.0027,0.0015,0.0014,-30.675,-30.525,-2.4938,,adl
5.265911,0.015,-0.0053,0.0036,-0.0027,0.0015,0.0014,-30.675,-30.525,-2.4938,,adl
5.272353,0.015,-0.0053,0.0036,-0.0027,0.0015,0.0014,-30.8625,-30.4875,-2.7938,,adl
5.27925,0.015,-0.0053,0.0036,-0.0027,0.0015,0.0014,-30.8625,-30.4875,-2.7938,,adl
5.285165,0.015,-0.0053,0.0036,-0.0015,0.0102,0.0038,-30.8625,-30.4875,-2.7938,,adl
5.288033,0.0109,-0.0171,-0.0062,-0.0015,0.0102,0.0038,-30.8625,-30.4875,-2.7938,,adl
5.303021,0.0274,-0.0209,0.0532,-0.0015,0.0102,0.0038,-30.8625,-30.4875,-2.7938,,adl
5.322646,0.0005,-0.0224,0.0911,-0.0015,0.0102,0.0038,-30.8625,-30.4875,-2.7938,,adl
5.32659,0.0005,-0.0224,0.0911,-0.0015,0.0102,0.0038,-30.8625,-30.4875,-2.7938,,adl
5.332491,0.0005,-0.0224,0.0911,-0.0015,0.0102,0.0038,-31.35,-30.7125,-2.2688,,adl
5.341043,0.0093,-0.0012,0.0745,-0.0015,0.0102,0.0038,-31.35,-30.7125,-2.2688,,adl
5.345678,0.0093,-0.0012,0.0745,0.0034,-0.0131,-0.0011,-31.35,-30.7125,-2.2688,,adl
5.36025,-0.0002,0.019,0.0056,0.0034,-0.0131,-0.0011,-31.35,-30.7125,-2.2688,,adl
5.374819,-0.0002,0.019,0.0056,0.0034,-0.0131,-0.0011,-31.35,-30.7125,-2.2688,,adl
5.381309,0.0386,0.0205,-0.0203,0.0034,-0.0131,-0.0011,-31.35,-30.7125,-2.2688,,adl
5.392103,0.0386,0.0205,-0.0203,0.0034,-0.0131,-0.0011,-30.4688,-30.9188,-2.6063,,adl
5.398765,-0.0009,-0.0098,0.013,0.0034,-0.0131,-0.0011,-30.4688,-30.9188,-2.6063,,adl
5.408448,-0.0009,-0.0098,0.013,-0.0063,0.0162,0.0038,-30.4688,-30.9188,-2.6063,,adl
5.418954,0.0043,-0.025,0.0794,-0.0063,0.0162,0.0038,-30.4688,-30.9188,-2.6063,,adl
5.422271,0.0043,-0.025,0.0794,-0.0063,0.0162,0.0038,-30.4688,-30.9188,-2.6063,,adl
5.437625,0.005,-0.0172,0.1032,-0.0063,0.0162,0.0038,-30.4688,-30.9188,-2.6063,,adl
5.452257,0.005,-0.0172,0.1032,-0.0063,0.0162,0.0038,-30.7688,-30.6938,-2.7,,adl
5.456872,0.0126,-0.0153,0.0391,-0.0063,0.0162,0.0038,-30.7688,-30.6938,-2.7,,adl
5.469601,0.0126,-0.0153,0.0391,-0.0063,0.0162,0.0038,-30.7688,-30.6938,-2.7,,adl
5.470994,0.0126,-0.0153,0.0391,0.001,-0.0082,-0.0023,-30.7688,-30.6938,-2.7,,adl
5.475624,-0.001,-0.0179,0.0108,0.001,-0.0082,-0.0023,-30.7688,-30.6938,-2.7,,adl
5.494619,0.0007,-0.0131,0.0182,0.001,-0.0082,-0.0023,-30.7688,-30.6938,-2.7,,adl
5.51197,0.0007,-0.0131,0.0182,0.001,-0.0082,-0.0023,-31.1625,-30.6,-2.3813,,adl
5.513487,-0.002,-0.0311,0.0616,0.001,-0.0082,-0.0023,-31.1625,-30.6,-2.3813,,adl
5.516979,-0.002,-0.0311,0.0616,0.001,-0.0082,-0.0023,-31.1625,-30.6,-2.3813,,adl
5.53245,-0.002,-0.0311,0.0616,-0.0027,-0.0095,-0.0047,-31.1625,-30.6,-2.3813,,adl
5.535305,0.0163,-0.002,0.0954,-0.0027,-0.0095,-0.0047,-31.1625,-30.6,-2.3813,,adl
5.554169,0.0342,-0.0007,0.058,-0.0027,-0.0095,-0.0047,-31.1625,-30.6,-2.3813,,adl
5.565927,0.0342,-0.0007,0.058,-0.0027,-0.0095,-0.0047,-31.1625,-30.6,-2.3813,,adl
5.571501,0.0083,0.0143,-0.0631,-0.0027,-0.0095,-0.0047,-31.1625,-30.6,-2.3813,,adl
5.574361,0.0083,0.0143,-0.0631,-0.0027,-0.0095,-0.0047,-30.7688,-30.8063,-2.4938,,adl
5.590972,0.0071,0.0236,-0.0029,-0.0027,-0.0095,-0.0047,-30.7688,-30.8063,-2.4938,,adl
5.594006,0.0071,0.0236,-0.0029,-0.0063,0.0089,-0.0011,-30.7688,-30.8063,-2.4938,,adl
5.609982,0.0188,-0.0184,0.0756,-0.0063,0.0089,-0.0011,-30.7688,-30.8063,-2.4938,,adl
5.613209,0.0188,-0.0184,0.0756,-0.0063,0.0089,-0.0011,-30.7688,-30.8063,-2.4938,,adl
5.627717,0.017,-0.0228,0.0755,-0.0063,0.0089,-0.0011,-30.7688,-30.8063,-2.4938,,adl
5.631622,0.017,-0.0228,0.0755,-0.0063,0.0089,-0.0011,-30.975,-30.5063,-2.4938,,adl
5.648198,-0.0152,0.0074,0.0206,-0.0063,0.0089,-0.0011,-30.975,-30.5063,-2.4938,,adl
5.65648,-0.0152,0.0074,0.0206,0.0047,-0.0045,0.0026,-30.975,-30.5063,-2.4938,,adl
5.662402,-0.0152,0.0074,0.0206,0.0047,-0.0045,0.0026,-30.975,-30.5063,-2.4938,,adl
5.666907,0.0366,0.0065,-0.0056,0.0047,-0.0045,0.0026,-30.975,-30.5063,-2.4938,,adl
5.686558,0.014,0.0021,0.0372,0.0047,-0.0045,0.0026,-30.975,-30.5063,-2.4938,,adl
5.693869,0.014,0.0021,0.0372,0.0047,-0.0045,0.0026,-30.7688,-30.6938,-2.9062,,adl
5.704875,0.0065,-0.0118,0.0654,0.0047,-0.0045,0.0026,-30.7688,-30.6938,-2.9062,,adl
5.708904,0.0065,-0.0118,0.0654,0.0047,-0.0045,0.0026,-30.7688,-30.6938,-2.9062,,adl
5.722132,0.0065,-0.0118,0.0654,-0.0003,-0.0008,0.0014,-30.7688,-30.6938,-2.9062,,adl
5.726467,-0.0002,-0.0043,0.0796,-0.0003,-0.0008,0.0014,-30.7688,-30.6938,-2.9062,,adl
5.742182,-0.0057,0.0145,0.0463,-0.0003,-0.0008,0.0014,-30.7688,-30.6938,-2.9062,,adl
5.752157,-0.0057,0.0145,0.0463,-0.0003,-0.0008,0.0014,-31.35,-30.6938,-2.475,,adl
5.755714,-0.0057,0.0145,0.0463,-0.0003,-0.0008,0.0014,-31.35,-30.6938,-2.475,,adl
5.763478,0.0027,-0.0048,0.0107,-0.0003,-0.0008,0.0014,-31.35,-30.6938,-2.475,,adl
5.78053,0.0027,-0.0048,0.0107,-0.0015,0.004,0.0026,-31.35,-30.6938,-2.475,,adl
5.782393,0.0099,0.012,0.0011,-0.0015,0.004,0.0026,-31.35,-30.6938,-2.475,,adl
5.800963,0.0159,-0.0137,0.02,-0.0015,0.004,0.0026,-31.35,-30.6938,-2.475,,adl
5.804586,0.0159,-0.0137,0.02,-0.0015,0.004,0.0026,-31.35,-30.6938,-2.475,,adl
5.811502,0.0159,-0.0137,0.02,-0.0015,0.004,0.0026,-30.5625,-30.6938,-2.8125,,adl
5.820224,-0.0064,-0.0271,0.0436,-0.0015,0.004,0.0026,-30.5625,-30.6938,-2.8125,,adl
5.838905,-0.0054,-0.0195,0.0697,-0.0015,0.004,0.0026,-30.5625,-30.6938,-2.8125,,adl
5.842684,-0.0054,-0.0195,0.0697,0.001,0.0004,0.0014,-30.5625,-30.6938,-2.8125,,adl
5.852876,-0.0054,-0.0195,0.0697,0.001,0.0004,0.0014,-30.5625,-30.6938,-2.8125,,adl
5.858891,0.0065,-0.0149,0.041,0.001,0.0004,0.0014,-30.5625,-30.6938,-2.8125,,adl
5.873644,0.0065,-0.0149,0.041,0.001,0.0004,0.0014,-30.8625,-30.7125,-2.3813,,adl
5.877644,0.0268,-0.0245,0.0366,0.001,0.0004,0.0014,-30.8625,-30.7125,-2.3813,,adl
5.896932,0.0281,-0.003,0.0297,0.001,0.0004,0.0014,-30.8625,-30.7125,-2.3813,,adl
5.900215,0.0281,-0.003,0.0297,0.001,0.0004,0.0014,-30.8625,-30.7125,-2.3813,,adl
5.905057,0.0281,-0.003,0.0297,-0.0003,-0.0021,0.0001,-30.8625,-30.7125,-2.3813,,adl
5.915349,0.0154,-0.0147,0.0515,-0.0003,-0.0021,0.0001,-30.8625,-30.7125,-2.3813,,adl
5.933068,0.0154,-0.0147,0.0515,-0.0003,-0.0021,0.0001,-30.4688,-30.6938,-2.8125,,adl
5.93645,0.0002,-0.0315,0.0446,-0.0003,-0.0021,0.0001,-30.4688,-30.6938,-2.8125,,adl
5.947658,0.0002,-0.0315,0.0446,-0.0003,-0.0021,0.0001,-30.4688,-30.6938,-2.8125,,adl
5.953185,0.0087,-0.0074,0.0449,-0.0003,-0.0021,0.0001,-30.4688,-30.6938,-2.8125,,adl
5.967644,0.0087,-0.0074,0.0449,-0.0003,-0.0082,-0.0036,-30.4688,-30.6938,-2.8125,,adl
5.973215,-0.0021,0.0065,0.0308,-0.0003,-0.0082,-0.0036,-30.4688,-30.6938,-2.8125,,adl
5.993055,0.0016,0.0156,0.0239,-0.0003,-0.0082,-0.0036,-30.4688,-30.6938,-2.8125,,adl
5.996897,0.0016,0.0156,0.0239,-0.0003,-0.0082,-0.0036,-30.6563,-31.0125,-2.4938,,adl
5.998891,0.0016,0.0156,0.0239,-0.0003,-0.0082,-0.0036,-30.6563,-31.0125,-2.4938,,adl
6.01095,0.0178,0.0012,0.0169,-0.0003,-0.0082,-0.0036,-30.6563,-31.0125,-2.4938,,adl
6.02947,0.0178,0.0012,0.0169,-0.0015,0.0027,0.0038,-30.6563,-31.0125,-2.4938,,adl
6.032054,0.0083,-0.0244,0.0505,-0.0015,0.0027,0.0038,-30.6563,-31.0125,-2.4938,,adl
6.04399,0.0083,-0.0244,0.0505,-0.0015,0.0027,0.0038,-30.6563,-31.0125,-2.4938,,adl
6.048875,0.004,-0.0095,0.0265,-0.0015,0.0027,0.0038,-30.6563,-31.0125,-2.4938,,adl
6.051408,0.004,-0.0095,0.0265,-0.0015,0.0027,0.0038,-30.6563,-30.9,-2.8125,,adl
6.068752,-0.0105,0.0167,0.0481,-0.0015,0.0027,0.0038,-30.6563,-30.9,-2.8125,,adl
6.087678,0.0085,0.0069,0.0433,-0.0015,0.0027,0.0038,-30.6563,-30.9,-2.8125,,adl
6.092006,0.0085,0.0069,0.0433,-0.0015,0.0027,0.0038,-30.6563,-30.9,-2.8125,,adl
6.093317,0.0085,0.0069,0.0433,0.0022,-0.0008,0.0062,-30.6563,-30.9,-2.8125,,adl
6.107498,0.043,-0.0127,0.034,0.0022,-0.0008,0.0062,-30.6563,-30.9,-2.8125,,adl
6.112661,0.043,-0.0127,0.034,0.0022,-0.0008,0.0062,-30.9563,-30.9,-2.7,,adl
6.125811,0.0026,-0.0156,0.013,0.0022,-0.0008,0.0062,-30.9563,-30.9,-2.7,,adl
6.139283,0.0026,-0.0156,0.013,0.0022,-0.0008,0.0062,-30.9563,-30.9,-2.7,,adl
6.144697,0.0019,-0.0297,0.0324,0.0022,-0.0008,0.0062,-30.9563,-30.9,-2.7,,adl
6.153564,0.0019,-0.0297,0.0324,-0.0026,0.0027,-0.001,-30.9563,-30.9,-2.7,,adl
6.164482,0.0162,-0.0223,0.0588,-0.0026,0.0027,-0.001,-30.9563,-30.9,-2.7,,adl
6.17487,0.0162,-0.0223,0.0588,-0.0026,0.0027,-0.001,-31.2375,-30.7688,-3.0,,adl
6.183494,-0.0114,-0.0014,0.0615,-0.0026,0.0027,-0.001,-31.2375,-30.7688,-3.0,,adl
6.187958,-0.0114,-0.0014,0.0615,-0.0026,0.0027,-0.001,-31.2375,-30.7688,-3.0,,adl
6.201891,-0.0122,0.0242,0.0568,-0.0026,0.0027,-0.001,-31.2375,-30.7688,-3.0,,adl
6.215575,-0.0122,0.0242,0.0568,-0.0003,-0.0082,0.0001,-31.2375,-30.7688,-3.0,,adl
6.222006,0.0152,0.0024,0.0285,-0.0003,-0.0082,0.0001,-31.2375,-30.7688,-3.0,,adl
6.234764,0.0152,0.0024,0.0285,-0.0003,-0.0082,0.0001,-30.9563,-30.8063,-2.3813,,adl
6.23729,0.0152,0.0024,0.0285,-0.0003,-0.0082,0.0001,-30.9563,-30.8063,-2.3813,,adl
6.240126,-0.0004,-0.0123,0.0312,-0.0003,-0.0082,0.0001,-30.9563,-30.8063,-2.3813,,adl
6.260436,-0.0034,-0.0055,0.0241,-0.0003,-0.0082,0.0001,-30.9563,-30.8063,-2.3813,,adl
6.278342,-0.0034,-0.0055,0.0241,-0.0003,0.0004,0.0026,-30.9563,-30.8063,-2.3813,,adl
6.281369,0.0205,-0.0173,0.0194,-0.0003,0.0004,0.0026,-30.9563,-30.8063,-2.3813,,adl
6.282896,0.0205,-0.0173,0.0194,-0.0003,0.0004,0.0026,-30.9563,-30.8063,-2.3813,,adl
6.294227,0.0205,-0.0173,0.0194,-0.0003,0.0004,0.0026,-30.975,-30.3938,-2.7938,,adl
6.298158,0.0115,-0.0264,0.0408,-0.0003,0.0004,0.0026,-30.975,-30.3938,-2.7938,,adl
6.317402,0.0146,-0.0213,0.0502,-0.0003,0.0004,0.0026,-30.975,-30.3938,-2.7938,,adl
6.33076,0.0146,-0.0213,0.0502,-0.0003,0.0004,0.0026,-30.975,-30.3938,-2.7938,,adl
6.338479,-0.004,-0.0165,0.0525,-0.0003,0.0004,0.0026,-30.975,-30.3938,-2.7938,,adl
6.341238,-0.004,-0.0165,0.0525,-0.0003,-0.0021,-0.001,-30.975,-30.3938,-2.7938,,adl
6.351834,-0.004,-0.0165,0.0525,-0.0003,-0.0021,-0.001,-30.5625,-30.8063,-2.7188,,adl
6.354646,-0.0115,-0.0142,0.0597,-0.0003,-0.0021,-0.001,-30.5625,-30.8063,-2.7188,,adl
6.374681,0.0036,-0.0095,0.0339,-0.0003,-0.0021,-0.001,-30.5625,-30.8063,-2.7188,,adl
6.379336,0.0036,-0.0095,0.0339,-0.0003,-0.0021,-0.001,-30.5625,-30.8063,-2.7188,,adl
6.39384,0.026,0.0045,0.0007,-0.0003,-0.0021,-0.001,-30.5625,-30.8063,-2.7188,,adl
6.405219,0.026,0.0045,0.0007,0.001,-0.0033,0.0026,-30.5625,-30.8063,-2.7188,,adl
6.412596,0.0356,-0.0288,-0.0136,0.001,-0.0033,0.0026,-30.5625,-30.8063,-2.7188,,adl
6.413569,0.0356,-0.0288,-0.0136,0.001,-0.0033,0.0026,-30.2813,-30.6188,-2.5125,,adl
6.426118,0.0356,-0.0288,-0.0136,0.001,-0.0033,0.0026,-30.2813,-30.6188,-2.5125,,adl
6.431954,-0.0029,-0.0304,0.0122,0.001,-0.0033,0.0026,-30.2813,-30.6188,-2.5125,,adl
6.451265,0.0334,-0.0552,0.0691,0.001,-0.0033,0.0026,-30.2813,-30.6188,-2.5125,,adl
6.464614,0.0334,-0.0552,0.0691,-0.0014,0.004,-0.0034,-30.2813,-30.6188,-2.5125,,adl
6.471103,-0.0289,-0.0211,0.0996,-0.0014,0.004,-0.0034,-30.2813,-30.6188,-2.5125,,adl
6.473447,-0.0289,-0.0211,0.0996,-0.0014,0.004,-0.0034,-31.275,-30.3,-2.3813,,adl
6.473965,-0.0289,-0.0211,0.0996,-0.0014,0.004,-0.0034,-31.275,-30.3,-2.3813,,adl
6.489749,-0.01,-0.0023,0.0781,-0.0014,0.004,-0.0034,-31.275,-30.3,-2.3813,,adl
6.508845,0.0091,-0.0056,0.0068,-0.0014,0.004,-0.0034,-31.275,-30.3,-2.3813,,adl
6.522983,0.0091,-0.0056,0.0068,-0.0014,0.004,-0.0034,-31.275,-30.3,-2.3813,,adl
6.526541,0.0091,-0.0056,0.0068,-0.0003,-0.0058,-0.001,-31.275,-30.3,-2.3813,,adl
6.528731,0.0269,-0.006,0.0024,-0.0003,-0.0058,-0.001,-31.275,-30.3,-2.3813,,adl
6.532109,0.0269,-0.006,0.0024,-0.0003,-0.0058,-0.001,-30.5625,-30.5813,-3.225,,adl
6.54662,0.0035,-0.0131,0.019,-0.0003,-0.0058,-0.001,-30.5625,-30.5813,-3.225,,adl
6.565909,0.0148,-0.0222,0.0473,-0.0003,-0.0058,-0.001,-30.5625,-30.5813,-3.225,,adl
6.572296,0.0148,-0.0222,0.0473,-0.0003,-0.0058,-0.001,-30.5625,-30.5813,-3.225,,adl
6.585759,-0.0642,0.0236,0.0969,-0.0003,-0.0058,-0.001,-30.5625,-30.5813,-3.225,,adl
6.589185,-0.0642,0.0236,0.0969,-0.0038,-0.0045,-0.0022,-30.5625,-30.5813,-3.225,,adl
6.594304,-0.0642,0.0236,0.0969,-0.0038,-0.0045,-0.0022,-30.7688,-30.825,-2.2875,,adl
6.60461,-0.0476,0.0658,0.0992,-0.0038,-0.0045,-0.0022,-30.7688,-30.825,-2.2875,,adl
6.617341,-0.0476,0.0658,0.0992,-0.0038,-0.0045,-0.0022,-30.7688,-30.825,-2.2875,,adl
6.623444,0.0732,0.0035,0.0859,-0.0038,-0.0045,-0.0022,-30.7688,-30.825,-2.2875,,adl
6.642205,0.13,-0.0142,0.0019,-0.0038,-0.0045,-0.0022,-30.7688,-30.825,-2.2875,,adl
6.65069,0.13,-0.0142,0.0019,0.0084,-0.0228,0.0076,-30.7688,-30.825,-2.2875,,adl
6.652158,0.13,-0.0142,0.0019,0.0084,-0.0228,0.0076,-31.05,-30.9,-2.3813,,adl
6.661019,0.0301,-0.0526,-0.1333,0.0084,-0.0228,0.0076,-31.05,-30.9,-2.3813,,adl
6.665506,0.0301,-0.0526,-0.1333,0.0084,-0.0228,0.0076,-31.05,-30.9,-2.3813,,adl
6.680192,0.0249,-0.0455,-0.0337,0.0084,-0.0228,0.0076,-31.05,-30.9,-2.3813,,adl
6.699931,-0.0092,-0.0563,0.1469,0.0084,-0.0228,0.0076,-31.05,-30.9,-2.3813,,adl
6.712794,-0.0092,-0.0563,0.1469,0.0084,-0.0228,0.0076,-31.0688,-30.6,-2.5875,,adl
6.715204,-0.0092,-0.0563,0.1469,0.0084,-0.0228,0.0076,-31.0688,-30.6,-2.5875,,adl
6.717456,-0.0092,-0.0563,0.1469,-0.0063,0.0004,-0.0096,-31.0688,-30.6,-2.5875,,adl
6.719502,0.0099,-0.1164,0.1345,-0.0063,0.0004,-0.0096,-31.0688,-30.6,-2.5875,,adl
6.736856,-0.0106,0.1085,0.0634,-0.0063,0.0004,-0.0096,-31.0688,-30.6,-2.5875,,adl
6.756643,-0.0212,0.1349,-0.0345,-0.0063,0.0004,-0.0096,-31.0688,-30.6,-2.5875,,adl
6.76111,-0.0212,0.1349,-0.0345,-0.0063,0.0004,-0.0096,-31.0688,-30.6,-2.5875,,adl
6.772505,-0.0212,0.1349,-0.0345,-0.0063,0.0004,-0.0096,-30.4688,-30.7125,-2.5125,,adl
6.775446,-0.0212,0.1349,-0.0345,0.0059,-0.0033,0.0234,-30.4688,-30.7125,-2.5125,,adl
6.777777,0.1102,0.0324,-0.0962,0.0059,-0.0033,0.0234,-30.4688,-30.7125,-2.5125,,adl
6.795604,0.1,-0.0875,-0.1228,0.0059,-0.0033,0.0234,-30.4688,-30.7125,-2.5125,,adl
6.808923,0.1,-0.0875,-0.1228,0.0059,-0.0033,0.0234,-30.4688,-30.7125,-2.5125,,adl
6.816252,0.044,-0.1472,0.0047,0.0059,-0.0033,0.0234,-30.4688,-30.7125,-2.5125,,adl
6.832217,0.044,-0.1472,0.0047,0.0059,-0.0033,0.0234,-30.2625,-30.9188,-2.5125,,adl
6.833611,-0.0114,-0.1806,0.1529,0.0059,-0.0033,0.0234,-30.2625,-30.9188,-2.5125,,adl
6.837181,-0.0114,-0.1806,0.1529,-0.0063,0.0432,-0.0096,-30.2625,-30.9188,-2.5125,,adl
6.853062,-0.0719,-0.2134,0.1346,-0.0063,0.0432,-0.0096,-30.2625,-30.9188,-2.5125,,adl
6.856922,-0.0719,-0.2134,0.1346,-0.0063,0.0432,-0.0096,-30.2625,-30.9188,-2.5125,,adl
6.871422,-0.1115,0.1405,0.1527,-0.0063,0.0432,-0.0096,-30.2625,-30.9188,-2.5125,,adl
6.891105,0.0407,0.3072,0.0826,-0.0063,0.0432,-0.0096,-30.2625,-30.9188,-2.5125,,adl
6.892699,0.0407,0.3072,0.0826,-0.0063,0.0432,-0.0096,-30.4875,-30.5063,-2.6063,,adl
6.899294,0.0407,0.3072,0.0826,0.0206,-0.0205,0.0111,-30.4875,-30.5063,-2.6063,,adl
6.904996,0.0407,0.3072,0.0826,0.0206,-0.0205,0.0111,-30.4875,-30.5063,-2.6063,,adl
6.90932,0.1719,0.1405,-0.149,0.0206,-0.0205,0.0111,-30.4875,-30.5063,-2.6063,,adl
6.929209,0.1185,0.0194,-0.1175,0.0206,-0.0205,0.0111,-30.4875,-30.5063,-2.6063,,adl
6.948729,0.0217,-0.0562,0.0652,0.0206,-0.0205,0.0111,-30.4875,-30.5063,-2.6063,,adl
6.952485,0.0217,-0.0562,0.0652,0.0206,-0.0205,0.0111,-30.4875,-30.5063,-2.6063,,adl
6.9545,0.0217,-0.0562,0.0652,0.0206,-0.0205,0.0111,-31.1625,-30.6,-2.3813,,adl
6.961818,0.0217,-0.0562,0.0652,-0.01,0.0443,0.0161,-31.1625,-30.6,-2.3813,,adl
6.966915,0.0496,-0.3815,0.0398,-0.01,0.0443,0.0161,-31.1625,-30.6,-2.3813,,adl
6.987097,-0.2403,-0.4222,-0.0983,-0.01,0.0443,0.0161,-31.1625,-30.6,-2.3813,,adl
7.00027,-0.2403,-0.4222,-0.0983,-0.01,0.0443,0.0161,-31.1625,-30.6,-2.3813,,adl
7.005455,-0.2152,0.1849,0.2976,-0.01,0.0443,0.0161,-31.1625,-30.6,-2.3813,,adl
7.011963,-0.2152,0.1849,0.2976,-0.01,0.0443,0.0161,-30.7688,-30.5813,-2.9062,,adl
7.023923,-0.2152,0.1849,0.2976,0.0217,-0.0608,0.0001,-30.7688,-30.5813,-2.9062,,adl
7.025525,0.1723,0.4235,0.426,0.0217,-0.0608,0.0001,-30.7688,-30.5813,-2.9062,,adl
7.043489,0.2659,0.2642,-0.1061,0.0217,-0.0608,0.0001,-30.7688,-30.5813,-2.9062,,adl
7.047894,0.2659,0.2642,-0.1061,0.0217,-0.0608,0.0001,-30.7688,-30.5813,-2.9062,,adl
7.063371,0.0962,0.2707,-0.3925,0.0217,-0.0608,0.0001,-30.7688,-30.5813,-2.9062,,adl
7.073489,0.0962,0.2707,-0.3925,0.0217,-0.0608,0.0001,-31.0688,-30.4875,-2.9062,,adl
7.083443,0.1621,0.0399,-0.0509,0.0217,-0.0608,0.0001,-31.0688,-30.4875,-2.9062,,adl
7.08577,0.1621,0.0399,-0.0509,-0.0368,0.0773,0.0576,-31.0688,-30.4875,-2.9062,,adl
7.095428,0.1621,0.0399,-0.0509,-0.0368,0.0773,0.0576,-31.0688,-30.4875,-2.9062,,adl
7.10128,0.0168,-0.3968,-0.0824,-0.0368,0.0773,0.0576,-31.0688,-30.4875,-2.9062,,adl
7.120761,-0.2287,-1.0349,-0.3007,-0.0368,0.0773,0.0576,-31.0688,-30.4875,-2.9062,,adl
7.133219,-0.2287,-1.0349,-0.3007,-0.0368,0.0773,0.0576,-30.975,-30.5063,-2.5875,,adl
7.139223,-0.401,-0.3993,0.346,-0.0368,0.0773,0.0576,-30.975,-30.5063,-2.5875,,adl
7.142842,-0.401,-0.3993,0.346,-0.0368,0.0773,0.0576,-30.975,-30.5063,-2.5875,,adl
7.14757,-0.401,-0.3993,0.346,-0.0161,0.0712,-0.0914,-30.975,-30.5063,-2.5875,,adl
7.159378,-0.2529,0.3943,0.7265,-0.0161,0.0712,-0.0914,-30.975,-30.5063,-2.5875,,adl
7.177858,0.5278,0.369,0.2975,-0.0161,0.0712,-0.0914,-30.975,-30.5063,-2.5875,,adl
7.191994,0.5278,0.369,0.2975,-0.0161,0.0712,-0.0914,-30.975,-30.5063,-2.5875,,adl
7.194448,0.5278,0.369,0.2975,-0.0161,0.0712,-0.0914,-30.4688,-30.7313,-2.4,,adl
7.196671,0.524,0.5407,-0.2983,-0.0161,0.0712,-0.0914,-30.4688,-30.7313,-2.4,,adl
7.210729,0.524,0.5407,-0.2983,0.0034,-0.0131,0.0331,-30.4688,-30.7313,-2.4,,adl
7.215134,0.1792,0.7347,-0.3448,0.0034,-0.0131,0.0331,-30.4688,-30.7313,-2.4,,adl
7.234615,-0.0163,0.4098,-0.2579,0.0034,-0.0131,0.0331,-30.4688,-30.7313,-2.4,,adl
7.239036,-0.0163,0.4098,-0.2579,0.0034,-0.0131,0.0331,-30.4688,-30.7313,-2.4,,adl
7.252587,-0.0163,0.4098,-0.2579,0.0034,-0.0131,0.0331,-31.3688,-30.3938,-2.6813,,adl
7.255116,-0.0379,-0.1112,-0.2284,0.0034,-0.0131,0.0331,-31.3688,-30.3938,-2.6813,,adl
7.273156,-0.0379,-0.1112,-0.2284,-0.0454,0.1848,0.0209,-31.3688,-30.3938,-2.6813,,adl
7.276945,-0.4443,-0.6896,-0.1617,-0.0454,0.1848,0.0209,-31.3688,-30.3938,-2.6813,,adl
7.286236,-0.4443,-0.6896,-0.1617,-0.0454,0.1848,0.0209,-31.3688,-30.3938,-2.6813,,adl
7.292766,-0.5711,-0.7983,0.3471,-0.0454,0.1848,0.0209,-31.3688,-30.3938,-2.6813,,adl
7.31188,0.1084,-0.6814,0.9399,-0.0454,0.1848,0.0209,-31.3688,-30.3938,-2.6813,,adl
7.313698,0.1084,-0.6814,0.9399,-0.0454,0.1848,0.0209,-31.5563,-30.45,-3.3,,adl
7.330683,0.378,0.0821,0.6813,-0.0454,0.1848,0.0209,-31.5563,-30.45,-3.3,,adl
7.33464,0.378,0.0821,0.6813,-0.0454,0.1848,0.0209,-31.5563,-30.45,-3.3,,adl
7.336556,0.378,0.0821,0.6813,0.1012,-0.2746,-0.0584,-31.5563,-30.45,-3.3,,adl
7.349469,0.4911,0.548,-0.1419,0.1012,-0.2746,-0.0584,-31.5563,-30.45,-3.3,,adl
7.369329,0.1772,0.6716,-0.8297,0.1012,-0.2746,-0.0584,-31.5563,-30.45,-3.3,,adl
7.373638,0.1772,0.6716,-0.8297,0.1012,-0.2746,-0.0584,-30.975,-30.4125,-2.4938,,adl
7.384347,0.1772,0.6716,-0.8297,0.1012,-0.2746,-0.0584,-30.975,-30.4125,-2.4938,,adl
7.388133,-0.0329,0.4408,-0.7725,0.1012,-0.2746,-0.0584,-30.975,-30.4125,-2.4938,,adl
7.396245,-0.0329,0.4408,-0.7725,-0.0759,0.1628,0.0514,-30.975,-30.4125,-2.4938,,adl
7.407817,-0.1421,0.148,-0.1574,-0.0759,0.1628,0.0514,-30.975,-30.4125,-2.4938,,adl
7.426928,-0.185,-0.095,0.4703,-0.0759,0.1628,0.0514,-30.975,-30.4125,-2.4938,,adl
7.430764,-0.185,-0.095,0.4703,-0.0759,0.1628,0.0514,-30.975,-30.4125,-2.4938,,adl
7.432999,-0.185,-0.095,0.4703,-0.0759,0.1628,0.0514,-31.2563,-30.7688,-2.9062,,adl
7.445184,-0.1333,-0.3095,0.6621,-0.0759,0.1628,0.0514,-31.2563,-30.7688,-2.9062,,adl
7.459889,-0.1333,-0.3095,0.6621,0.0047,-0.0583,0.0001,-31.2563,-30.7688,-2.9062,,adl
7.464956,-0.0481,-1.1053,0.1169,0.0047,-0.0583,0.0001,-31.2563,-30.7688,-2.9062,,adl
7.477816,-0.0481,-1.1053,0.1169,0.0047,-0.0583,0.0001,-31.2563,-30.7688,-2.9062,,adl
7.483052,-0.0302,-0.4786,0.1375,0.0047,-0.0583,0.0001,-31.2563,-30.7688,-2.9062,,adl
7.494329,-0.0302,-0.4786,0.1375,0.0047,-0.0583,0.0001,-31.4438,-30.6563,-3.0,,adl
7.505454,0.051,0.4014,0.3736,0.0047,-0.0583,0.0001,-31.4438,-30.6563,-3.0,,adl
7.52159,0.051,0.4014,0.3736,0.0792,-0.2001,0.0063,-31.4438,-30.6563,-3.0,,adl
7.525173,0.4851,0.4623,-0.1386,0.0792,-0.2001,0.0063,-31.4438,-30.6563,-3.0,,adl
7.527705,0.4851,0.4623,-0.1386,0.0792,-0.2001,0.0063,-31.4438,-30.6563,-3.0,,adl
7.540824,0.2427,0.4062,-0.7829,0.0792,-0.2001,0.0063,-31.4438,-30.6563,-3.0,,adl
7.552149,0.2427,0.4062,-0.7829,0.0792,-0.2001,0.0063,-30.8625,-30.9,-2.4938,,adl
7.560875,-0.0782,0.3072,-0.3911,0.0792,-0.2001,0.0063,-30.8625,-30.9,-2.4938,,adl
7.574441,-0.0782,0.3072,-0.3911,0.0792,-0.2001,0.0063,-30.8625,-30.9,-2.4938,,adl
7.578741,-0.1663,0.0198,0.1781,0.0792,-0.2001,0.0063,-30.8625,-30.9,-2.4938,,adl
7.582742,-0.1663,0.0198,0.1781,-0.0686,0.147,0.0381,-30.8625,-30.9,-2.4938,,adl
7.598619,-0.1342,-0.1362,0.4432,-0.0686,0.147,0.0381,-30.8625,-30.9,-2.4938,,adl
7.613918,-0.1342,-0.1362,0.4432,-0.0686,0.147,0.0381,-30.975,-30.5063,-2.5875,,adl
7.616952,0.0591,-0.8574,0.0847,-0.0686,0.147,0.0381,-30.975,-30.5063,-2.5875,,adl
7.620957,0.0591,-0.8574,0.0847,-0.0686,0.147,0.0381,-30.975,-30.5063,-2.5875,,adl
7.637667,-0.1687,-0.7845,-0.0674,-0.0686,0.147,0.0381,-30.975,-30.5063,-2.5875,,adl
7.645695,-0.1687,-0.7845,-0.0674,-0.0014,0.0553,-0.0877,-30.975,-30.5063,-2.5875,,adl
7.656049,-0.166,0.2275,0.5398,-0.0014,0.0553,-0.0877,-30.975,-30.5063,-2.5875,,adl
7.672361,-0.166,0.2275,0.5398,-0.0014,0.0553,-0.0877,-30.975,-30.5063,-2.5875,,adl
7.673651,-0.166,0.2275,0.5398,-0.0014,0.0553,-0.0877,-31.35,-30.5625,-2.8875,,adl
7.674544,0.2891,0.6492,0.5098,-0.0014,0.0553,-0.0877,-31.35,-30.5625,-2.8875,,adl
7.696338,0.5388,0.3563,-0.4544,-0.0014,0.0553,-0.0877,-31.35,-30.5625,-2.8875,,adl
7.707262,0.5388,0.3563,-0.4544,0.0157,-0.0241,0.0356,-31.35,-30.5625,-2.8875,,adl
7.713194,0.0655,0.4563,-0.693,0.0157,-0.0241,0.0356,-31.35,-30.5625,-2.8875,,adl
7.71695,0.0655,0.4563,-0.693,0.0157,-0.0241,0.0356,-31.35,-30.5625,-2.8875,,adl
7.732914,-0.1421,0.2192,-0.2388,0.0157,-0.0241,0.0356,-31.35,-30.5625,-2.8875,,adl
7.736946,-0.1421,0.2192,-0.2388,0.0157,-0.0241,0.0356,-31.0688,-30.2813,-2.7938,,adl
7.751911,-0.2192,-0.0418,0.1482,0.0157,-0.0241,0.0356,-31.0688,-30.2813,-2.7938,,adl
7.766539,-0.2192,-0.0418,0.1482,0.0157,-0.0241,0.0356,-31.0688,-30.2813,-2.7938,,adl
7.769879,-0.2192,-0.0418,0.1482,-0.0418,0.0663,0.0234,-31.0688,-30.2813,-2.7938,,adl
7.772466,-0.1332,-0.4642,0.3425,-0.0418,0.0663,0.0234,-31.0688,-30.2813,-2.7938,,adl
7.789999,-0.165,-0.8429,0.1773,-0.0418,0.0663,0.0234,-31.0688,-30.2813,-2.7938,,adl
7.79195,-0.165,-0.8429,0.1773,-0.0418,0.0663,0.0234,-30.7688,-30.6,-2.8125,,adl
7.808831,-0.1036,-0.6234,0.2696,-0.0418,0.0663,0.0234,-30.7688,-30.6,-2.8125,,adl
7.814803,-0.1036,-0.6234,0.2696,-0.0418,0.0663,0.0234,-30.7688,-30.6,-2.8125,,adl
7.827312,0.1841,0.1604,0.4734,-0.0418,0.0663,0.0234,-30.7688,-30.6,-2.8125,,adl
7.831553,0.1841,0.1604,0.4734,0.0584,-0.1609,-0.0572,-30.7688,-30.6,-2.8125,,adl
7.84799,0.4856,0.5361,0.1678,0.0584,-0.1609,-0.0572,-30.7688,-30.6,-2.8125,,adl
7.860123,0.4856,0.5361,0.1678,0.0584,-0.1609,-0.0572,-30.6563,-30.9,-2.6063,,adl
7.861532,0.4856,0.5361,0.1678,0.0584,-0.1609,-0.0572,-30.6563,-30.9,-2.6063,,adl
7.866315,0.3843,0.5291,-0.6521,0.0584,-0.1609,-0.0572,-30.6563,-30.9,-2.6063,,adl
7.885505,-0.0072,0.4442,-0.7529,0.0584,-0.1609,-0.0572,-30.6563,-30.9,-2.6063,,adl
7.895501,-0.0072,0.4442,-0.7529,-0.0661,0.1665,0.0478,-30.6563,-30.9,-2.6063,,adl
7.905129,-0.2892,0.1654,-0.1747,-0.0661,0.1665,0.0478,-30.6563,-30.9,-2.6063,,adl
7.908684,-0.2892,0.1654,-0.1747,-0.0661,0.1665,0.0478,-30.6563,-30.9,-2.6063,,adl
7.912257,-0.2892,0.1654,-0.1747,-0.0661,0.1665,0.0478,-31.2563,-30.5813,-2.7938,,adl
7.923023,-0.3253,-0.0062,0.5321,-0.0661,0.1665,0.0478,-31.2563,-30.5813,-2.7938,,adl
7.942867,-0.0974,-0.2378,0.7381,-0.0661,0.1665,0.0478,-31.2563,-30.5813,-2.7938,,adl
7.956056,-0.0974,-0.2378,0.7381,-0.0661,0.1665,0.0478,-31.2563,-30.5813,-2.7938,,adl
7.95642,-0.0974,-0.2378,0.7381,0.0022,-0.1365,-0.0121,-31.2563,-30.5813,-2.7938,,adl
7.961389,-0.0592,-0.3839,0.4421,0.0022,-0.1365,-0.0121,-31.2563,-30.5813,-2.7938,,adl
7.972,-0.0592,-0.3839,0.4421,0.0022,-0.1365,-0.0121,-30.8625,-30.5813,-2.9062,,adl
7.982504,0.0384,-0.4569,-0.0147,0.0022,-0.1365,-0.0121,-30.8625,-30.5813,-2.9062,,adl
8.000689,0.2509,-0.4128,-0.3468,0.0022,-0.1365,-0.0121,-30.8625,-30.5813,-2.9062,,adl
8.005245,0.2509,-0.4128,-0.3468,0.0022,-0.1365,-0.0121,-30.8625,-30.5813,-2.9062,,adl
8.018784,0.2509,-0.4128,-0.3468,0.045,-0.0375,-0.0254,-30.8625,-30.5813,-2.9062,,adl
8.021956,0.225,0.1771,-0.2612,0.045,-0.0375,-0.0254,-30.8625,-30.5813,-2.9062,,adl
8.032196,0.225,0.1771,-0.2612,0.045,-0.0375,-0.0254,-31.35,-30.5813,-2.5875,,adl
8.037873,0.282,0.5074,-0.1582,0.045,-0.0375,-0.0254,-31.35,-30.5813,-2.5875,,adl
8.05213,0.282,0.5074,-0.1582,0.045,-0.0375,-0.0254,-31.35,-30.5813,-2.5875,,adl
8.057501,0.1918,0.2858,-0.3554,0.045,-0.0375,-0.0254,-31.35,-30.5813,-2.5875,,adl
8.076464,-0.0538,0.0229,-0.1328,0.045,-0.0375,-0.0254,-31.35,-30.5813,-2.5875,,adl
8.082697,-0.0538,0.0229,-0.1328,-0.0736,0.1628,0.0406,-31.35,-30.5813,-2.5875,,adl
8.094833,-0.0538,0.0229,-0.1328,-0.0736,0.1628,0.0406,-30.975,-30.4125,-2.4938,,adl
8.097952,-0.1375,-0.0913,0.4613,-0.0736,0.1628,0.0406,-30.975,-30.4125,-2.4938,,adl
8.100906,-0.1375,-0.0913,0.4613,-0.0736,0.1628,0.0406,-30.975,-30.4125,-2.4938,,adl
8.114996,-0.1977,-0.106,0.475,-0.0736,0.1628,0.0406,-30.975,-30.4125,-2.4938,,adl
8.134064,-0.0586,-0.2293,0.1523,-0.0736,0.1628,0.0406,-30.975,-30.4125,-2.4938,,adl
8.143106,-0.0586,-0.2293,0.1523,0.0107,-0.0901,-0.023,-30.975,-30.4125,-2.4938,,adl
8.150703,-0.0586,-0.2293,0.1523,0.0107,-0.0901,-0.023,-30.975,-30.4125,-2.4938,,adl
8.153283,-0.0586,-0.2293,0.1523,0.0107,-0.0901,-0.023,-31.4438,-30.6938,-2.3813,,adl
8.153766,-0.0158,-0.1756,0.0156,0.0107,-0.0901,-0.023,-31.4438,-30.6938,-2.3813,,adl
8.172231,0.0413,-0.0381,-0.0073,0.0107,-0.0901,-0.023,-31.4438,-30.6938,-2.3813,,adl
8.191474,0.2019,-0.0756,-0.1689,0.0107,-0.0901,-0.023,-31.4438,-30.6938,-2.3813,,adl
8.195959,0.2019,-0.0756,-0.1689,0.0107,-0.0901,-0.023,-31.4438,-30.6938,-2.3813,,adl
8.20455,0.2019,-0.0756,-0.1689,0.0267,-0.0155,-0.0059,-31.4438,-30.6938,-2.3813,,adl
8.210955,0.2664,-0.2103,-0.3145,0.0267,-0.0155,-0.0059,-31.4438,-30.6938,-2.3813,,adl
8.212387,0.2664,-0.2103,-0.3145,0.0267,-0.0155,-0.0059,-31.0688,-30.6,-2.5875,,adl
8.22961,0.005,0.1207,-0.1308,0.0267,-0.0155,-0.0059,-31.0688,-30.6,-2.5875,,adl
8.243556,0.005,0.1207,-0.1308,0.0267,-0.0155,-0.0059,-31.0688,-30.6,-2.5875,,adl
8.249437,-0.0347,0.4351,0.21,0.0267,-0.0155,-0.0059,-31.0688,-30.6,-2.5875,,adl
8.266983,-0.0347,0.4351,0.21,-0.0038,0.0285,0.0186,-31.0688,-30.6,-2.5875,,adl
8.270636,-0.0254,0.2029,0.1347,-0.0038,0.0285,0.0186,-31.0688,-30.6,-2.5875,,adl
8.273438,-0.0254,0.2029,0.1347,-0.0038,0.0285,0.0186,-31.1625,-30.6188,-2.175,,adl
8.287206,-0.0509,0.0361,0.1168,-0.0038,0.0285,0.0186,-31.1625,-30.6188,-2.175,,adl
8.291132,-0.0509,0.0361,0.1168,-0.0038,0.0285,0.0186,-31.1625,-30.6188,-2.175,,adl
8.30615,0.0517,-0.0631,0.2759,-0.0038,0.0285,0.0186,-31.1625,-30.6188,-2.175,,adl
8.328193,0.0001,-0.0545,0.0679,-0.0038,0.0285,0.0186,-31.1625,-30.6188,-2.175,,adl
8.331153,0.0001,-0.0545,0.0679,0.0084,-0.062,0.0051,-31.1625,-30.6188,-2.175,,adl
8.333656,0.0001,-0.0545,0.0679,0.0084,-0.062,0.0051,-31.2563,-30.525,-2.175,,adl
8.338308,0.0001,-0.0545,0.0679,0.0084,-0.062,0.0051,-31.2563,-30.525,-2.175,,adl
8.343959,0.0033,-0.1113,-0.1042,0.0084,-0.062,0.0051,-31.2563,-30.525,-2.175,,adl
8.363581,0.0054,-0.147,-0.0958,0.0084,-0.062,0.0051,-31.2563,-30.525,-2.175,,adl
8.383559,0.0154,-0.0709,0.0042,0.0084,-0.062,0.0051,-31.2563,-30.525,-2.175,,adl
8.387295,0.0154,-0.0709,0.0042,0.0084,-0.062,0.0051,-31.2563,-30.525,-2.175,,adl
8.390374,0.0154,-0.0709,0.0042,0.0022,0.0137,0.0001,-31.2563,-30.525,-2.175,,adl
8.393257,0.0154,-0.0709,0.0042,0.0022,0.0137,0.0001,-30.8813,-30.5063,-2.4938,,adl
8.401749,0.1176,-0.1492,0.059,0.0022,0.0137,0.0001,-30.8813,-30.5063,-2.4938,,adl
8.420989,0.0455,-0.2312,-0.07,0.0022,0.0137,0.0001,-30.8813,-30.5063,-2.4938,,adl
8.4351,0.0455,-0.2312,-0.07,0.0022,0.0137,0.0001,-30.8813,-30.5063,-2.4938,,adl
8.439912,0.0397,-0.0426,0.0366,0.0022,0.0137,0.0001,-30.8813,-30.5063,-2.4938,,adl
8.451212,0.0397,-0.0426,0.0366,0.0022,0.0137,0.0001,-30.6563,-30.7875,-2.9062,,adl
8.453287,0.0397,-0.0426,0.0366,0.012,0.0175,-0.0329,-30.6563,-30.7875,-2.9062,,adl
8.462529,0.0073,0.3751,0.197,0.012,0.0175,-0.0329,-30.6563,-30.7875,-2.9062,,adl
8.477898,0.0963,0.3309,-0.0045,0.012,0.0175,-0.0329,-30.6563,-30.7875,-2.9062,,adl
8.481681,0.0963,0.3309,-0.0045,0.012,0.0175,-0.0329,-30.6563,-30.7875,-2.9062,,adl
8.49819,-0.0084,0.1728,-0.1552,0.012,0.0175,-0.0329,-30.6563,-30.7875,-2.9062,,adl
8.512727,-0.0084,0.1728,-0.1552,0.012,0.0175,-0.0329,-30.8625,-30.9,-2.7,,adl
8.516514,-0.0084,0.1728,-0.1552,-0.0331,0.0247,0.0271,-30.8625,-30.9,-2.7,,adl
8.517599,0.0229,0.032,0.1075,-0.0331,0.0247,0.0271,-30.8625,-30.9,-2.7,,adl
8.530313,0.0229,0.032,0.1075,-0.0331,0.0247,0.0271,-30.8625,-30.9,-2.7,,adl
8.535136,0.0173,-0.1017,0.1023,-0.0331,0.0247,0.0271,-30.8625,-30.9,-2.7,,adl
8.554981,-0.036,-0.1071,0.0802,-0.0331,0.0247,0.0271,-30.8625,-30.9,-2.7,,adl
8.57241,-0.036,-0.1071,0.0802,-0.0331,0.0247,0.0271,-30.975,-30.4875,-2.9062,,adl
8.575523,-0.0123,-0.1796,0.0515,-0.0331,0.0247,0.0271,-30.975,-30.4875,-2.9062,,adl
8.5782,-0.0123,-0.1796,0.0515,-0.0331,0.0247,0.0271,-30.975,-30.4875,-2.9062,,adl
8.580373,-0.0123,-0.1796,0.0515,-0.0026,-0.007,0.0063,-30.975,-30.4875,-2.9062,,adl
8.593649,-0.0035,-0.2256,0.0811,-0.0026,-0.007,0.0063,-30.975,-30.4875,-2.9062,,adl
8.612581,0.0374,-0.2351,0.0733,-0.0026,-0.007,0.0063,-30.975,-30.4875,-2.9062,,adl
8.628334,0.0374,-0.2351,0.0733,-0.0026,-0.007,0.0063,-30.975,-30.4875,-2.9062,,adl
8.631161,0.1904,-0.3489,-0.0809,-0.0026,-0.007,0.0063,-30.975,-30.4875,-2.9062,,adl
8.633493,0.1904,-0.3489,-0.0809,-0.0026,-0.007,0.0063,-31.2563,-30.6,-2.3813,,adl
8.640149,0.1904,-0.3489,-0.0809,0.0217,-0.0302,-0.0609,-31.2563,-30.6,-2.3813,,adl
8.649984,0.0415,-0.204,-0.2081,0.0217,-0.0302,-0.0609,-31.2563,-30.6,-2.3813,,adl
8.671514,-0.0704,0.2735,-0.0742,0.0217,-0.0302,-0.0609,-31.2563,-30.6,-2.3813,,adl
8.673296,-0.0704,0.2735,-0.0742,0.0217,-0.0302,-0.0609,-31.2563,-30.6,-2.3813,,adl
8.689055,0.1763,0.5123,0.1478,0.0217,-0.0302,-0.0609,-31.2563,-30.6,-2.3813,,adl
8.692149,0.1763,0.5123,0.1478,0.0217,-0.0302,-0.0609,-30.8625,-30.6,-2.4938,,adl
8.701842,0.1763,0.5123,0.1478,0.0047,0.0223,0.0038,-30.8625,-30.6,-2.4938,,adl
8.707322,0.0402,0.3976,0.0282,0.0047,0.0223,0.0038,-30.8625,-30.6,-2.4938,,adl
8.721242,0.0402,0.3976,0.0282,0.0047,0.0223,0.0038,-30.8625,-30.6,-2.4938,,adl
8.727353,-0.1431,0.2571,0.0374,0.0047,0.0223,0.0038,-30.8625,-30.6,-2.4938,,adl
8.746497,0.0079,0.0558,0.2228,0.0047,0.0223,0.0038,-30.8625,-30.6,-2.4938,,adl
8.751658,0.0079,0.0558,0.2228,0.0047,0.0223,0.0038,-31.1625,-30.4125,-2.2688,,adl
8.765242,0.0079,0.0558,0.2228,-0.0051,-0.0095,0.0356,-31.1625,-30.4125,-2.2688,,adl
8.766606,0.0052,-0.0647,0.1102,-0.0051,-0.0095,0.0356,-31.1625,-30.4125,-2.2688,,adl
8.772892,0.0052,-0.0647,0.1102,-0.0051,-0.0095,0.0356,-31.1625,-30.4125,-2.2688,,adl
8.784443,0.0157,-0.1512,0.0419,-0.0051,-0.0095,0.0356,-31.1625,-30.4125,-2.2688,,adl
8.803463,-0.0041,-0.2171,0.0127,-0.0051,-0.0095,0.0356,-31.1625,-30.4125,-2.2688,,adl
8.813837,-0.0041,-0.2171,0.0127,-0.0051,-0.0095,0.0356,-30.4688,-30.4875,-3.0188,,adl
8.819005,-0.0041,-0.2171,0.0127,-0.0051,-0.0095,0.0356,-30.4688,-30.4875,-3.0188,,adl
8.821423,0.0149,-0.2088,-0.012,-0.0051,-0.0095,0.0356,-30.4688,-30.4875,-3.0188,,adl
8.828081,0.0149,-0.2088,-0.012,-0.01,-0.0168,-0.0034,-30.4688,-30.4875,-3.0188,,adl
8.841514,0.149,-0.1304,0.0164,-0.01,-0.0168,-0.0034,-30.4688,-30.4875,-3.0188,,adl
8.861169,0.1214,-0.1311,-0.0749,-0.01,-0.0168,-0.0034,-30.4688,-30.4875,-3.0188,,adl
8.86502,0.1214,-0.1311,-0.0749,-0.01,-0.0168,-0.0034,-30.4688,-30.4875,-3.0188,,adl
8.873123,0.1214,-0.1311,-0.0749,-0.01,-0.0168,-0.0034,-31.0688,-30.6,-2.4938,,adl
8.879958,0.1,-0.1153,-0.1243,-0.01,-0.0168,-0.0034,-31.0688,-30.6,-2.4938,,adl
8.888818,0.1,-0.1153,-0.1243,-0.0003,0.0407,-0.0206,-31.0688,-30.6,-2.4938,,adl
8.899606,0.0037,0.0895,0.01,-0.0003,0.0407,-0.0206,-31.0688,-30.6,-2.4938,,adl
8.912585,0.0037,0.0895,0.01,-0.0003,0.0407,-0.0206,-31.0688,-30.6,-2.4938,,adl
8.918091,-0.077,0.2134,0.1669,-0.0003,0.0407,-0.0206,-31.0688,-30.6,-2.4938,,adl
8.933007,-0.077,0.2134,0.1669,-0.0003,0.0407,-0.0206,-30.9563,-30.7875,-2.7938,,adl
8.939681,0.0047,0.1516,0.1463,-0.0003,0.0407,-0.0206,-30.9563,-30.7875,-2.7938,,adl
8.950638,0.0047,0.1516,0.1463,-0.0003,-0.0265,0.0051,-30.9563,-30.7875,-2.7938,,adl
8.956418,0.0017,0.0969,0.0607,-0.0003,-0.0265,0.0051,-30.9563,-30.7875,-2.7938,,adl
8.96154,0.0017,0.0969,0.0607,-0.0003,-0.0265,0.0051,-30.9563,-30.7875,-2.7938,,adl
8.975202,0.0429,0.042,0.0739,-0.0003,-0.0265,0.0051,-30.9563,-30.7875,-2.7938,,adl
8.992251,0.0429,0.042,0.0739,-0.0003,-0.0265,0.0051,-30.5625,-30.7125,-2.6063,,adl
8.995205,0.0155,-0.0295,-0.0375,-0.0003,-0.0265,0.0051,-30.5625,-30.7125,-2.6063,,adl
9.00844,0.0155,-0.0295,-0.0375,-0.0003,-0.0265,0.0051,-30.5625,-30.7125,-2.6063,,adl
9.012976,0.0155,-0.0295,-0.0375,0.001,-0.0143,0.0136,-30.5625,-30.7125,-2.6063,,adl
9.014917,0.0906,-0.0828,-0.0696,0.001,-0.0143,0.0136,-30.5625,-30.7125,-2.6063,,adl
9.033042,0.0731,-0.073,-0.0378,0.001,-0.0143,0.0136,-30.5625,-30.7125,-2.6063,,adl
9.052353,0.0359,-0.0563,0.0429,0.001,-0.0143,0.0136,-30.5625,-30.7125,-2.6063,,adl
9.055536,0.0359,-0.0563,0.0429,0.001,-0.0143,0.0136,-30.8625,-30.6,-2.4938,,adl
9.057415,0.0359,-0.0563,0.0429,0.001,-0.0143,0.0136,-30.8625,-30.6,-2.4938,,adl
9.071206,0.039,-0.0903,0.0878,0.001,-0.0143,0.0136,-30.8625,-30.6,-2.4938,,adl
9.074408,0.039,-0.0903,0.0878,-0.0038,0.0052,-0.0084,-30.8625,-30.6,-2.4938,,adl
9.090599,0.0295,-0.1052,0.1192,-0.0038,0.0052,-0.0084,-30.8625,-30.6,-2.4938,,adl
9.106898,0.0295,-0.1052,0.1192,-0.0038,0.0052,-0.0084,-30.8625,-30.6,-2.4938,,adl
9.109818,-0.0061,0.02,0.0693,-0.0038,0.0052,-0.0084,-30.8625,-30.6,-2.4938,,adl
9.112135,-0.0061,0.02,0.0693,-0.0038,0.0052,-0.0084,-30.8813,-30.5063,-2.4938,,adl
9.12827,0.0651,0.1111,0.0342,-0.0038,0.0052,-0.0084,-30.8813,-30.5063,-2.4938,,adl
9.138401,0.0651,0.1111,0.0342,0.0194,-0.0302,-0.0011,-30.8813,-30.5063,-2.4938,,adl
9.147984,0.0947,0.1035,-0.1324,0.0194,-0.0302,-0.0011,-30.8813,-30.5063,-2.4938,,adl
9.151579,0.0947,0.1035,-0.1324,0.0194,-0.0302,-0.0011,-30.8813,-30.5063,-2.4938,,adl
9.168185,0.0303,0.0546,-0.1446,0.0194,-0.0302,-0.0011,-30.8813,-30.5063,-2.4938,,adl
9.171666,0.0303,0.0546,-0.1446,0.0194,-0.0302,-0.0011,-30.975,-30.6188,-2.3813,,adl
9.185672,-0.0298,0.012,0.0614,0.0194,-0.0302,-0.0011,-30.975,-30.6188,-2.3813,,adl
9.199023,-0.0298,0.012,0.0614,0.0194,-0.0302,-0.0011,-30.975,-30.6188,-2.3813,,adl
9.200381,-0.0298,0.012,0.0614,-0.0125,0.037,0.0099,-30.975,-30.6188,-2.3813,,adl
9.205878,-0.0156,0.0026,0.2314,-0.0125,0.037,0.0099,-30.975,-30.6188,-2.3813,,adl
9.224726,0.0628,-0.0198,0.1046,-0.0125,0.037,0.0099,-30.975,-30.6188,-2.3813,,adl
9.232434,0.0628,-0.0198,0.1046,-0.0125,0.037,0.0099,-30.7688,-30.7125,-2.6063,,adl
9.243455,0.0306,0.0164,-0.0928,-0.0125,0.037,0.0099,-30.7688,-30.7125,-2.6063,,adl
9.247907,0.0306,0.0164,-0.0928,-0.0125,0.037,0.0099,-30.7688,-30.7125,-2.6063,,adl
9.26196,0.0306,0.0164,-0.0928,-0.0051,0.0137,0.0136,-30.7688,-30.7125,-2.6063,,adl
9.26484,0.0397,-0.0165,-0.059,-0.0051,0.0137,0.0136,-30.7688,-30.7125,-2.6063,,adl
9.281922,0.0778,-0.0734,0.0335,-0.0051,0.0137,0.0136,-30.7688,-30.7125,-2.6063,,adl
9.296217,0.0778,-0.0734,0.0335,-0.0051,0.0137,0.0136,-30.7875,-30.3,-2.7,,adl
9.299273,0.0778,-0.0734,0.0335,-0.0051,0.0137,0.0136,-30.7875,-30.3,-2.7,,adl
9.301232,-0.0146,-0.0529,-0.0302,-0.0051,0.0137,0.0136,-30.7875,-30.3,-2.7,,adl
9.319415,0.0445,-0.0383,-0.0146,-0.0051,0.0137,0.0136,-30.7875,-30.3,-2.7,,adl
9.323945,0.0445,-0.0383,-0.0146,-0.0015,0.0333,-0.0011,-30.7875,-30.3,-2.7,,adl
9.339337,-0.0006,-0.0109,0.0791,-0.0015,0.0333,-0.0011,-30.7875,-30.3,-2.7,,adl
9.343403,-0.0006,-0.0109,0.0791,-0.0015,0.0333,-0.0011,-30.7875,-30.3,-2.7,,adl
9.352285,-0.0006,-0.0109,0.0791,-0.0015,0.0333,-0.0011,-30.8813,-30.4125,-2.4938,,adl
9.357242,-0.008,0.0315,0.1344,-0.0015,0.0333,-0.0011,-30.8813,-30.4125,-2.4938,,adl
9.377407,0.0159,0.044,0.0712,-0.0015,0.0333,-0.0011,-30.8813,-30.4125,-2.4938,,adl
9.385813,0.0159,0.044,0.0712,0.0084,-0.0058,0.0026,-30.8813,-30.4125,-2.4938,,adl
9.391538,0.0159,0.044,0.0712,0.0084,-0.0058,0.0026,-30.8813,-30.4125,-2.4938,,adl
9.396694,0.0652,0.0157,-0.0103,0.0084,-0.0058,0.0026,-30.8813,-30.4125,-2.4938,,adl
9.412413,0.0652,0.0157,-0.0103,0.0084,-0.0058,0.0026,-31.35,-30.675,-2.7938,,adl
9.416293,0.0627,0.0006,-0.0439,0.0084,-0.0058,0.0026,-31.35,-30.675,-2.7938,,adl
9.43371,0.0369,-0.0132,-0.0207,0.0084,-0.0058,0.0026,-31.35,-30.675,-2.7938,,adl
9.438209,0.0369,-0.0132,-0.0207,0.0084,-0.0058,0.0026,-31.35,-30.675,-2.7938,,adl
9.4491,0.0369,-0.0132,-0.0207,-0.0015,0.0285,0.0087,-31.35,-30.675,-2.7938,,adl
9.452964,0.0369,-0.0265,0.0211,-0.0015,0.0285,0.0087,-31.35,-30.675,-2.7938,,adl
9.473563,0.0306,-0.0304,0.0627,-0.0015,0.0285,0.0087,-31.35,-30.675,-2.7938,,adl
9.477073,0.0306,-0.0304,0.0627,-0.0015,0.0285,0.0087,-31.35,-30.4875,-2.6813,,adl
9.487372,0.0306,-0.0304,0.0627,-0.0015,0.0285,0.0087,-31.35,-30.4875,-2.6813,,adl
9.492169,0.0159,-0.013,0.0855,-0.0015,0.0285,0.0087,-31.35,-30.4875,-2.6813,,adl
9.510092,0.0159,-0.013,0.0855,-0.0015,0.0015,-0.0047,-31.35,-30.4875,-2.6813,,adl
9.511544,0.0274,-0.0407,0.0971,-0.0015,0.0015,-0.0047,-31.35,-30.4875,-2.6813,,adl
9.531149,0.0117,-0.0077,0.071,-0.0015,0.0015,-0.0047,-31.35,-30.4875,-2.6813,,adl
9.534802,0.0117,-0.0077,0.071,-0.0015,0.0015,-0.0047,-30.4875,-30.3188,-2.4938,,adl
9.537066,0.0117,-0.0077,0.071,-0.0015,0.0015,-0.0047,-30.4875,-30.3188,-2.4938,,adl
9.549167,0.0441,0.0267,-0.0024,-0.0015,0.0015,-0.0047,-30.4875,-30.3188,-2.4938,,adl
9.568266,0.0319,0.0205,-0.0497,-0.0015,0.0015,-0.0047,-30.4875,-30.3188,-2.4938,,adl
9.571302,0.0319,0.0205,-0.0497,0.0022,-0.0008,0.0014,-30.4875,-30.3188,-2.4938,,adl
9.58592,0.0319,0.0205,-0.0497,0.0022,-0.0008,0.0014,-30.4875,-30.3188,-2.4938,,adl
9.588743,0.0565,0.0063,-0.014,0.0022,-0.0008,0.0014,-30.4875,-30.3188,-2.4938,,adl
9.59371,0.0565,0.0063,-0.014,0.0022,-0.0008,0.0014,-30.8625,-30.7875,-2.7,,adl
9.607269,0.0264,-0.0094,0.0546,0.0022,-0.0008,0.0014,-30.8625,-30.7875,-2.7,,adl
9.625987,0.0078,-0.0136,0.0922,0.0022,-0.0008,0.0014,-30.8625,-30.7875,-2.7,,adl
9.629216,0.0078,-0.0136,0.0922,0.0022,-0.0008,0.0014,-30.8625,-30.7875,-2.7,,adl
9.633732,0.0078,-0.0136,0.0922,0.0022,0.0027,0.0001,-30.8625,-30.7875,-2.7,,adl
9.645119,0.0323,-0.0257,0.0465,0.0022,0.0027,0.0001,-30.8625,-30.7875,-2.7,,adl
9.651483,0.0323,-0.0257,0.0465,0.0022,0.0027,0.0001,-30.7688,-30.6188,-2.4,,adl
9.663648,0.0316,-0.0168,0.0203,0.0022,0.0027,0.0001,-30.7688,-30.6188,-2.4,,adl
9.677701,0.0316,-0.0168,0.0203,0.0022,0.0027,0.0001,-30.7688,-30.6188,-2.4,,adl
9.682636,0.0262,0.0137,0.0012,0.0022,0.0027,0.0001,-30.7688,-30.6188,-2.4,,adl
9.696595,0.0262,0.0137,0.0012,0.0034,0.0015,0.0001,-30.7688,-30.6188,-2.4,,adl
9.702703,0.0097,0.0251,-0.0182,0.0034,0.0015,0.0001,-30.7688,-30.6188,-2.4,,adl
9.712673,0.0097,0.0251,-0.0182,0.0034,0.0015,0.0001,-30.975,-30.2625,-3.2063,,adl
9.721777,0.0048,0.0085,0.0322,0.0034,0.0015,0.0001,-30.975,-30.2625,-3.2063,,adl
9.725273,0.0048,0.0085,0.0322,0.0034,0.0015,0.0001,-30.975,-30.2625,-3.2063,,adl
9.740403,0.0445,0.0087,0.0564,0.0034,0.0015,0.0001,-30.975,-30.2625,-3.2063,,adl
9.759258,0.0445,0.0087,0.0564,0.0095,-0.0045,0.0099,-30.975,-30.2625,-3.2063,,adl
9.761937,0.0341,-0.0143,0.0691,0.0095,-0.0045,0.0099,-30.975,-30.2625,-3.2063,,adl
9.77326,0.0341,-0.0143,0.0691,0.0095,-0.0045,0.0099,-30.8625,-30.6938,-2.7,,adl
9.774527,0.0341,-0.0143,0.0691,0.0095,-0.0045,0.0099,-30.8625,-30.6938,-2.7,,adl
9.779182,0.0606,-0.023,0.0128,0.0095,-0.0045,0.0099,-30.8625,-30.6938,-2.7,,adl
9.79692,0.0318,-0.0049,0.0308,0.0095,-0.0045,0.0099,-30.8625,-30.6938,-2.7,,adl
9.81715,0.0627,-0.0391,-0.0158,0.0095,-0.0045,0.0099,-30.8625,-30.6938,-2.7,,adl
9.821415,0.0627,-0.0391,-0.0158,0.0095,-0.0045,0.0099,-30.8625,-30.6938,-2.7,,adl
9.82334,0.0627,-0.0391,-0.0158,0.0059,0.0003,-0.0023,-30.8625,-30.6938,-2.7,,adl
9.832365,0.0627,-0.0391,-0.0158,0.0059,0.0003,-0.0023,-30.975,-30.225,-2.3813,,adl
9.836214,0.0231,-0.0108,-0.0076,0.0059,0.0003,-0.0023,-30.975,-30.225,-2.3813,,adl
9.855334,0.0118,0.0038,0.06,0.0059,0.0003,-0.0023,-30.975,-30.225,-2.3813,,adl
9.869189,0.0118,0.0038,0.06,0.0059,0.0003,-0.0023,-30.975,-30.225,-2.3813,,adl
9.87436,-0.0103,-0.0018,0.0991,0.0059,0.0003,-0.0023,-30.975,-30.225,-2.3813,,adl
9.885132,-0.0103,-0.0018,0.0991,0.0059,-0.0107,-0.0071,-30.975,-30.225,-2.3813,,adl
9.892057,-0.0103,-0.0018,0.0991,0.0059,-0.0107,-0.0071,-31.5563,-30.3,-2.475,,adl
9.893986,0.017,-0.0037,0.0815,0.0059,-0.0107,-0.0071,-31.5563,-30.3,-2.475,,adl
9.913384,-0.0046,-0.0062,0.0473,0.0059,-0.0107,-0.0071,-31.5563,-30.3,-2.475,,adl
9.9175,-0.0046,-0.0062,0.0473,0.0059,-0.0107,-0.0071,-31.5563,-30.3,-2.475,,adl
9.932882,0.1133,-0.0696,0.1763,0.0059,-0.0107,-0.0071,-31.5563,-30.3,-2.475,,adl
9.945792,0.1133,-0.0696,0.1763,0.0425,-0.0668,-0.0426,-31.5563,-30.3,-2.475,,adl
9.95687,0.1565,-0.154,0.3763,0.0425,-0.0668,-0.0426,-31.5563,-30.3,-2.475,,adl
9.958532,0.1565,-0.154,0.3763,0.0425,-0.0668,-0.0426,-30.9563,-30.7688,-3.0188,,adl
9.964652,0.1565,-0.154,0.3763,0.0425,-0.0668,-0.0426,-30.9563,-30.7688,-3.0188,,adl
9.969297,0.2395,-0.1932,0.3657,0.0425,-0.0668,-0.0426,-30.9563,-30.7688,-3.0188,,adl
9.989195,-0.0222,0.0215,-0.609,0.0425,-0.0668,-0.0426,-30.9563,-30.7688,-3.0188,,adl
10.007117,-0.0222,0.0215,-0.609,0.0059,-0.029,-0.1012,-30.9563,-30.7688,-3.0188,,adl
10.00884,-0.3979,0.0998,-0.0195,0.0059,-0.029,-0.1012,-30.9563,-30.7688,-3.0188,,adl
10.012121,-0.3979,0.0998,-0.0195,0.0059,-0.029,-0.1012,-30.9563,-30.7688,-3.0188,,adl
10.013146,-0.3979,0.0998,-0.0195,0.0059,-0.029,-0.1012,-31.1625,-30.6188,-2.2688,,adl
10.027358,-0.3431,0.221,0.1289,0.0059,-0.029,-0.1012,-31.1625,-30.6188,-2.2688,,adl
10.046735,-0.1735,0.06,-0.194,0.0059,-0.029,-0.1012,-31.1625,-30.6188,-2.2688,,adl
10.06405,-0.1735,0.06,-0.194,0.0059,-0.029,-0.1012,-31.1625,-30.6188,-2.2688,,adl
10.067035,-0.048,0.1535,-0.2828,0.0059,-0.029,-0.1012,-31.1625,-30.6188,-2.2688,,adl
10.069556,-0.048,0.1535,-0.2828,0.0047,-0.0241,-0.0084,-31.1625,-30.6188,-2.2688,,adl
10.072098,-0.048,0.1535,-0.2828,0.0047,-0.0241,-0.0084,-30.075,-30.8625,-2.0063,,adl
10.084539,-0.0076,0.0977,-0.1935,0.0047,-0.0241,-0.0084,-30.075,-30.8625,-2.0063,,adl
10.104383,-0.0548,0.0519,-0.0308,0.0047,-0.0241,-0.0084,-30.075,-30.8625,-2.0063,,adl
10.10803,-0.0548,0.0519,-0.0308,0.0047,-0.0241,-0.0084,-30.075,-30.8625,-2.0063,,adl
10.123187,-0.0967,-0.0224,0.0883,0.0047,-0.0241,-0.0084,-30.075,-30.8625,-2.0063,,adl
10.131594,-0.0967,-0.0224,0.0883,-0.0234,0.0663,0.0392,-30.075,-30.8625,-2.0063,,adl
10.135593,-0.0967,-0.0224,0.0883,-0.0234,0.0663,0.0392,-30.2625,-31.0125,-2.7188,,adl
10.141855,-0.0926,0.0052,0.1384,-0.0234,0.0663,0.0392,-30.2625,-31.0125,-2.7188,,adl
10.155816,-0.0926,0.0052,0.1384,-0.0234,0.0663,0.0392,-30.2625,-31.0125,-2.7188,,adl
10.160937,-0.0805,-0.0043,0.0699,-0.0234,0.0663,0.0392,-30.2625,-31.0125,-2.7188,,adl
10.180536,-0.0485,-0.0362,0.0379,-0.0234,0.0663,0.0392,-30.2625,-31.0125,-2.7188,,adl
10.19296,-0.0485,-0.0362,0.0379,-0.0234,0.0663,0.0392,-30.2813,-30.825,-2.5125,,adl
10.195172,-0.0485,-0.0362,0.0379,-0.032,0.0395,0.0319,-30.2813,-30.825,-2.5125,,adl
10.200885,0.0113,-0.0379,0.155,-0.032,0.0395,0.0319,-30.2813,-30.825,-2.5125,,adl
10.202401,0.0113,-0.0379,0.155,-0.032,0.0395,0.0319,-30.2813,-30.825,-2.5125,,adl
10.218366,-0.0125,-0.066,0.1383,-0.032,0.0395,0.0319,-30.2813,-30.825,-2.5125,,adl
10.238032,0.1334,-0.1628,0.1516,-0.032,0.0395,0.0319,-30.2813,-30.825,-2.5125,,adl
10.251409,0.1334,-0.1628,0.1516,-0.032,0.0395,0.0319,-30.2813,-30.825,-2.5125,,adl
10.252815,0.1334,-0.1628,0.1516,-0.032,0.0395,0.0319,-30.675,-30.7125,-2.4938,,adl
10.25516,0.1334,-0.1628,0.1516,0.0144,-0.0425,-0.0366,-30.675,-30.7125,-2.4938,,adl
10.256139,0.0334,-0.1082,0.2884,0.0144,-0.0425,-0.0366,-30.675,-30.7125,-2.4938,,adl
10.276195,-0.1615,-0.0118,0.17,0.0144,-0.0425,-0.0366,-30.675,-30.7125,-2.4938,,adl
10.29564,-0.1781,0.0475,-0.0144,0.0144,-0.0425,-0.0366,-30.675,-30.7125,-2.4938,,adl
10.29982,-0.1781,0.0475,-0.0144,0.0144,-0.0425,-0.0366,-30.675,-30.7125,-2.4938,,adl
10.312731,-0.1781,0.0475,-0.0144,0.0144,-0.0425,-0.0366,-30.1688,-30.9375,-2.3063,,adl
10.316533,-0.093,0.089,-0.1662,0.0144,-0.0425,-0.0366,-30.1688,-30.9375,-2.3063,,adl
10.317535,-0.093,0.089,-0.1662,0.0107,-0.0448,-0.0133,-30.1688,-30.9375,-2.3063,,adl
10.333793,0.0026,0.0493,-0.1538,0.0107,-0.0448,-0.0133,-30.1688,-30.9375,-2.3063,,adl
10.347195,0.0026,0.0493,-0.1538,0.0107,-0.0448,-0.0133,-30.1688,-30.9375,-2.3063,,adl
10.352658,-0.1053,0.0588,-0.0624,0.0107,-0.0448,-0.0133,-30.1688,-30.9375,-2.3063,,adl
10.372082,-0.0836,0.0194,0.0149,0.0107,-0.0448,-0.0133,-30.1688,-30.9375,-2.3063,,adl
10.375161,-0.0836,0.0194,0.0149,0.0107,-0.0448,-0.0133,-30.5813,-30.7313,-2.4,,adl
10.380594,-0.0836,0.0194,0.0149,-0.0223,0.054,0.0221,-30.5813,-30.7313,-2.4,,adl
10.391041,-0.0876,-0.0398,0.1114,-0.0223,0.054,0.0221,-30.5813,-30.7313,-2.4,,adl
10.395147,-0.0876,-0.0398,0.1114,-0.0223,0.054,0.0221,-30.5813,-30.7313,-2.4,,adl
10.410189,-0.0839,-0.0307,0.1532,-0.0223,0.054,0.0221,-30.5813,-30.7313,-2.4,,adl
10.429207,-0.0911,-0.0111,0.1122,-0.0223,0.054,0.0221,-30.5813,-30.7313,-2.4,,adl
10.43208,-0.0911,-0.0111,0.1122,-0.0223,0.054,0.0221,-30.5625,-30.9188,-2.4938,,adl
10.442893,-0.0911,-0.0111,0.1122,-0.0223,0.054,0.0221,-30.5625,-30.9188,-2.4938,,adl
10.445911,-0.0911,-0.0111,0.1122,-0.0076,0.0027,0.0124,-30.5625,-30.9188,-2.4938,,adl
10.448005,-0.0702,-0.0068,0.072,-0.0076,0.0027,0.0124,-30.5625,-30.9188,-2.4938,,adl
10.467173,-0.055,-0.0025,0.0225,-0.0076,0.0027,0.0124,-30.5625,-30.9188,-2.4938,,adl
10.486613,-0.0655,-0.0051,0.0159,-0.0076,0.0027,0.0124,-30.5625,-30.9188,-2.4938,,adl
10.490308,-0.0655,-0.0051,0.0159,-0.0076,0.0027,0.0124,-30.5625,-30.9188,-2.4938,,adl
10.492591,-0.0655,-0.0051,0.0159,-0.0076,0.0027,0.0124,-30.1875,-30.6375,-2.4,,adl
10.504633,-0.0655,-0.0051,0.0159,-0.0125,0.0187,0.0124,-30.1875,-30.6375,-2.4,,adl
10.506033,-0.0814,-0.0262,0.04,-0.0125,0.0187,0.0124,-30.1875,-30.6375,-2.4,,adl
10.525288,-0.0913,-0.0276,0.0878,-0.0125,0.0187,0.0124,-30.1875,-30.6375,-2.4,,adl
10.5408,-0.0913,-0.0276,0.0878,-0.0125,0.0187,0.0124,-30.1875,-30.6375,-2.4,,adl
10.543931,-0.1041,-0.027,0.1117,-0.0125,0.0187,0.0124,-30.1875,-30.6375,-2.4,,adl
10.551265,-0.1041,-0.027,0.1117,-0.0125,0.0187,0.0124,-30.4688,-30.7313,-2.4,,adl
10.563141,-0.0573,-0.0508,0.0813,-0.0125,0.0187,0.0124,-30.4688,-30.7313,-2.4,,adl
10.566227,-0.0573,-0.0508,0.0813,-0.0076,-0.0045,0.0051,-30.4688,-30.7313,-2.4,,adl
10.583054,-0.0847,-0.1027,0.0326,-0.0076,-0.0045,0.0051,-30.4688,-30.7313,-2.4,,adl
10.586834,-0.0847,-0.1027,0.0326,-0.0076,-0.0045,0.0051,-30.4688,-30.7313,-2.4,,adl
10.601595,-0.0763,-0.0209,0.106,-0.0076,-0.0045,0.0051,-30.4688,-30.7313,-2.4,,adl
10.612318,-0.0763,-0.0209,0.106,-0.0076,-0.0045,0.0051,-30.9563,-30.9,-2.4938,,adl
10.620637,-0.1422,0.0794,0.1406,-0.0076,-0.0045,0.0051,-30.9563,-30.9,-2.4938,,adl
10.627972,-0.1422,0.0794,0.1406,-0.0003,-0.029,-0.0169,-30.9563,-30.9,-2.4938,,adl
10.63328,-0.1422,0.0794,0.1406,-0.0003,-0.029,-0.0169,-30.9563,-30.9,-2.4938,,adl
10.638995,-0.04,0.0646,0.1713,-0.0003,-0.029,-0.0169,-30.9563,-30.9,-2.4938,,adl
10.658674,-0.1123,0.0554,0.0381,-0.0003,-0.029,-0.0169,-30.9563,-30.9,-2.4938,,adl
10.673949,-0.1123,0.0554,0.0381,-0.0003,-0.029,-0.0169,-29.325,-30.7313,-1.2938,,adl
10.677139,-0.1314,0.0148,-0.0311,-0.0003,-0.029,-0.0169,-29.325,-30.7313,-1.2938,,adl
10.681558,-0.1314,0.0148,-0.0311,-0.0003,-0.029,-0.0169,-29.325,-30.7313,-1.2938,,adl
10.69138,-0.1314,0.0148,-0.0311,0.0022,-0.0118,0.0062,-29.325,-30.7313,-1.2938,,adl
10.697772,-0.0573,-0.0828,0.0376,0.0022,-0.0118,0.0062,-29.325,-30.7313,-1.2938,,adl
10.716253,-0.0387,-0.0811,0.0631,0.0022,-0.0118,0.0062,-29.325,-30.7313,-1.2938,,adl
10.729817,-0.0387,-0.0811,0.0631,0.0022,-0.0118,0.0062,-29.325,-30.7313,-1.2938,,adl
10.733363,-0.0387,-0.0811,0.0631,0.0022,-0.0118,0.0062,-30.375,-30.9188,-2.5125,,adl
10.735617,-0.1424,-0.0569,0.0621,0.0022,-0.0118,0.0062,-30.375,-30.9188,-2.5125,,adl
10.752804,-0.1424,-0.0569,0.0621,0.0047,-0.0107,-0.0109,-30.375,-30.9188,-2.5125,,adl
10.754119,-0.1456,0.0129,0.0868,0.0047,-0.0107,-0.0109,-30.375,-30.9188,-2.5125,,adl
10.773721,-0.1366,0.0399,0.1042,0.0047,-0.0107,-0.0109,-30.375,-30.9188,-2.5125,,adl
10.7773,-0.1366,0.0399,0.1042,0.0047,-0.0107,-0.0109,-30.375,-30.9188,-2.5125,,adl
10.792917,-0.1421,0.0431,0.1393,0.0047,-0.0107,-0.0109,-30.375,-30.9188,-2.5125,,adl
10.795471,-0.1421,0.0431,0.1393,0.0047,-0.0107,-0.0109,-30.4688,-30.825,-2.5125,,adl
10.812011,-0.1135,0.0459,-0.0287,0.0047,-0.0107,-0.0109,-30.4688,-30.825,-2.5125,,adl
10.814785,-0.1135,0.0459,-0.0287,0.0084,-0.018,0.0051,-30.4688,-30.825,-2.5125,,adl
10.82445,-0.1135,0.0459,-0.0287,0.0084,-0.018,0.0051,-30.4688,-30.825,-2.5125,,adl
10.830348,-0.1068,0.0404,-0.0949,0.0084,-0.018,0.0051,-30.4688,-30.825,-2.5125,,adl
10.84999,-0.1273,0.0307,0.0121,0.0084,-0.018,0.0051,-30.4688,-30.825,-2.5125,,adl
10.853303,-0.1273,0.0307,0.0121,0.0084,-0.018,0.0051,-30.7688,-30.6375,-2.175,,adl
10.869018,-0.1068,-0.03,0.1041,0.0084,-0.018,0.0051,-30.7688,-30.6375,-2.175,,adl
10.873647,-0.1068,-0.03,0.1041,0.0084,-0.018,0.0051,-30.7688,-30.6375,-2.175,,adl
10.877135,-0.1068,-0.03,0.1041,-0.01,0.0309,0.0209,-30.7688,-30.6375,-2.175,,adl
10.889457,-0.081,-0.0411,0.1751,-0.01,0.0309,0.0209,-30.7688,-30.6375,-2.175,,adl
10.907329,-0.105,-0.0893,0.185,-0.01,0.0309,0.0209,-30.7688,-30.6375,-2.175,,adl
10.91265,-0.105,-0.0893,0.185,-0.01,0.0309,0.0209,-30.675,-30.525,-2.4938,,adl
10.920849,-0.105,-0.0893,0.185,-0.01,0.0309,0.0209,-30.675,-30.525,-2.4938,,adl
10.926144,-0.1381,-0.0036,0.148,-0.01,0.0309,0.0209,-30.675,-30.525,-2.4938,,adl
10.939825,-0.1381,-0.0036,0.148,0.0047,-0.0388,-0.0047,-30.675,-30.525,-2.4938,,adl
10.945536,-0.1621,-0.0567,0.0138,0.0047,-0.0388,-0.0047,-30.675,-30.525,-2.4938,,adl
10.96455,-0.149,-0.0285,0.0694,0.0047,-0.0388,-0.0047,-30.675,-30.525,-2.4938,,adl
10.968821,-0.149,-0.0285,0.0694,0.0047,-0.0388,-0.0047,-30.675,-30.525,-2.4938,,adl
10.973578,-0.149,-0.0285,0.0694,0.0047,-0.0388,-0.0047,-30.5813,-30.525,-2.2875,,adl
10.98403,-0.2489,-0.0141,0.2845,0.0047,-0.0388,-0.0047,-30.5813,-30.525,-2.2875,,adl
11.002557,-0.2489,-0.0141,0.2845,-0.0088,-0.1096,-0.0146,-30.5813,-30.525,-2.2875,,adl
11.006105,-0.166,-0.01,0.2107,-0.0088,-0.1096,-0.0146,-30.5813,-30.525,-2.2875,,adl
11.01871,-0.166,-0.01,0.2107,-0.0088,-0.1096,-0.0146,-30.5813,-30.525,-2.2875,,adl
11.021835,-0.0721,-0.0045,0.0249,-0.0088,-0.1096,-0.0146,-30.5813,-30.525,-2.2875,,adl
11.032209,-0.0721,-0.0045,0.0249,-0.0088,-0.1096,-0.0146,-30.375,-30.75,-1.875,,adl
11.040993,-0.0301,0.0135,-0.1734,-0.0088,-0.1096,-0.0146,-30.375,-30.75,-1.875,,adl
11.06021,-0.0233,0.0174,-0.179,-0.0088,-0.1096,-0.0146,-30.375,-30.75,-1.875,,adl
11.06401,-0.0233,0.0174,-0.179,-0.0088,-0.1096,-0.0146,-30.375,-30.75,-1.875,,adl
11.064881,-0.0233,0.0174,-0.179,-0.0063,0.0052,-0.0036,-30.375,-30.75,-1.875,,adl
11.079711,-0.1053,0.0403,-0.0477,-0.0063,0.0052,-0.0036,-30.375,-30.75,-1.875,,adl
11.091644,-0.1053,0.0403,-0.0477,-0.0063,0.0052,-0.0036,-30.1875,-30.5438,-2.3063,,adl
11.099111,-0.1356,-0.0165,0.1369,-0.0063,0.0052,-0.0036,-30.1875,-30.5438,-2.3063,,adl
11.111152,-0.1356,-0.0165,0.1369,-0.0063,0.0052,-0.0036,-30.1875,-30.5438,-2.3063,,adl
11.117871,-0.1741,-0.0215,0.2211,-0.0063,0.0052,-0.0036,-30.1875,-30.5438,-2.3063,,adl
11.127683,-0.1741,-0.0215,0.2211,-0.0051,0.0077,0.0038,-30.1875,-30.5438,-2.3063,,adl
11.136878,-0.192,-0.0038,0.2089,-0.0051,0.0077,0.0038,-30.1875,-30.5438,-2.3063,,adl
11.152328,-0.192,-0.0038,0.2089,-0.0051,0.0077,0.0038,-30.675,-30.8625,-1.7813,,adl
11.155993,-0.1899,0.0363,0.1315,-0.0051,0.0077,0.0038,-30.675,-30.8625,-1.7813,,adl
11.159675,-0.1899,0.0363,0.1315,-0.0051,0.0077,0.0038,-30.675,-30.8625,-1.7813,,adl
11.174989,-0.1418,0.0379,0.0363,-0.0051,0.0077,0.0038,-30.675,-30.8625,-1.7813,,adl
11.188496,-0.1418,0.0379,0.0363,-0.0051,-0.0461,0.0062,-30.675,-30.8625,-1.7813,,adl
11.195279,-0.0848,-0.0256,0.0182,-0.0051,-0.0461,0.0062,-30.675,-30.8625,-1.7813,,adl
11.207653,-0.0848,-0.0256,0.0182,-0.0051,-0.0461,0.0062,-30.675,-30.8625,-1.7813,,adl
11.211986,-0.0848,-0.0256,0.0182,-0.0051,-0.0461,0.0062,-30.0,-30.5438,-2.3063,,adl
11.212949,-0.0967,-0.0441,-0.0368,-0.0051,-0.0461,0.0062,-30.0,-30.5438,-2.3063,,adl
11.232252,-0.0529,-0.0371,0.0144,-0.0051,-0.0461,0.0062,-30.0,-30.5438,-2.3063,,adl
11.250588,-0.0529,-0.0371,0.0144,-0.01,0.0247,0.0038,-30.0,-30.5438,-2.3063,,adl
11.25211,-0.1504,0.0058,0.1263,-0.01,0.0247,0.0038,-30.0,-30.5438,-2.3063,,adl
11.255242,-0.1504,0.0058,0.1263,-0.01,0.0247,0.0038,-30.0,-30.5438,-2.3063,,adl
11.270381,-0.1958,-0.0148,0.1399,-0.01,0.0247,0.0038,-30.0,-30.5438,-2.3063,,adl
11.27216,-0.1958,-0.0148,0.1399,-0.01,0.0247,0.0038,-30.375,-30.9563,-1.9875,,adl
11.290069,-0.145,-0.0147,0.1502,-0.01,0.0247,0.0038,-30.375,-30.9563,-1.9875,,adl
11.302508,-0.145,-0.0147,0.1502,-0.01,0.0247,0.0038,-30.375,-30.9563,-1.9875,,adl
11.307959,-0.1547,-0.0173,0.0799,-0.01,0.0247,0.0038,-30.375,-30.9563,-1.9875,,adl
11.311566,-0.1547,-0.0173,0.0799,-0.0003,-0.0253,0.0001,-30.375,-30.9563,-1.9875,,adl
11.328387,-0.126,-0.0477,0.0457,-0.0003,-0.0253,0.0001,-30.375,-30.9563,-1.9875,,adl
11.332836,-0.126,-0.0477,0.0457,-0.0003,-0.0253,0.0001,-30.7688,-30.975,-1.4625,,adl
11.347536,-0.1417,-0.0255,0.0399,-0.0003,-0.0253,0.0001,-30.7688,-30.975,-1.4625,,adl
11.350959,-0.1417,-0.0255,0.0399,-0.0003,-0.0253,0.0001,-30.7688,-30.975,-1.4625,,adl
11.366532,-0.097,0.0052,0.0337,-0.0003,-0.0253,0.0001,-30.7688,-30.975,-1.4625,,adl
11.375076,-0.097,0.0052,0.0337,0.0034,0.0052,0.0038,-30.7688,-30.975,-1.4625,,adl
11.385574,-0.1733,0.0025,0.0144,0.0034,0.0052,0.0038,-30.7688,-30.975,-1.4625,,adl
11.39214,-0.1733,0.0025,0.0144,0.0034,0.0052,0.0038,-30.375,-30.75,-1.875,,adl
11.397645,-0.1733,0.0025,0.0144,0.0034,0.0052,0.0038,-30.375,-30.75,-1.875,,adl
11.404877,-0.188,-0.011,0.0945,0.0034,0.0052,0.0038,-30.375,-30.75,-1.875,,adl
11.423637,-0.1435,-0.0072,0.182,0.0034,0.0052,0.0038,-30.375,-30.75,-1.875,,adl
11.437118,-0.1435,-0.0072,0.182,-0.0026,-0.0058,0.0038,-30.375,-30.75,-1.875,,adl
11.442697,-0.1394,0.0005,0.1656,-0.0026,-0.0058,0.0038,-30.375,-30.75,-1.875,,adl
11.446602,-0.1394,0.0005,0.1656,-0.0026,-0.0058,0.0038,-30.375,-30.75,-1.875,,adl
11.452387,-0.1394,0.0005,0.1656,-0.0026,-0.0058,0.0038,-30.9563,-31.0313,-1.9688,,adl
11.461628,-0.1487,0.0328,0.04,-0.0026,-0.0058,0.0038,-30.9563,-31.0313,-1.9688,,adl
11.481357,-0.1343,0.0185,-0.047,-0.0026,-0.0058,0.0038,-30.9563,-31.0313,-1.9688,,adl
11.496748,-0.1343,0.0185,-0.047,-0.0026,-0.0058,0.0038,-30.9563,-31.0313,-1.9688,,adl
11.499568,-0.1343,0.0185,-0.047,-0.0125,0.0162,0.0148,-30.9563,-31.0313,-1.9688,,adl
11.501833,-0.1416,-0.0101,0.0061,-0.0125,0.0162,0.0148,-30.9563,-31.0313,-1.9688,,adl
11.51159,-0.1416,-0.0101,0.0061,-0.0125,0.0162,0.0148,-30.2813,-30.75,-2.1938,,adl
11.518981,-0.1472,-0.0375,0.0724,-0.0125,0.0162,0.0148,-30.2813,-30.75,-2.1938,,adl
11.538371,-0.1473,-0.0701,0.1145,-0.0125,0.0162,0.0148,-30.2813,-30.75,-2.1938,,adl
11.542145,-0.1473,-0.0701,0.1145,-0.0125,0.0162,0.0148,-30.2813,-30.75,-2.1938,,adl
11.558249,-0.1302,-0.0304,0.1281,-0.0125,0.0162,0.0148,-30.2813,-30.75,-2.1938,,adl
11.562145,-0.1302,-0.0304,0.1281,0.001,0.0125,0.0038,-30.2813,-30.75,-2.1938,,adl
11.573636,-0.1302,-0.0304,0.1281,0.001,0.0125,0.0038,-30.5813,-30.6375,-2.2875,,adl
11.57724,-0.1791,-0.0184,0.1157,0.001,0.0125,0.0038,-30.5813,-30.6375,-2.2875,,adl
11.589,-0.1791,-0.0184,0.1157,0.001,0.0125,0.0038,-30.5813,-30.6375,-2.2875,,adl
11.596035,-0.1699,0.0118,0.0941,0.001,0.0125,0.0038,-30.5813,-30.6375,-2.2875,,adl
11.616535,-0.1042,0.0127,0.0321,0.001,0.0125,0.0038,-30.5813,-30.6375,-2.2875,,adl
11.62325,-0.1042,0.0127,0.0321,0.0071,0.0089,0.0087,-30.5813,-30.6375,-2.2875,,adl
11.632101,-0.1042,0.0127,0.0321,0.0071,0.0089,0.0087,-30.1875,-30.6375,-2.3063,,adl
11.634834,-0.1343,0.0117,0.0053,0.0071,0.0089,0.0087,-30.1875,-30.6375,-2.3063,,adl
11.639616,-0.1343,0.0117,0.0053,0.0071,0.0089,0.0087,-30.1875,-30.6375,-2.3063,,adl
11.653259,-0.1023,-0.0016,0.0415,0.0071,0.0089,0.0087,-30.1875,-30.6375,-2.3063,,adl
11.6724,-0.1085,0.0613,-0.0481,0.0071,0.0089,0.0087,-30.1875,-30.6375,-2.3063,,adl
11.685717,-0.1085,0.0613,-0.0481,0.0071,0.0089,0.0087,-30.1875,-30.6375,-2.3063,,adl
11.689755,-0.1085,0.0613,-0.0481,0.0254,0.103,0.0344,-30.1875,-30.6375,-2.3063,,adl
11.69251,-0.1135,0.0598,-0.1012,0.0254,0.103,0.0344,-30.1875,-30.6375,-2.3063,,adl
11.693634,-0.1135,0.0598,-0.1012,0.0254,0.103,0.0344,-30.8813,-30.6375,-2.0813,,adl
11.711067,-0.1299,-0.0002,-0.0317,0.0254,0.103,0.0344,-30.8813,-30.6375,-2.0813,,adl
11.729525,-0.1577,-0.0673,0.2675,0.0254,0.103,0.0344,-30.8813,-30.6375,-2.0813,,adl
11.733341,-0.1577,-0.0673,0.2675,0.0254,0.103,0.0344,-30.8813,-30.6375,-2.0813,,adl
11.747504,-0.1577,-0.0673,0.2675,-0.0113,0.0712,0.0221,-30.8813,-30.6375,-2.0813,,adl
11.749087,-0.2373,-0.0823,0.4252,-0.0113,0.0712,0.0221,-30.8813,-30.6375,-2.0813,,adl
11.751635,-0.2373,-0.0823,0.4252,-0.0113,0.0712,0.0221,-30.675,-30.8438,-2.0813,,adl
11.768089,-0.2296,-0.0954,0.3814,-0.0113,0.0712,0.0221,-30.675,-30.8438,-2.0813,,adl
11.782848,-0.2296,-0.0954,0.3814,-0.0113,0.0712,0.0221,-30.675,-30.8438,-2.0813,,adl
11.787054,-0.1417,-0.0501,0.1577,-0.0113,0.0712,0.0221,-30.675,-30.8438,-2.0813,,adl
11.806079,-0.0531,-0.0306,-0.0858,-0.0113,0.0712,0.0221,-30.675,-30.8438,-2.0813,,adl
11.809871,-0.0531,-0.0306,-0.0858,0.0157,-0.0645,-0.0133,-30.675,-30.8438,-2.0813,,adl
11.813134,-0.0531,-0.0306,-0.0858,0.0157,-0.0645,-0.0133,-30.4875,-30.5625,-1.875,,adl
11.824924,-0.0813,0.0335,-0.1512,0.0157,-0.0645,-0.0133,-30.4875,-30.5625,-1.875,,adl
11.829154,-0.0813,0.0335,-0.1512,0.0157,-0.0645,-0.0133,-30.4875,-30.5625,-1.875,,adl
11.844054,-0.0855,0.0232,-0.066,0.0157,-0.0645,-0.0133,-30.4875,-30.5625,-1.875,,adl
11.862652,-0.1329,-0.0141,0.0698,0.0157,-0.0645,-0.0133,-30.4875,-30.5625,-1.875,,adl
11.874728,-0.1329,-0.0141,0.0698,-0.01,0.0358,0.0062,-30.4875,-30.5625,-1.875,,adl
11.877632,-0.1329,-0.0141,0.0698,-0.01,0.0358,0.0062,-30.8625,-30.9,-2.7,,adl
11.879517,-0.1329,-0.0141,0.0698,-0.01,0.0358,0.0062,-30.8625,-30.9,-2.7,,adl
11.884189,-0.1558,0.0037,0.1911,-0.01,0.0358,0.0062,-30.8625,-30.9,-2.7,,adl
11.901709,-0.1528,-0.0014,0.2037,-0.01,0.0358,0.0062,-30.8625,-30.9,-2.7,,adl
11.921058,-0.0937,-0.0166,0.0984,-0.01,0.0358,0.0062,-30.8625,-30.9,-2.7,,adl
11.925073,-0.0937,-0.0166,0.0984,-0.01,0.0358,0.0062,-30.8625,-30.9,-2.7,,adl
11.932295,-0.0937,-0.0166,0.0984,-0.01,0.0358,0.0062,-30.6563,-31.0313,-2.1938,,adl
11.934949,-0.0937,-0.0166,0.0984,0.0034,-0.0327,0.0014,-30.6563,-31.0313,-2.1938,,adl
11.938984,-0.0941,-0.0436,-0.0085,0.0034,-0.0327,0.0014,-30.6563,-31.0313,-2.1938,,adl
11.95949,-0.0536,-0.0032,-0.0372,0.0034,-0.0327,0.0014,-30.6563,-31.0313,-2.1938,,adl
11.974861,-0.0536,-0.0032,-0.0372,0.0034,-0.0327,0.0014,-30.6563,-31.0313,-2.1938,,adl
11.977552,-0.0216,-0.0477,0.0217,0.0034,-0.0327,0.0014,-30.6563,-31.0313,-2.1938,,adl
11.994114,-0.0216,-0.0477,0.0217,0.0034,-0.0327,0.0014,-30.975,-30.6,-2.4938,,adl
11.996722,-0.0216,-0.0477,0.0217,-0.0038,0.0137,0.0001,-30.975,-30.6,-2.4938,,adl
11.99897,-0.0856,-0.0301,0.0728,-0.0038,0.0137,0.0001,-30.975,-30.6,-2.4938,,adl
12.016715,-0.1018,-0.0305,0.0806,-0.0038,0.0137,0.0001,-30.975,-30.6,-2.4938,,adl
12.020253,-0.1018,-0.0305,0.0806,-0.0038,0.0137,0.0001,-30.975,-30.6,-2.4938,,adl
12.035129,-0.0767,-0.0406,0.0842,-0.0038,0.0137,0.0001,-30.975,-30.6,-2.4938,,adl
12.053055,-0.0767,-0.0406,0.0842,-0.0038,0.0137,0.0001,-30.8625,-30.7125,-2.3813,,adl
12.05622,-0.1,-0.0318,0.0784,-0.0038,0.0137,0.0001,-30.8625,-30.7125,-2.3813,,adl
12.058798,-0.1,-0.0318,0.0784,0.001,-0.0045,-0.0011,-30.8625,-30.7125,-2.3813,,adl
12.067401,-0.1,-0.0318,0.0784,0.001,-0.0045,-0.0011,-30.8625,-30.7125,-2.3813,,adl
12.073097,-0.0688,-0.0415,0.0536,0.001,-0.0045,-0.0011,-30.8625,-30.7125,-2.3813,,adl
12.093504,-0.0452,-0.0138,0.06,0.001,-0.0045,-0.0011,-30.8625,-30.7125,-2.3813,,adl
12.112163,-0.0433,-0.02,0.0257,0.001,-0.0045,-0.0011,-30.8625,-30.7125,-2.3813,,adl
12.114706,-0.0433,-0.02,0.0257,0.001,-0.0045,-0.0011,-30.375,-30.8438,-2.1938,,adl
12.116982,-0.0433,-0.02,0.0257,0.001,-0.0045,-0.0011,-30.375,-30.8438,-2.1938,,adl
12.123104,-0.0433,-0.02,0.0257,0.0034,0.0015,-0.0023,-30.375,-30.8438,-2.1938,,adl
12.131023,-0.081,0.0049,0.0245,0.0034,0.0015,-0.0023,-30.375,-30.8438,-2.1938,,adl
12.150215,-0.0652,0.0205,0.0519,0.0034,0.0015,-0.0023,-30.375,-30.8438,-2.1938,,adl
12.164297,-0.0652,0.0205,0.0519,0.0034,0.0015,-0.0023,-30.375,-30.8438,-2.1938,,adl
12.169674,-0.0689,0.0104,0.0603,0.0034,0.0015,-0.0023,-30.375,-30.8438,-2.1938,,adl
12.172311,-0.0689,0.0104,0.0603,0.0034,0.0015,-0.0023,-30.7875,-30.3188,-2.3813,,adl
12.182787,-0.0689,0.0104,0.0603,-0.0038,-0.0021,0.0062,-30.7875,-30.3188,-2.3813,,adl
12.188902,-0.0589,-0.0181,0.081,-0.0038,-0.0021,0.0062,-30.7875,-30.3188,-2.3813,,adl
12.208237,-0.0592,-0.0276,0.0492,-0.0038,-0.0021,0.0062,-30.7875,-30.3188,-2.3813,,adl
12.211522,-0.0592,-0.0276,0.0492,-0.0038,-0.0021,0.0062,-30.7875,-30.3188,-2.3813,,adl
12.22688,-0.0332,-0.027,0.0127,-0.0038,-0.0021,0.0062,-30.7875,-30.3188,-2.3813,,adl
12.231888,-0.0332,-0.027,0.0127,-0.0038,-0.0021,0.0062,-30.3,-30.45,-2.1938,,adl
12.245084,-0.0332,-0.027,0.0127,-0.0038,0.0015,0.0026,-30.3,-30.45,-2.1938,,adl
12.247653,-0.0399,-0.0644,0.0527,-0.0038,0.0015,0.0026,-30.3,-30.45,-2.1938,,adl
12.259299,-0.0399,-0.0644,0.0527,-0.0038,0.0015,0.0026,-30.3,-30.45,-2.1938,,adl
12.264604,-0.0443,-0.047,0.0711,-0.0038,0.0015,0.0026,-30.3,-30.45,-2.1938,,adl
12.284667,-0.0618,-0.0373,0.0682,-0.0038,0.0015,0.0026,-30.3,-30.45,-2.1938,,adl
12.29235,-0.0618,-0.0373,0.0682,-0.0038,0.0015,0.0026,-30.975,-30.6,-2.4938,,adl
12.303705,-0.0326,-0.0404,0.0224,-0.0038,0.0015,0.0026,-30.975,-30.6,-2.4938,,adl
12.307063,-0.0326,-0.0404,0.0224,-0.0038,0.0015,0.0026,-30.975,-30.6,-2.4938,,adl
12.309049,-0.0326,-0.0404,0.0224,0.0022,-0.007,0.0014,-30.975,-30.6,-2.4938,,adl
12.322327,-0.0405,-0.0241,0.0051,0.0022,-0.007,0.0014,-30.975,-30.6,-2.4938,,adl
12.342332,-0.0229,-0.0241,0.0496,0.0022,-0.007,0.0014,-30.975,-30.6,-2.4938,,adl
12.352026,-0.0229,-0.0241,0.0496,0.0022,-0.007,0.0014,-30.7688,-30.525,-2.2875,,adl
12.35492,-0.0229,-0.0241,0.0496,0.0022,-0.007,0.0014,-30.7688,-30.525,-2.2875,,adl
12.362643,-0.0366,-0.0148,0.0677,0.0022,-0.007,0.0014,-30.7688,-30.525,-2.2875,,adl
12.368539,-0.0366,-0.0148,0.0677,-0.0003,0.004,0.0001,-30.7688,-30.525,-2.2875,,adl
12.379231,-0.0253,-0.0295,0.0528,-0.0003,0.004,0.0001,-30.7688,-30.525,-2.2875,,adl
12.398891,-0.0435,0.0081,0.0428,-0.0003,0.004,0.0001,-30.7688,-30.525,-2.2875,,adl
12.403442,-0.0435,0.0081,0.0428,-0.0003,0.004,0.0001,-30.7688,-30.525,-2.2875,,adl
12.412147,-0.0435,0.0081,0.0428,-0.0003,0.004,0.0001,-30.675,-30.6188,-2.4938,,adl
12.418336,-0.0407,-0.021,0.0474,-0.0003,0.004,0.0001,-30.675,-30.6188,-2.4938,,adl
12.430688,-0.0407,-0.021,0.0474,0.001,-0.0045,0.0014,-30.675,-30.6188,-2.4938,,adl
12.436782,-0.0071,-0.0027,0.0377,0.001,-0.0045,0.0014,-30.675,-30.6188,-2.4938,,adl
12.450716,-0.0071,-0.0027,0.0377,0.001,-0.0045,0.0014,-30.675,-30.6188,-2.4938,,adl
12.4567,-0.0232,-0.0149,0.0039,0.001,-0.0045,0.0014,-30.675,-30.6188,-2.4938,,adl
12.47192,-0.0232,-0.0149,0.0039,0.001,-0.0045,0.0014,-31.05,-30.6938,-2.5875,,adl
12.474547,-0.0398,-0.0357,0.0463,0.001,-0.0045,0.0014,-31.05,-30.6938,-2.5875,,adl
12.494484,-0.0398,-0.0357,0.0463,-0.0015,0.0027,0.0038,-31.05,-30.6938,-2.5875,,adl
12.49745,-0.0204,-0.0469,0.0792,-0.0015,0.0027,0.0038,-31.05,-30.6938,-2.5875,,adl
12.499579,-0.0204,-0.0469,0.0792,-0.0015,0.0027,0.0038,-31.05,-30.6938,-2.5875,,adl
12.513706,-0.0248,-0.0513,0.0528,-0.0015,0.0027,0.0038,-31.05,-30.6938,-2.5875,,adl
12.532873,-0.0324,-0.0563,0.0218,-0.0015,0.0027,0.0038,-31.05,-30.6938,-2.5875,,adl
12.536318,-0.0324,-0.0563,0.0218,-0.0015,0.0027,0.0038,-30.5625,-30.825,-2.1938,,adl
12.546247,-0.0324,-0.0563,0.0218,-0.0015,0.0027,0.0038,-30.5625,-30.825,-2.1938,,adl
12.551333,-0.0112,-0.023,0.0194,-0.0015,0.0027,0.0038,-30.5625,-30.825,-2.1938,,adl
12.555118,-0.0112,-0.023,0.0194,-0.0003,-0.0045,0.0001,-30.5625,-30.825,-2.1938,,adl
12.572766,-0.0137,-0.0301,0.0123,-0.0003,-0.0045,0.0001,-30.5625,-30.825,-2.1938,,adl
12.5909,-0.0179,-0.0513,-0.0022,-0.0003,-0.0045,0.0001,-30.5625,-30.825,-2.1938,,adl
12.594059,-0.0179,-0.0513,-0.0022,-0.0003,-0.0045,0.0001,-30.8438,-31.0125,-2.2875,,adl
12.595992,-0.0179,-0.0513,-0.0022,-0.0003,-0.0045,0.0001,-30.8438,-31.0125,-2.2875,,adl
12.609834,-0.0331,-0.0148,0.0453,-0.0003,-0.0045,0.0001,-30.8438,-31.0125,-2.2875,,adl
12.619215,-0.0331,-0.0148,0.0453,-0.0027,0.0052,-0.0011,-30.8438,-31.0125,-2.2875,,adl
12.630295,-0.0121,-0.0215,0.0831,-0.0027,0.0052,-0.0011,-30.8438,-31.0125,-2.2875,,adl
12.64197,-0.0121,-0.0215,0.0831,-0.0027,0.0052,-0.0011,-30.8438,-31.0125,-2.2875,,adl
12.647635,-0.0066,0.0,0.0541,-0.0027,0.0052,-0.0011,-30.8438,-31.0125,-2.2875,,adl
12.653071,-0.0066,0.0,0.0541,-0.0027,0.0052,-0.0011,-31.2563,-30.8063,-2.2688,,adl
12.667338,-0.0069,-0.0124,-0.0177,-0.0027,0.0052,-0.0011,-31.2563,-30.8063,-2.2688,,adl
12.680592,-0.0069,-0.0124,-0.0177,-0.0015,0.0065,0.0014,-31.2563,-30.8063,-2.2688,,adl
12.686346,-0.0055,-0.0359,0.0083,-0.0015,0.0065,0.0014,-31.2563,-30.8063,-2.2688,,adl
12.689936,-0.0055,-0.0359,0.0083,-0.0015,0.0065,0.0014,-31.2563,-30.8063,-2.2688,,adl
12.704721,-0.0003,-0.0251,0.0771,-0.0015,0.0065,0.0014,-31.2563,-30.8063,-2.2688,,adl
12.712253,-0.0003,-0.0251,0.0771,-0.0015,0.0065,0.0014,-30.7688,-30.5063,-2.4938,,adl
12.723156,-0.0371,-0.0392,0.091,-0.0015,0.0065,0.0014,-30.7688,-30.5063,-2.4938,,adl
12.737593,-0.0371,-0.0392,0.091,-0.0015,0.0065,0.0014,-30.7688,-30.5063,-2.4938,,adl
12.741748,-0.0371,-0.0392,0.091,0.0047,-0.0131,0.0001,-30.7688,-30.5063,-2.4938,,adl
12.742557,-0.0189,-0.023,0.0242,0.0047,-0.0131,0.0001,-30.7688,-30.5063,-2.4938,,adl
12.762757,-0.0434,-0.0095,-0.0213,0.0047,-0.0131,0.0001,-30.7688,-30.5063,-2.4938,,adl
12.774139,-0.0434,-0.0095,-0.0213,0.0047,-0.0131,0.0001,-30.375,-30.7125,-2.6063,,adl
12.781057,0.0221,-0.0236,0.0049,0.0047,-0.0131,0.0001,-30.375,-30.7125,-2.6063,,adl
12.785659,0.0221,-0.0236,0.0049,0.0047,-0.0131,0.0001,-30.375,-30.7125,-2.6063,,adl
12.80105,-0.0139,-0.0419,0.0402,0.0047,-0.0131,0.0001,-30.375,-30.7125,-2.6063,,adl
12.805375,-0.0139,-0.0419,0.0402,-0.0015,0.01,0.0014,-30.375,-30.7125,-2.6063,,adl
12.819281,-0.0165,-0.0222,0.0851,-0.0015,0.01,0.0014,-30.375,-30.7125,-2.6063,,adl
12.832503,-0.0165,-0.0222,0.0851,-0.0015,0.01,0.0014,-30.8813,-30.4125,-2.5875,,adl
12.835475,-0.0165,-0.0222,0.0851,-0.0015,0.01,0.0014,-30.8813,-30.4125,-2.5875,,adl
12.840175,-0.0021,-0.0461,0.0588,-0.0015,0.01,0.0014,-30.8813,-30.4125,-2.5875,,adl
12.857944,-0.0156,-0.0484,0.0257,-0.0015,0.01,0.0014,-30.8813,-30.4125,-2.5875,,adl
12.866457,-0.0156,-0.0484,0.0257,0.001,-0.0118,-0.0048,-30.8813,-30.4125,-2.5875,,adl
12.877239,0.0071,-0.0513,0.0548,0.001,-0.0118,-0.0048,-30.8813,-30.4125,-2.5875,,adl
12.881955,0.0071,-0.0513,0.0548,0.001,-0.0118,-0.0048,-30.8813,-30.4125,-2.5875,,adl
12.891957,0.0071,-0.0513,0.0548,0.001,-0.0118,-0.0048,-30.5813,-30.4875,-3.1313,,adl
12.895597,-0.0507,0.0254,0.007,0.001,-0.0118,-0.0048,-30.5813,-30.4875,-3.1313,,adl
12.916123,-0.0083,-0.0217,0.0537,0.001,-0.0118,-0.0048,-30.5813,-30.4875,-3.1313,,adl
12.930447,-0.0083,-0.0217,0.0537,0.001,-0.0118,-0.0048,-30.5813,-30.4875,-3.1313,,adl
12.933058,-0.0083,-0.0217,0.0537,0.001,0.0065,0.0038,-30.5813,-30.4875,-3.1313,,adl
12.934979,0.015,-0.0262,0.0484,0.001,0.0065,0.0038,-30.5813,-30.4875,-3.1313,,adl
12.952349,-0.0292,-0.0119,0.0313,0.001,0.0065,0.0038,-30.5813,-30.4875,-3.1313,,adl
12.953442,-0.0292,-0.0119,0.0313,0.001,0.0065,0.0038,-30.3,-30.3188,-2.8125,,adl
12.972921,-0.0293,-0.0305,0.0283,0.001,0.0065,0.0038,-30.3,-30.3188,-2.8125,,adl
12.977057,-0.0293,-0.0305,0.0283,0.001,0.0065,0.0038,-30.3,-30.3188,-2.8125,,adl
12.991255,-0.0293,-0.0305,0.0283,-0.0027,0.0027,0.0001,-30.3,-30.3188,-2.8125,,adl
12.994255,0.0083,-0.0463,0.059,-0.0027,0.0027,0.0001,-30.3,-30.3188,-2.8125,,adl
13.010681,0.0282,-0.0096,0.0158,-0.0027,0.0027,0.0001,-30.3,-30.3188,-2.8125,,adl
13.012921,0.0282,-0.0096,0.0158,-0.0027,0.0027,0.0001,-30.5813,-30.7125,-2.4938,,adl
13.024276,0.0282,-0.0096,0.0158,-0.0027,0.0027,0.0001,-30.5813,-30.7125,-2.4938,,adl
13.029392,-0.0348,0.0064,-0.1001,-0.0027,0.0027,0.0001,-30.5813,-30.7125,-2.4938,,adl
13.049497,-0.0185,-0.0429,-0.3073,-0.0027,0.0027,0.0001,-30.5813,-30.7125,-2.4938,,adl
13.052898,-0.0185,-0.0429,-0.3073,-0.0796,0.1811,-0.0121,-30.5813,-30.7125,-2.4938,,adl
13.068641,-0.1221,0.0469,-0.0891,-0.0796,0.1811,-0.0121,-30.5813,-30.7125,-2.4938,,adl
13.072229,-0.1221,0.0469,-0.0891,-0.0796,0.1811,-0.0121,-30.7688,-30.5063,-2.4938,,adl
13.074209,-0.1221,0.0469,-0.0891,-0.0796,0.1811,-0.0121,-30.7688,-30.5063,-2.4938,,adl
13.087578,-0.0444,0.0503,-0.0203,-0.0796,0.1811,-0.0121,-30.7688,-30.5063,-2.4938,,adl
13.106453,0.0679,-0.0316,0.2877,-0.0796,0.1811,-0.0121,-30.7688,-30.5063,-2.4938,,adl
13.115496,0.0679,-0.0316,0.2877,-0.043,0.114,0.0307,-30.7688,-30.5063,-2.4938,,adl
13.121438,0.0679,-0.0316,0.2877,-0.043,0.114,0.0307,-30.7688,-30.5063,-2.4938,,adl
13.125762,0.0579,-0.0452,0.2884,-0.043,0.114,0.0307,-30.7688,-30.5063,-2.4938,,adl
13.131422,0.0579,-0.0452,0.2884,-0.043,0.114,0.0307,-30.5813,-30.4875,-2.925,,adl
13.144575,0.0415,-0.0519,0.12,-0.043,0.114,0.0307,-30.5813,-30.4875,-2.925,,adl
13.165071,-0.0188,-0.0118,0.1115,-0.043,0.114,0.0307,-30.5813,-30.4875,-2.925,,adl
13.168575,-0.0188,-0.0118,0.1115,-0.043,0.114,0.0307,-30.5813,-30.4875,-2.925,,adl
13.17757,-0.0188,-0.0118,0.1115,0.034,-0.0828,0.0049,-30.5813,-30.4875,-2.925,,adl
13.182788,-0.0193,-0.0601,0.1286,0.034,-0.0828,0.0049,-30.5813,-30.4875,-2.925,,adl
13.194608,-0.0193,-0.0601,0.1286,0.034,-0.0828,0.0049,-31.35,-30.5438,-3.4125,,adl
13.202083,-0.002,-0.0412,0.0466,0.034,-0.0828,0.0049,-31.35,-30.5438,-3.4125,,adl
13.215835,-0.002,-0.0412,0.0466,0.034,-0.0828,0.0049,-31.35,-30.5438,-3.4125,,adl
13.221437,-0.0032,-0.0084,-0.0524,0.034,-0.0828,0.0049,-31.35,-30.5438,-3.4125,,adl
13.240041,-0.0032,-0.0084,-0.0524,0.023,-0.0583,-0.0048,-31.35,-30.5438,-3.4125,,adl
13.243042,0.0225,-0.0088,-0.0303,0.023,-0.0583,-0.0048,-31.35,-30.5438,-3.4125,,adl
13.252179,0.0225,-0.0088,-0.0303,0.023,-0.0583,-0.0048,-30.9563,-30.6938,-2.7938,,adl
13.260009,-0.0297,-0.0028,0.0316,0.023,-0.0583,-0.0048,-30.9563,-30.6938,-2.7938,,adl
13.265829,-0.0297,-0.0028,0.0316,0.023,-0.0583,-0.0048,-30.9563,-30.6938,-2.7938,,adl
13.27876,-0.0366,-0.0185,0.0745,0.023,-0.0583,-0.0048,-30.9563,-30.6938,-2.7938,,adl
13.298093,-0.0269,-0.0019,0.0796,0.023,-0.0583,-0.0048,-30.9563,-30.6938,-2.7938,,adl
13.301925,-0.0269,-0.0019,0.0796,0.029,-0.0815,-0.0011,-30.9563,-30.6938,-2.7938,,adl
13.311497,-0.0269,-0.0019,0.0796,0.029,-0.0815,-0.0011,-30.9563,-30.6938,-2.7938,,adl
13.314631,-0.0269,-0.0019,0.0796,0.029,-0.0815,-0.0011,-30.6563,-30.8063,-2.7,,adl
13.317298,-0.0528,-0.0359,0.1165,0.029,-0.0815,-0.0011,-30.6563,-30.8063,-2.7,,adl
13.336379,-0.0497,-0.0656,0.1563,0.029,-0.0815,-0.0011,-30.6563,-30.8063,-2.7,,adl
13.355105,0.0624,-0.0532,0.0661,0.029,-0.0815,-0.0011,-30.6563,-30.8063,-2.7,,adl
13.359214,0.0624,-0.0532,0.0661,0.029,-0.0815,-0.0011,-30.6563,-30.8063,-2.7,,adl
13.364052,0.0624,-0.0532,0.0661,0.0364,-0.1328,-0.0133,-30.6563,-30.8063,-2.7,,adl
13.371984,0.0624,-0.0532,0.0661,0.0364,-0.1328,-0.0133,-30.7688,-30.7125,-2.4938,,adl
13.375308,0.027,0.0118,-0.0571,0.0364,-0.1328,-0.0133,-30.7688,-30.7125,-2.4938,,adl
13.394237,0.0521,0.0316,-0.227,0.0364,-0.1328,-0.0133,-30.7688,-30.7125,-2.4938,,adl
13.40875,0.0521,0.0316,-0.227,0.0364,-0.1328,-0.0133,-30.7688,-30.7125,-2.4938,,adl
13.412807,0.079,0.0404,-0.17,0.0364,-0.1328,-0.0133,-30.7688,-30.7125,-2.4938,,adl
13.426163,0.079,0.0404,-0.17,-0.0137,0.0272,0.0062,-30.7688,-30.7125,-2.4938,,adl
13.430958,0.0455,-0.0118,-0.0889,-0.0137,0.0272,0.0062,-30.7688,-30.7125,-2.4938,,adl
13.431898,0.0455,-0.0118,-0.0889,-0.0137,0.0272,0.0062,-30.1875,-30.6563,-1.9875,,adl
13.451146,-0.0086,-0.0196,0.0768,-0.0137,0.0272,0.0062,-30.1875,-30.6563,-1.9875,,adl
13.454603,-0.0086,-0.0196,0.0768,-0.0137,0.0272,0.0062,-30.1875,-30.6563,-1.9875,,adl
13.469787,-0.0154,0.0019,0.13,-0.0137,0.0272,0.0062,-30.1875,-30.6563,-1.9875,,adl
13.488659,-0.0154,0.0019,0.13,-0.0076,-0.0021,0.0037,-30.1875,-30.6563,-1.9875,,adl
13.492028,-0.0702,0.0106,0.091,-0.0076,-0.0021,0.0037,-30.1875,-30.6563,-1.9875,,adl
13.494317,-0.0702,0.0106,0.091,-0.0076,-0.0021,0.0037,-30.5813,-30.7313,-2.4,,adl
13.501826,-0.0702,0.0106,0.091,-0.0076,-0.0021,0.0037,-30.5813,-30.7313,-2.4,,adl
13.50808,-0.0507,-0.0184,0.041,-0.0076,-0.0021,0.0037,-30.5813,-30.7313,-2.4,,adl
13.526913,0.029,-0.0633,0.0324,-0.0076,-0.0021,0.0037,-30.5813,-30.7313,-2.4,,adl
13.546596,0.0618,-0.0513,0.0194,-0.0076,-0.0021,0.0037,-30.5813,-30.7313,-2.4,,adl
13.552806,0.0618,-0.0513,0.0194,-0.0076,-0.0021,0.0037,-30.5813,-30.7313,-2.4,,adl
13.554045,0.0618,-0.0513,0.0194,-0.0051,-0.0131,-0.0036,-30.5813,-30.7313,-2.4,,adl
13.554769,0.0618,-0.0513,0.0194,-0.0051,-0.0131,-0.0036,-30.4688,-30.6188,-2.6063,,adl
13.566188,0.0261,0.0022,0.0058,-0.0051,-0.0131,-0.0036,-30.4688,-30.6188,-2.6063,,adl
13.585249,0.0209,0.0167,-0.0252,-0.0051,-0.0131,-0.0036,-30.4688,-30.6188,-2.6063,,adl
13.597632,0.0209,0.0167,-0.0252,-0.0051,-0.0131,-0.0036,-30.4688,-30.6188,-2.6063,,adl
13.602813,0.0063,-0.0136,-0.0185,-0.0051,-0.0131,-0.0036,-30.4688,-30.6188,-2.6063,,adl
13.612481,0.0063,-0.0136,-0.0185,-0.0051,-0.0131,-0.0036,-30.375,-30.7313,-2.5125,,adl
13.615561,0.0063,-0.0136,-0.0185,-0.0076,0.021,0.0049,-30.375,-30.7313,-2.5125,,adl
13.622709,-0.0086,-0.0351,0.0452,-0.0076,0.021,0.0049,-30.375,-30.7313,-2.5125,,adl
13.641721,0.0428,-0.0714,0.0878,-0.0076,0.021,0.0049,-30.375,-30.7313,-2.5125,,adl
13.645638,0.0428,-0.0714,0.0878,-0.0076,0.021,0.0049,-30.375,-30.7313,-2.5125,,adl
13.661407,0.0441,-0.0528,0.0369,-0.0076,0.021,0.0049,-30.375,-30.7313,-2.5125,,adl
