time,ax,ay,az,wx,wy,wz,Bx,By,Bz,Unnamed: 10,label
0.011001,0.0,0.0,0.0,0.0,0.0,0.0,0.0,0.0,0.0,,adl
0.029235,0.4172,0.0471,-0.5333,0.0,0.0,0.0,0.0,0.0,0.0,,adl
0.049387,1.0151,-0.3081,0.3824,0.0,0.0,0.0,0.0,0.0,0.0,,adl
0.056847,1.0151,-0.3081,0.3824,0.0,0.0,0.0,0.0,0.0,0.0,,adl
0.058245,1.0151,-0.3081,0.3824,0.0,0.0,0.0,-40.35,-2.7938,16.575,,adl
0.066846,1.0151,-0.3081,0.3824,0.1038,0.1606,-0.0572,-40.35,-2.7938,16.575,,adl
0.068048,-0.0528,-0.0954,0.2966,0.1038,0.1606,-0.0572,-40.35,-2.7938,16.575,,adl
0.087494,-0.6683,0.0826,-0.5411,0.1038,0.1606,-0.0572,-40.35,-2.7938,16.575,,adl
0.105378,-0.6683,0.0826,-0.5411,0.1038,0.1606,-0.0572,-40.35,-2.7938,16.575,,adl
0.106929,-0.2751,-0.0232,-0.0816,0.1038,0.1606,-0.0572,-40.35,-2.7938,16.575,,adl
0.118447,-0.2751,-0.0232,-0.0816,0.1038,0.1606,-0.0572,-40.05,-3.0188,16.8938,,adl
0.125404,-0.2471,-0.0753,0.5432,0.1038,0.1606,-0.0572,-40.05,-3.0188,16.8938,,adl
0.12879,-0.2471,-0.0753,0.5432,0.1062,-0.1412,0.0748,-40.05,-3.0188,16.8938,,adl
0.144027,-0.2046,-0.1473,0.4628,0.1062,-0.1412,0.0748,-40.05,-3.0188,16.8938,,adl
0.158517,-0.2046,-0.1473,0.4628,0.1062,-0.1412,0.0748,-40.05,-3.0188,16.8938,,adl
0.162675,-0.0198,-0.1322,-0.0656,0.1062,-0.1412,0.0748,-40.05,-3.0188,16.8938,,adl
0.177964,-0.0198,-0.1322,-0.0656,0.1062,-0.1412,0.0748,-39.9938,-2.0813,17.625,,adl
0.183141,0.2991,-0.0208,-0.4696,0.1062,-0.1412,0.0748,-39.9938,-2.0813,17.625,,adl
0.191399,0.2991,-0.0208,-0.4696,0.3835,-0.2768,0.0748,-39.9938,-2.0813,17.625,,adl
0.20115,0.2991,-0.0208,-0.4696,0.3835,-0.2768,0.0748,-39.9938,-2.0813,17.625,,adl
0.202617,0.5369,0.0835,-0.6262,0.3835,-0.2768,0.0748,-39.9938,-2.0813,17.625,,adl
0.220769,0.6306,0.0986,-1.1741,0.3835,-0.2768,0.0748,-39.9938,-2.0813,17.625,,adl
0.239596,0.6306,0.0986,-1.1741,0.3835,-0.2768,0.0748,-39.6,-2.4,17.8125,,adl
0.242922,0.6028,0.0977,-1.4912,0.3835,-0.2768,0.0748,-39.6,-2.4,17.8125,,adl
0.248284,0.6028,0.0977,-1.4912,0.3835,-0.2768,0.0748,-39.6,-2.4,17.8125,,adl
0.252876,0.6028,0.0977,-1.4912,-0.1247,0.3109,-0.0242,-39.6,-2.4,17.8125,,adl
0.258915,0.7435,-0.0487,-0.5329,-0.1247,0.3109,-0.0242,-39.6,-2.4,17.8125,,adl
0.278548,0.2706,-0.1095,0.2607,-0.1247,0.3109,-0.0242,-39.6,-2.4,17.8125,,adl
0.296568,0.2706,-0.1095,0.2607,-0.1247,0.3109,-0.0242,-39.6,-2.4,17.8125,,adl
0.297502,-0.0556,-0.2289,0.3935,-0.1247,0.3109,-0.0242,-39.6,-2.4,17.8125,,adl
0.298774,-0.0556,-0.2289,0.3935,-0.1247,0.3109,-0.0242,-40.3688,-2.325,17.0063,,adl
0.315686,-0.0556,-0.2289,0.3935,-0.0869,0.2571,-0.0132,-40.3688,-2.325,17.0063,,adl
0.317617,0.052,-0.2414,0.1818,-0.0869,0.2571,-0.0132,-40.3688,-2.325,17.0063,,adl
0.335884,0.0877,-0.1544,0.2357,-0.0869,0.2571,-0.0132,-40.3688,-2.325,17.0063,,adl
0.3445,0.0877,-0.1544,0.2357,-0.0869,0.2571,-0.0132,-40.3688,-2.325,17.0063,,adl
0.354501,0.1204,-0.156,0.4153,-0.0869,0.2571,-0.0132,-40.3688,-2.325,17.0063,,adl
0.358885,0.1204,-0.156,0.4153,-0.0869,0.2571,-0.0132,-40.4625,-2.4,16.3875,,adl
0.373874,0.106,-0.1343,0.4726,-0.0869,0.2571,-0.0132,-40.4625,-2.4,16.3875,,adl
0.378416,0.106,-0.1343,0.4726,0.0133,0.2241,0.0759,-40.4625,-2.4,16.3875,,adl
0.39209,0.106,-0.1343,0.4726,0.0133,0.2241,0.0759,-40.4625,-2.4,16.3875,,adl
0.3931,0.201,-0.098,0.428,0.0133,0.2241,0.0759,-40.4625,-2.4,16.3875,,adl
0.412433,0.1775,-0.0347,0.1907,0.0133,0.2241,0.0759,-40.4625,-2.4,16.3875,,adl
0.418553,0.1775,-0.0347,0.1907,0.0133,0.2241,0.0759,-40.3688,-1.9688,15.8625,,adl
0.432099,0.3649,-0.1489,0.0049,0.0133,0.2241,0.0759,-40.3688,-1.9688,15.8625,,adl
0.441933,0.3649,-0.1489,0.0049,0.0133,0.2241,0.0759,-40.3688,-1.9688,15.8625,,adl
0.443628,0.3649,-0.1489,0.0049,0.1844,0.0763,0.0564,-40.3688,-1.9688,15.8625,,adl
0.44994,0.367,-0.1203,-0.09,0.1844,0.0763,0.0564,-40.3688,-1.9688,15.8625,,adl
0.470912,0.249,-0.042,-0.2909,0.1844,0.0763,0.0564,-40.3688,-1.9688,15.8625,,adl
0.478405,0.249,-0.042,-0.2909,0.1844,0.0763,0.0564,-40.4813,-1.95,15.7688,,adl
0.487926,0.249,-0.042,-0.2909,0.1844,0.0763,0.0564,-40.4813,-1.95,15.7688,,adl
0.489096,0.4234,-0.0414,-0.2248,0.1844,0.0763,0.0564,-40.4813,-1.95,15.7688,,adl
0.501957,0.4234,-0.0414,-0.2248,0.1611,0.1264,0.0076,-40.4813,-1.95,15.7688,,adl
0.507541,0.4426,-0.0737,-0.0267,0.1611,0.1264,0.0076,-40.4813,-1.95,15.7688,,adl
0.526949,0.3605,-0.1085,-0.025,0.1611,0.1264,0.0076,-40.4813,-1.95,15.7688,,adl
0.535805,0.3605,-0.1085,-0.025,0.1611,0.1264,0.0076,-40.4813,-1.95,15.7688,,adl
0.538548,0.3605,-0.1085,-0.025,0.1611,0.1264,0.0076,-40.7812,-1.3313,15.4688,,adl
0.545396,0.1351,-0.1785,-0.0609,0.1611,0.1264,0.0076,-40.7812,-1.3313,15.4688,,adl
0.564269,0.1351,-0.1785,-0.0609,0.2382,0.1276,-0.0096,-40.7812,-1.3313,15.4688,,adl
0.56537,0.1094,-0.1264,-0.1244,0.2382,0.1276,-0.0096,-40.7812,-1.3313,15.4688,,adl
0.583584,0.1094,-0.1264,-0.1244,0.2382,0.1276,-0.0096,-40.7812,-1.3313,15.4688,,adl
0.584584,0.0502,-0.0987,-0.3814,0.2382,0.1276,-0.0096,-40.7812,-1.3313,15.4688,,adl
0.605074,0.0502,-0.0987,-0.3814,0.2382,0.1276,-0.0096,-39.9188,-0.8813,13.7813,,adl
0.60819,-0.0135,-0.0537,-0.4773,0.2382,0.1276,-0.0096,-39.9188,-0.8813,13.7813,,adl
0.622208,0.0728,-0.1248,-0.3097,0.2382,0.1276,-0.0096,-39.9188,-0.8813,13.7813,,adl
0.625723,0.0728,-0.1248,-0.3097,0.0939,-0.1314,0.0283,-39.9188,-0.8813,13.7813,,adl
0.631282,0.0728,-0.1248,-0.3097,0.0939,-0.1314,0.0283,-39.9188,-0.8813,13.7813,,adl
0.641129,0.1052,-0.1986,-0.2163,0.0939,-0.1314,0.0283,-39.9188,-0.8813,13.7813,,adl
0.659023,0.1052,-0.1986,-0.2163,0.0939,-0.1314,0.0283,-40.9125,-0.9563,15.7875,,adl
0.662199,0.1459,-0.1352,-0.2617,0.0939,-0.1314,0.0283,-40.9125,-0.9563,15.7875,,adl
0.679082,0.1459,-0.1352,-0.2617,0.0939,-0.1314,0.0283,-40.9125,-0.9563,15.7875,,adl
0.679518,0.2381,-0.1917,-0.2726,0.0939,-0.1314,0.0283,-40.9125,-0.9563,15.7875,,adl
0.689001,0.2381,-0.1917,-0.2726,0.0291,-0.1045,0.0308,-40.9125,-0.9563,15.7875,,adl
0.699301,0.3219,-0.1909,-0.2436,0.0291,-0.1045,0.0308,-40.9125,-0.9563,15.7875,,adl
0.718644,0.2654,-0.1813,-0.2454,0.0291,-0.1045,0.0308,-40.9125,-0.9563,15.7875,,adl
0.720022,0.2654,-0.1813,-0.2454,0.0291,-0.1045,0.0308,-40.9125,-0.975,16.0875,,adl
0.726481,0.2654,-0.1813,-0.2454,0.0291,-0.1045,0.0308,-40.9125,-0.975,16.0875,,adl
0.73725,0.1895,-0.1613,-0.1605,0.0291,-0.1045,0.0308,-40.9125,-0.975,16.0875,,adl
0.750864,0.1895,-0.1613,-0.1605,-0.0074,0.0225,0.0331,-40.9125,-0.975,16.0875,,adl
0.756695,0.0477,-0.2075,-0.0926,-0.0074,0.0225,0.0331,-40.9125,-0.975,16.0875,,adl
0.775041,0.0477,-0.2075,-0.0926,-0.0074,0.0225,0.0331,-40.9125,-0.975,16.0875,,adl
0.777672,-0.06,-0.1495,-0.1523,-0.0074,0.0225,0.0331,-40.9125,-0.975,16.0875,,adl
0.780649,-0.06,-0.1495,-0.1523,-0.0074,0.0225,0.0331,-40.5188,-1.0875,16.1813,,adl
0.794706,0.0511,-0.1745,-0.1139,-0.0074,0.0225,0.0331,-40.5188,-1.0875,16.1813,,adl
0.813119,0.0511,-0.1745,-0.1139,-0.0221,-0.1009,0.0967,-40.5188,-1.0875,16.1813,,adl
0.814546,0.1029,-0.2201,-0.1748,-0.0221,-0.1009,0.0967,-40.5188,-1.0875,16.1813,,adl
0.82275,0.1029,-0.2201,-0.1748,-0.0221,-0.1009,0.0967,-40.5188,-1.0875,16.1813,,adl
0.833163,0.1189,-0.1741,-0.1677,-0.0221,-0.1009,0.0967,-40.5188,-1.0875,16.1813,,adl
0.838234,0.1189,-0.1741,-0.1677,-0.0221,-0.1009,0.0967,-40.4438,-0.7125,16.3875,,adl
0.852019,0.1926,-0.1497,-0.1694,-0.0221,-0.1009,0.0967,-40.4438,-0.7125,16.3875,,adl
0.870825,0.1926,-0.1497,-0.1694,-0.0221,-0.1009,0.0967,-40.4438,-0.7125,16.3875,,adl
0.873413,0.3272,-0.0379,-0.1036,-0.0221,-0.1009,0.0967,-40.4438,-0.7125,16.3875,,adl
0.876044,0.3272,-0.0379,-0.1036,-0.0624,-0.0825,0.0869,-40.4438,-0.7125,16.3875,,adl
0.889944,0.2836,0.0128,-0.047,-0.0624,-0.0825,0.0869,-40.4438,-0.7125,16.3875,,adl
0.898248,0.2836,0.0128,-0.047,-0.0624,-0.0825,0.0869,-40.35,-0.6188,16.5,,adl
0.909367,0.1476,0.0217,-0.0597,-0.0624,-0.0825,0.0869,-40.35,-0.6188,16.5,,adl
0.918158,0.1476,0.0217,-0.0597,-0.0624,-0.0825,0.0869,-40.35,-0.6188,16.5,,adl
0.929806,0.1457,0.0298,-0.0586,-0.0624,-0.0825,0.0869,-40.35,-0.6188,16.5,,adl
0.937426,0.1457,0.0298,-0.0586,-0.0587,0.0066,0.0429,-40.35,-0.6188,16.5,,adl
0.947344,0.1983,0.0221,-0.087,-0.0587,0.0066,0.0429,-40.35,-0.6188,16.5,,adl
0.957726,0.1983,0.0221,-0.087,-0.0587,0.0066,0.0429,-40.1438,-0.5063,16.275,,adl
0.965843,0.1983,0.0221,-0.087,-0.0587,0.0066,0.0429,-40.1438,-0.5063,16.275,,adl
0.967045,0.1417,0.0531,0.0417,-0.0587,0.0066,0.0429,-40.1438,-0.5063,16.275,,adl
0.986448,0.1613,0.0113,0.2647,-0.0587,0.0066,0.0429,-40.1438,-0.5063,16.275,,adl
0.999946,0.1613,0.0113,0.2647,-0.0319,0.0103,0.0234,-40.1438,-0.5063,16.275,,adl
1.00768,0.1984,-0.0532,0.4809,-0.0319,0.0103,0.0234,-40.1438,-0.5063,16.275,,adl
1.014478,0.1984,-0.0532,0.4809,-0.0319,0.0103,0.0234,-40.1438,-0.5063,16.275,,adl
1.020599,0.1984,-0.0532,0.4809,-0.0319,0.0103,0.0234,-40.35,-0.3188,16.5,,adl
1.023552,0.1229,-0.052,0.4748,-0.0319,0.0103,0.0234,-40.35,-0.3188,16.5,,adl
1.043484,0.0789,-0.0519,0.389,-0.0319,0.0103,0.0234,-40.35,-0.3188,16.5,,adl
1.062661,0.0789,-0.0519,0.389,-0.0319,0.0103,0.0234,-40.35,-0.3188,16.5,,adl
1.065255,0.0789,-0.0519,0.389,0.2112,-0.129,-0.0084,-40.35,-0.3188,16.5,,adl
1.068269,-0.0409,-0.0123,0.375,0.2112,-0.129,-0.0084,-40.35,-0.3188,16.5,,adl
1.078854,-0.0409,-0.0123,0.375,0.2112,-0.129,-0.0084,-38.775,-0.4688,14.7938,,adl
1.080904,-0.0643,-0.0094,0.3498,0.2112,-0.129,-0.0084,-38.775,-0.4688,14.7938,,adl
1.101515,0.0544,-0.0599,0.3035,0.2112,-0.129,-0.0084,-38.775,-0.4688,14.7938,,adl
1.109314,0.0544,-0.0599,0.3035,0.2112,-0.129,-0.0084,-38.775,-0.4688,14.7938,,adl
1.119626,-0.0646,0.0018,-0.0383,0.2112,-0.129,-0.0084,-38.775,-0.4688,14.7938,,adl
1.123403,-0.0646,0.0018,-0.0383,0.3994,-0.4076,0.0001,-38.775,-0.4688,14.7938,,adl
1.139662,-0.1697,0.0611,-0.5122,0.3994,-0.4076,0.0001,-38.775,-0.4688,14.7938,,adl
1.143193,-0.1697,0.0611,-0.5122,0.3994,-0.4076,0.0001,-40.0875,0.0375,17.1188,,adl
1.157153,-0.1697,0.0611,-0.5122,0.3994,-0.4076,0.0001,-40.0875,0.0375,17.1188,,adl
1.158304,-0.1314,0.0167,-0.6459,0.3994,-0.4076,0.0001,-40.0875,0.0375,17.1188,,adl
1.184538,-0.0048,0.0348,-0.4638,0.3994,-0.4076,0.0001,-40.0875,0.0375,17.1188,,adl
1.187521,-0.0048,0.0348,-0.4638,0.0842,-0.1547,0.0943,-40.0875,0.0375,17.1188,,adl
1.196152,0.1421,0.0738,-0.2511,0.0842,-0.1547,0.0943,-40.0875,0.0375,17.1188,,adl
1.197455,0.1421,0.0738,-0.2511,0.0842,-0.1547,0.0943,-39.7125,0.3938,17.5312,,adl
1.205069,0.1421,0.0738,-0.2511,0.0842,-0.1547,0.0943,-39.7125,0.3938,17.5312,,adl
1.215895,0.3325,0.0968,-0.0871,0.0842,-0.1547,0.0943,-39.7125,0.3938,17.5312,,adl
1.234399,0.252,0.0331,-0.1122,0.0842,-0.1547,0.0943,-39.7125,0.3938,17.5312,,adl
1.248166,0.252,0.0331,-0.1122,-0.0159,-0.1473,-0.0144,-39.7125,0.3938,17.5312,,adl
1.25271,0.252,0.0331,-0.1122,-0.0159,-0.1473,-0.0144,-39.7125,0.3938,17.5312,,adl
1.253764,-0.0402,-0.0152,-0.1641,-0.0159,-0.1473,-0.0144,-39.7125,0.3938,17.5312,,adl
1.25931,-0.0402,-0.0152,-0.1641,-0.0159,-0.1473,-0.0144,-39.7313,0.6562,18.2438,,adl
1.272788,-0.2067,-0.0446,0.0485,-0.0159,-0.1473,-0.0144,-39.7313,0.6562,18.2438,,adl
1.293219,-0.1934,-0.0319,0.2929,-0.0159,-0.1473,-0.0144,-39.7313,0.6562,18.2438,,adl
1.299883,-0.1934,-0.0319,0.2929,-0.0159,-0.1473,-0.0144,-39.7313,0.6562,18.2438,,adl
1.310159,-0.1934,-0.0319,0.2929,-0.0539,-0.0557,0.1211,-39.7313,0.6562,18.2438,,adl
1.311491,0.0354,0.0533,0.4626,-0.0539,-0.0557,0.1211,-39.7313,0.6562,18.2438,,adl
1.318314,0.0354,0.0533,0.4626,-0.0539,-0.0557,0.1211,-39.525,0.4125,18.8625,,adl
1.330357,0.2436,0.0421,0.4181,-0.0539,-0.0557,0.1211,-39.525,0.4125,18.8625,,adl
1.34897,0.2436,0.0421,0.4181,-0.0539,-0.0557,0.1211,-39.525,0.4125,18.8625,,adl
1.351722,0.3197,-0.0039,0.4965,-0.0539,-0.0557,0.1211,-39.525,0.4125,18.8625,,adl
1.36834,0.2016,0.0261,0.4576,-0.0539,-0.0557,0.1211,-39.525,0.4125,18.8625,,adl
1.373593,0.2016,0.0261,0.4576,0.0609,0.0225,0.0747,-39.525,0.4125,18.8625,,adl
1.378418,0.2016,0.0261,0.4576,0.0609,0.0225,0.0747,-39.45,0.8063,18.6562,,adl
1.387792,0.073,0.1048,0.2339,0.0609,0.0225,0.0747,-39.45,0.8063,18.6562,,adl
1.397013,0.073,0.1048,0.2339,0.0609,0.0225,0.0747,-39.45,0.8063,18.6562,,adl
1.406922,0.1211,0.1334,-0.0004,0.0609,0.0225,0.0747,-39.45,0.8063,18.6562,,adl
1.425544,0.3623,0.1349,-0.0485,0.0609,0.0225,0.0747,-39.45,0.8063,18.6562,,adl
1.43443,0.3623,0.1349,-0.0485,0.0659,0.1251,0.0844,-39.45,0.8063,18.6562,,adl
1.437713,0.3623,0.1349,-0.0485,0.0659,0.1251,0.0844,-39.45,0.9563,18.0375,,adl
1.444291,0.3623,0.1349,-0.0485,0.0659,0.1251,0.0844,-39.45,0.9563,18.0375,,adl
1.44675,1.3837,-0.1464,0.092,0.0659,0.1251,0.0844,-39.45,0.9563,18.0375,,adl
1.463963,-0.395,0.2559,0.6001,0.0659,0.1251,0.0844,-39.45,0.9563,18.0375,,adl
1.485246,0.3152,0.2032,-0.1631,0.0659,0.1251,0.0844,-39.45,0.9563,18.0375,,adl
1.491673,0.3152,0.2032,-0.1631,0.0659,0.1251,0.0844,-39.45,0.9563,18.0375,,adl
1.497163,0.3152,0.2032,-0.1631,0.2064,0.2815,-0.0071,-39.45,0.9563,18.0375,,adl
1.498272,0.3152,0.2032,-0.1631,0.2064,0.2815,-0.0071,-40.125,0.9,17.6438,,adl
1.501756,0.0398,-0.0174,-0.4198,0.2064,0.2815,-0.0071,-40.125,0.9,17.6438,,adl
1.520874,-0.2906,0.1382,-0.3616,0.2064,0.2815,-0.0071,-40.125,0.9,17.6438,,adl
1.540435,-0.2906,0.1382,-0.3616,0.2064,0.2815,-0.0071,-40.125,0.9,17.6438,,adl
1.541527,-0.3137,0.0481,-0.5495,0.2064,0.2815,-0.0071,-40.125,0.9,17.6438,,adl
1.557907,-0.3137,0.0481,-0.5495,0.2064,0.2815,-0.0071,-38.8688,1.65,15.75,,adl
1.559296,-0.3137,0.0481,-0.5495,0.0756,0.2229,0.1469,-38.8688,1.65,15.75,,adl
1.560212,-0.1409,-0.1141,-0.489,0.0756,0.2229,0.1469,-38.8688,1.65,15.75,,adl
1.579122,-0.1824,-0.1366,-0.522,0.0756,0.2229,0.1469,-38.8688,1.65,15.75,,adl
1.588601,-0.1824,-0.1366,-0.522,0.0756,0.2229,0.1469,-38.8688,1.65,15.75,,adl
1.598565,-0.1204,-0.21,-0.707,0.0756,0.2229,0.1469,-38.8688,1.65,15.75,,adl
1.617531,-0.0189,-0.2484,-0.7782,0.0756,0.2229,0.1469,-38.8688,1.65,15.75,,adl
1.61893,-0.0189,-0.2484,-0.7782,0.0756,0.2229,0.1469,-40.3688,2.1188,17.0438,,adl
1.620148,-0.0189,-0.2484,-0.7782,-0.0441,-0.0679,0.247,-40.3688,2.1188,17.0438,,adl
1.635634,-0.0189,-0.2484,-0.7782,-0.0441,-0.0679,0.247,-40.3688,2.1188,17.0438,,adl
1.638238,0.0566,-0.1337,-0.4814,-0.0441,-0.0679,0.247,-40.3688,2.1188,17.0438,,adl
1.655123,0.01,-0.3031,-0.084,-0.0441,-0.0679,0.247,-40.3688,2.1188,17.0438,,adl
1.675501,-0.063,-0.6035,-0.0365,-0.0441,-0.0679,0.247,-40.3688,2.1188,17.0438,,adl
1.679994,-0.063,-0.6035,-0.0365,-0.0441,-0.0679,0.247,-39.975,2.1938,17.2313,,adl
1.683995,-0.063,-0.6035,-0.0365,-0.0441,-0.0679,0.247,-39.975,2.1938,17.2313,,adl
1.686255,-0.063,-0.6035,-0.0365,-0.0979,0.014,0.3129,-39.975,2.1938,17.2313,,adl
1.692864,-0.1108,-0.589,-0.0657,-0.0979,0.014,0.3129,-39.975,2.1938,17.2313,,adl
1.712343,-0.0052,-0.4398,0.4087,-0.0979,0.014,0.3129,-39.975,2.1938,17.2313,,adl
1.730839,-0.0052,-0.4398,0.4087,-0.0979,0.014,0.3129,-39.975,2.1938,17.2313,,adl
1.731877,-0.3254,-0.4511,0.3831,-0.0979,0.014,0.3129,-39.975,2.1938,17.2313,,adl
1.738338,-0.3254,-0.4511,0.3831,-0.0979,0.014,0.3129,-39.825,3.0938,17.025,,adl
1.744981,-0.3254,-0.4511,0.3831,-0.0234,0.1814,0.4473,-39.825,3.0938,17.025,,adl
1.75193,-0.5639,-0.3625,0.4445,-0.0234,0.1814,0.4473,-39.825,3.0938,17.025,,adl
1.770227,-0.5895,-0.1646,0.0485,-0.0234,0.1814,0.4473,-39.825,3.0938,17.025,,adl
1.779389,-0.5895,-0.1646,0.0485,-0.0234,0.1814,0.4473,-39.825,3.0938,17.025,,adl
1.789795,-0.3572,0.0001,-0.1536,-0.0234,0.1814,0.4473,-39.825,3.0938,17.025,,adl
1.799157,-0.3572,0.0001,-0.1536,-0.0234,0.1814,0.4473,-40.2563,4.4438,16.3125,,adl
1.807507,-0.3572,0.0001,-0.1536,-0.1284,-0.1657,0.7234,-40.2563,4.4438,16.3125,,adl
1.808796,-0.2021,0.0919,0.1794,-0.1284,-0.1657,0.7234,-40.2563,4.4438,16.3125,,adl
1.826219,-0.2021,0.0919,0.1794,-0.1284,-0.1657,0.7234,-40.2563,4.4438,16.3125,,adl
1.827122,0.6868,0.9685,0.2457,-0.1284,-0.1657,0.7234,-40.2563,4.4438,16.3125,,adl
1.847033,0.7028,-0.1995,-0.6354,-0.1284,-0.1657,0.7234,-40.2563,4.4438,16.3125,,adl
1.85785,0.7028,-0.1995,-0.6354,-0.1284,-0.1657,0.7234,-39.8438,5.7563,17.3625,,adl
1.865708,-0.0264,0.4663,-0.7941,-0.1284,-0.1657,0.7234,-39.8438,5.7563,17.3625,,adl
1.869455,-0.0264,0.4663,-0.7941,-0.1699,-0.7557,0.302,-39.8438,5.7563,17.3625,,adl
1.873906,-0.0264,0.4663,-0.7941,-0.1699,-0.7557,0.302,-39.8438,5.7563,17.3625,,adl
1.885741,-1.0863,-0.7719,-0.7082,-0.1699,-0.7557,0.302,-39.8438,5.7563,17.3625,,adl
1.904293,-1.4717,-0.327,0.0689,-0.1699,-0.7557,0.302,-39.8438,5.7563,17.3625,,adl
1.919116,-1.4717,-0.327,0.0689,-0.1699,-0.7557,0.302,-38.7188,6.4125,18.9938,,adl
1.922264,-1.4717,-0.327,0.0689,-0.1699,-0.7557,0.302,-38.7188,6.4125,18.9938,,adl
1.923198,-1.5929,-0.3049,0.7215,-0.1699,-0.7557,0.302,-38.7188,6.4125,18.9938,,adl
1.931255,-1.5929,-0.3049,0.7215,-0.203,-0.1412,1.0704,-38.7188,6.4125,18.9938,,adl
1.942961,-1.9066,-0.3656,0.429,-0.203,-0.1412,1.0704,-38.7188,6.4125,18.9938,,adl
1.961237,-1.4073,-0.7265,0.2582,-0.203,-0.1412,1.0704,-38.7188,6.4125,18.9938,,adl
1.970467,-1.4073,-0.7265,0.2582,-0.203,-0.1412,1.0704,-38.7188,6.4125,18.9938,,adl
1.978513,-1.4073,-0.7265,0.2582,-0.203,-0.1412,1.0704,-37.6688,9.3188,19.6125,,adl
1.979823,-1.4727,0.0633,1.0483,-0.203,-0.1412,1.0704,-37.6688,9.3188,19.6125,,adl
1.99385,-1.4727,0.0633,1.0483,0.1892,-0.8938,1.6129,-37.6688,9.3188,19.6125,,adl
1.999266,-0.6694,-0.1918,1.1679,0.1892,-0.8938,1.6129,-37.6688,9.3188,19.6125,,adl
2.018484,-0.6694,-0.1918,1.1679,0.1892,-0.8938,1.6129,-37.6688,9.3188,19.6125,,adl
2.021068,-0.5135,-0.2302,0.7677,0.1892,-0.8938,1.6129,-37.6688,9.3188,19.6125,,adl
2.038231,-0.7288,-0.1086,0.383,0.1892,-0.8938,1.6129,-37.6688,9.3188,19.6125,,adl
2.041313,-0.7288,-0.1086,0.383,0.1892,-0.8938,1.6129,-33.9563,13.0125,20.5688,,adl
2.05605,-0.7288,-0.1086,0.383,0.7146,-1.9041,1.6006,-33.9563,13.0125,20.5688,,adl
2.057182,-0.999,-0.2971,0.147,0.7146,-1.9041,1.6006,-33.9563,13.0125,20.5688,,adl
2.065443,-0.999,-0.2971,0.147,0.7146,-1.9041,1.6006,-33.9563,13.0125,20.5688,,adl
2.076081,-1.0503,-0.4984,-0.1639,0.7146,-1.9041,1.6006,-33.9563,13.0125,20.5688,,adl
2.096008,-1.2672,-0.6873,-0.2691,0.7146,-1.9041,1.6006,-33.9563,13.0125,20.5688,,adl
2.099158,-1.2672,-0.6873,-0.2691,0.7146,-1.9041,1.6006,-31.725,17.0625,24.675,,adl
2.112976,-1.2672,-0.6873,-0.2691,0.7146,-1.9041,1.6006,-31.725,17.0625,24.675,,adl
2.114509,-0.5427,-0.8169,-0.0974,0.7146,-1.9041,1.6006,-31.725,17.0625,24.675,,adl
2.117851,-0.5427,-0.8169,-0.0974,0.8697,-2.559,1.796,-31.725,17.0625,24.675,,adl
2.133558,0.166,-0.9176,0.0197,0.8697,-2.559,1.796,-31.725,17.0625,24.675,,adl
2.152733,0.5817,-0.9108,-0.0919,0.8697,-2.559,1.796,-31.725,17.0625,24.675,,adl
2.15885,0.5817,-0.9108,-0.0919,0.8697,-2.559,1.796,-24.3375,21.3,28.0313,,adl
2.162267,0.5817,-0.9108,-0.0919,0.8697,-2.559,1.796,-24.3375,21.3,28.0313,,adl
2.171431,0.6336,-0.8881,-0.1562,0.8697,-2.559,1.796,-24.3375,21.3,28.0313,,adl
2.179886,0.6336,-0.8881,-0.1562,0.8331,-2.2987,1.3148,-24.3375,21.3,28.0313,,adl
2.191988,0.2682,-0.8097,0.0633,0.8331,-2.2987,1.3148,-24.3375,21.3,28.0313,,adl
2.208705,0.2682,-0.8097,0.0633,0.8331,-2.2987,1.3148,-24.3375,21.3,28.0313,,adl
2.209754,-0.5577,-0.6865,-0.1615,0.8331,-2.2987,1.3148,-24.3375,21.3,28.0313,,adl
2.21845,-0.5577,-0.6865,-0.1615,0.8331,-2.2987,1.3148,-19.8188,24.3188,30.0938,,adl
2.232008,-1.0393,-0.2642,-0.7296,0.8331,-2.2987,1.3148,-19.8188,24.3188,30.0938,,adl
2.242709,-1.0393,-0.2642,-0.7296,0.4042,-2.0349,1.3453,-19.8188,24.3188,30.0938,,adl
2.247704,-0.6189,-0.5756,-0.7863,0.4042,-2.0349,1.3453,-19.8188,24.3188,30.0938,,adl
2.256966,-0.6189,-0.5756,-0.7863,0.4042,-2.0349,1.3453,-19.8188,24.3188,30.0938,,adl
2.267,-0.5543,-0.9864,0.5973,0.4042,-2.0349,1.3453,-19.8188,24.3188,30.0938,,adl
2.27879,-0.5543,-0.9864,0.5973,0.4042,-2.0349,1.3453,-14.1563,25.8563,31.0875,,adl
2.286411,-1.343,-1.1915,2.3092,0.4042,-2.0349,1.3453,-14.1563,25.8563,31.0875,,adl
2.304703,-1.343,-1.1915,2.3092,0.4042,-2.0349,1.3453,-14.1563,25.8563,31.0875,,adl
2.305696,-1.343,-1.1915,2.3092,0.976,-2.3574,1.4613,-14.1563,25.8563,31.0875,,adl
2.30696,-0.4236,-1.7321,1.7463,0.976,-2.3574,1.4613,-14.1563,25.8563,31.0875,,adl
2.324732,-0.1391,-1.6135,0.5235,0.976,-2.3574,1.4613,-14.1563,25.8563,31.0875,,adl
2.341233,-0.1391,-1.6135,0.5235,0.976,-2.3574,1.4613,-7.2563,28.8375,30.6938,,adl
2.343725,-0.2434,-1.1201,-0.7694,0.976,-2.3574,1.4613,-7.2563,28.8375,30.6938,,adl
2.352211,-0.2434,-1.1201,-0.7694,0.976,-2.3574,1.4613,-7.2563,28.8375,30.6938,,adl
2.36548,0.2113,-0.9149,-1.4157,0.976,-2.3574,1.4613,-7.2563,28.8375,30.6938,,adl
2.366925,0.2113,-0.9149,-1.4157,0.8722,-0.8009,1.5176,-7.2563,28.8375,30.6938,,adl
2.382119,0.6018,-0.8474,-1.2066,0.8722,-0.8009,1.5176,-7.2563,28.8375,30.6938,,adl
2.398837,0.6018,-0.8474,-1.2066,0.8722,-0.8009,1.5176,-2.6625,30.9375,29.7563,,adl
2.402385,0.6018,-0.8474,-1.2066,0.8722,-0.8009,1.5176,-2.6625,30.9375,29.7563,,adl
2.404292,0.5512,-0.815,-0.7371,0.8722,-0.8009,1.5176,-2.6625,30.9375,29.7563,,adl
2.419545,0.2702,-1.1303,-0.3798,0.8722,-0.8009,1.5176,-2.6625,30.9375,29.7563,,adl
2.429327,0.2702,-1.1303,-0.3798,0.6351,-1.7453,1.2072,-2.6625,30.9375,29.7563,,adl
2.439232,-0.3484,-1.5493,-0.1956,0.6351,-1.7453,1.2072,-2.6625,30.9375,29.7563,,adl
2.447634,-0.3484,-1.5493,-0.1956,0.6351,-1.7453,1.2072,-2.6625,30.9375,29.7563,,adl
2.459341,-0.5606,-1.9141,0.1502,0.6351,-1.7453,1.2072,-2.6625,30.9375,29.7563,,adl
2.462773,-0.5606,-1.9141,0.1502,0.6351,-1.7453,1.2072,1.6875,32.0625,28.275,,adl
2.478088,-0.6449,-1.7439,0.2594,0.6351,-1.7453,1.2072,1.6875,32.0625,28.275,,adl
2.491533,-0.6449,-1.7439,0.2594,1.3353,-2.9964,1.5762,1.6875,32.0625,28.275,,adl
2.498167,-0.6449,-1.7439,0.2594,1.3353,-2.9964,1.5762,1.6875,32.0625,28.275,,adl
2.499033,-0.6394,-1.4165,-0.1973,1.3353,-2.9964,1.5762,1.6875,32.0625,28.275,,adl
2.515982,-0.4458,-1.0837,-0.8651,1.3353,-2.9964,1.5762,1.6875,32.0625,28.275,,adl
2.519707,-0.4458,-1.0837,-0.8651,1.3353,-2.9964,1.5762,10.8563,33.3938,22.6125,,adl
2.536479,-0.1752,-0.7491,-1.2043,1.3353,-2.9964,1.5762,10.8563,33.3938,22.6125,,adl
2.543237,-0.1752,-0.7491,-1.2043,1.3353,-2.9964,1.5762,10.8563,33.3938,22.6125,,adl
2.552905,-0.1752,-0.7491,-1.2043,1.4635,-2.9035,1.5371,10.8563,33.3938,22.6125,,adl
2.554284,0.1679,-0.6633,-1.5457,1.4635,-2.9035,1.5371,10.8563,33.3938,22.6125,,adl
2.574613,0.4213,-0.5799,-2.3206,1.4635,-2.9035,1.5371,10.8563,33.3938,22.6125,,adl
2.578925,0.4213,-0.5799,-2.3206,1.4635,-2.9035,1.5371,15.6375,34.275,18.7313,,adl
2.591265,0.4213,-0.5799,-2.3206,1.4635,-2.9035,1.5371,15.6375,34.275,18.7313,,adl
2.592312,0.812,-0.5716,-2.7982,1.4635,-2.9035,1.5371,15.6375,34.275,18.7313,,adl
2.612681,1.1809,-0.3204,-2.496,1.4635,-2.9035,1.5371,15.6375,34.275,18.7313,,adl
2.616245,1.1809,-0.3204,-2.496,0.5618,-1.1576,1.3098,15.6375,34.275,18.7313,,adl
2.630205,1.7151,-0.1982,-1.9054,0.5618,-1.1576,1.3098,15.6375,34.275,18.7313,,adl
2.639196,1.7151,-0.1982,-1.9054,0.5618,-1.1576,1.3098,19.3875,33.75,15.3,,adl
2.640427,1.7151,-0.1982,-1.9054,0.5618,-1.1576,1.3098,19.3875,33.75,15.3,,adl
2.649789,2.0465,-0.1472,-1.3025,0.5618,-1.1576,1.3098,19.3875,33.75,15.3,,adl
2.669514,2.0017,-0.0049,-0.9084,0.5618,-1.1576,1.3098,19.3875,33.75,15.3,,adl
2.677517,2.0017,-0.0049,-0.9084,0.0597,-0.0727,0.6794,19.3875,33.75,15.3,,adl
2.686521,2.0017,-0.0049,-0.9084,0.0597,-0.0727,0.6794,19.3875,33.75,15.3,,adl
2.687492,1.9576,-0.081,-0.7031,0.0597,-0.0727,0.6794,19.3875,33.75,15.3,,adl
2.69769,1.9576,-0.081,-0.7031,0.0597,-0.0727,0.6794,21.3938,32.3625,15.9563,,adl
2.708539,1.8122,-0.1642,-0.5614,0.0597,-0.0727,0.6794,21.3938,32.3625,15.9563,,adl
2.727114,1.5912,-0.1858,-0.5383,0.0597,-0.0727,0.6794,21.3938,32.3625,15.9563,,adl
2.735843,1.5912,-0.1858,-0.5383,0.0597,-0.0727,0.6794,21.3938,32.3625,15.9563,,adl
2.742348,1.5912,-0.1858,-0.5383,0.1232,-0.0496,0.2518,21.3938,32.3625,15.9563,,adl
2.744744,1.3639,-0.2106,-0.5024,0.1232,-0.0496,0.2518,21.3938,32.3625,15.9563,,adl
2.758643,1.3639,-0.2106,-0.5024,0.1232,-0.0496,0.2518,22.4625,32.1188,16.35,,adl
2.76491,1.1656,-0.2308,-0.3805,0.1232,-0.0496,0.2518,22.4625,32.1188,16.35,,adl
2.783349,1.1656,-0.2308,-0.3805,0.1232,-0.0496,0.2518,22.4625,32.1188,16.35,,adl
2.784351,0.9225,-0.2116,-0.113,0.1232,-0.0496,0.2518,22.4625,32.1188,16.35,,adl
2.802118,0.9225,-0.2116,-0.113,0.3322,-0.5504,0.1444,22.4625,32.1188,16.35,,adl
2.803424,0.6636,-0.1961,0.1657,0.3322,-0.5504,0.1444,22.4625,32.1188,16.35,,adl
2.819048,0.6636,-0.1961,0.1657,0.3322,-0.5504,0.1444,22.9688,32.2688,15.075,,adl
2.82242,0.4492,-0.2064,0.1647,0.3322,-0.5504,0.1444,22.9688,32.2688,15.075,,adl
2.830345,0.4492,-0.2064,0.1647,0.3322,-0.5504,0.1444,22.9688,32.2688,15.075,,adl
2.842891,0.2904,-0.1161,-0.0565,0.3322,-0.5504,0.1444,22.9688,32.2688,15.075,,adl
2.86038,0.2976,-0.0341,-0.4114,0.3322,-0.5504,0.1444,22.9688,32.2688,15.075,,adl
2.863548,0.2976,-0.0341,-0.4114,0.6999,-0.8657,0.231,22.9688,32.2688,15.075,,adl
2.878449,0.2976,-0.0341,-0.4114,0.6999,-0.8657,0.231,22.9688,32.2688,15.075,,adl
2.879335,0.2834,0.0553,-0.6795,0.6999,-0.8657,0.231,22.9688,32.2688,15.075,,adl
2.88002,0.2834,0.0553,-0.6795,0.6999,-0.8657,0.231,24.4313,32.7375,13.0688,,adl
2.898674,0.39,0.092,-0.7772,0.6999,-0.8657,0.231,24.4313,32.7375,13.0688,,adl
2.919014,0.4837,0.103,-0.7417,0.6999,-0.8657,0.231,24.4313,32.7375,13.0688,,adl
2.926337,0.4837,0.103,-0.7417,0.6999,-0.8657,0.231,24.4313,32.7375,13.0688,,adl
2.927306,0.4837,0.103,-0.7417,0.5472,-0.8192,0.0734,24.4313,32.7375,13.0688,,adl
2.936879,0.3768,0.1623,-0.7565,0.5472,-0.8192,0.0734,24.4313,32.7375,13.0688,,adl
2.938445,0.3768,0.1623,-0.7565,0.5472,-0.8192,0.0734,25.5938,33.3188,10.9688,,adl
2.956149,0.0664,0.2105,-0.7273,0.5472,-0.8192,0.0734,25.5938,33.3188,10.9688,,adl
2.974986,0.0664,0.2105,-0.7273,0.5472,-0.8192,0.0734,25.5938,33.3188,10.9688,,adl
2.977585,-0.1855,0.1554,-0.4933,0.5472,-0.8192,0.0734,25.5938,33.3188,10.9688,,adl
2.988598,-0.1855,0.1554,-0.4933,0.2687,-0.6018,-0.1269,25.5938,33.3188,10.9688,,adl
2.993909,-0.4822,0.0457,-0.2285,0.2687,-0.6018,-0.1269,25.5938,33.3188,10.9688,,adl
2.999969,-0.4822,0.0457,-0.2285,0.2687,-0.6018,-0.1269,25.9125,33.4313,8.775,,adl
3.013862,-0.7328,0.0387,0.0763,0.2687,-0.6018,-0.1269,25.9125,33.4313,8.775,,adl
3.021348,-0.7328,0.0387,0.0763,0.2687,-0.6018,-0.1269,25.9125,33.4313,8.775,,adl
3.031799,-0.8953,-0.023,0.3318,0.2687,-0.6018,-0.1269,25.9125,33.4313,8.775,,adl
3.050698,-0.8953,-0.023,0.3318,0.2137,-0.355,-0.0402,25.9125,33.4313,8.775,,adl
3.053749,-1.066,0.021,0.4681,0.2137,-0.355,-0.0402,25.9125,33.4313,8.775,,adl
3.060214,-1.066,0.021,0.4681,0.2137,-0.355,-0.0402,25.9875,34.2,7.5188,,adl
3.069926,-1.066,0.021,0.4681,0.2137,-0.355,-0.0402,25.9875,34.2,7.5188,,adl
3.070882,-1.0865,-0.1104,0.5747,0.2137,-0.355,-0.0402,25.9875,34.2,7.5188,,adl
3.089246,-1.2373,-0.0394,0.686,0.2137,-0.355,-0.0402,25.9875,34.2,7.5188,,adl
3.109027,-1.2031,0.069,0.7267,0.2137,-0.355,-0.0402,25.9875,34.2,7.5188,,adl
3.112898,-1.2031,0.069,0.7267,0.4482,-0.4405,0.2872,25.9875,34.2,7.5188,,adl
3.119229,-1.2031,0.069,0.7267,0.4482,-0.4405,0.2872,25.9875,34.2,7.5188,,adl
3.120038,-1.2031,0.069,0.7267,0.4482,-0.4405,0.2872,26.8125,33.5438,6.2438,,adl
3.128042,-1.034,0.2231,0.5577,0.4482,-0.4405,0.2872,26.8125,33.5438,6.2438,,adl
3.147401,-0.7602,0.2185,0.2134,0.4482,-0.4405,0.2872,26.8125,33.5438,6.2438,,adl
3.164946,-0.7602,0.2185,0.2134,0.4482,-0.4405,0.2872,26.8125,33.5438,6.2438,,adl
3.165962,-0.6529,0.2005,-0.2156,0.4482,-0.4405,0.2872,26.8125,33.5438,6.2438,,adl
3.17484,-0.6529,0.2005,-0.2156,0.7219,-0.7752,0.5096,26.8125,33.5438,6.2438,,adl
3.177682,-0.6529,0.2005,-0.2156,0.7219,-0.7752,0.5096,27.5063,33.8438,4.05,,adl
3.188263,-0.5162,0.1813,-0.441,0.7219,-0.7752,0.5096,27.5063,33.8438,4.05,,adl
3.204099,-0.4217,0.1401,-0.4794,0.7219,-0.7752,0.5096,27.5063,33.8438,4.05,,adl
3.212935,-0.4217,0.1401,-0.4794,0.7219,-0.7752,0.5096,27.5063,33.8438,4.05,,adl
3.223705,-0.3128,0.1947,-0.5357,0.7219,-0.7752,0.5096,27.5063,33.8438,4.05,,adl
3.236983,-0.3128,0.1947,-0.5357,0.7219,-0.7532,0.6709,27.5063,33.8438,4.05,,adl
3.238461,-0.3128,0.1947,-0.5357,0.7219,-0.7532,0.6709,28.2375,33.1875,1.425,,adl
3.242135,-0.2318,0.2789,-0.5099,0.7219,-0.7532,0.6709,28.2375,33.1875,1.425,,adl
3.261337,-0.2318,0.2789,-0.5099,0.7219,-0.7532,0.6709,28.2375,33.1875,1.425,,adl
3.26384,-0.1606,0.3803,-0.5021,0.7219,-0.7532,0.6709,28.2375,33.1875,1.425,,adl
3.280035,0.0055,0.4796,-0.4532,0.7219,-0.7532,0.6709,28.2375,33.1875,1.425,,adl
3.29815,0.0055,0.4796,-0.4532,0.7219,-0.7532,0.6709,30.2813,31.6125,-1.4438,,adl
3.299874,0.0055,0.4796,-0.4532,0.7316,-0.763,0.6709,30.2813,31.6125,-1.4438,,adl
3.301328,0.6856,-0.1133,-0.5436,0.7316,-0.763,0.6709,30.2813,31.6125,-1.4438,,adl
3.308214,0.6856,-0.1133,-0.5436,0.7316,-0.763,0.6709,30.2813,31.6125,-1.4438,,adl
3.319892,0.6773,-0.7222,-0.4002,0.7316,-0.763,0.6709,30.2813,31.6125,-1.4438,,adl
3.338215,0.7567,-1.3193,0.0456,0.7316,-0.763,0.6709,30.2813,31.6125,-1.4438,,adl
3.356945,0.7567,-1.3193,0.0456,0.7316,-0.763,0.6709,30.2813,31.6125,-1.4438,,adl
3.360157,0.9551,-1.4916,0.5771,0.7316,-0.763,0.6709,30.2813,31.6125,-1.4438,,adl
3.363094,0.9551,-1.4916,0.5771,0.7316,-0.763,0.6709,31.125,30.7313,-4.0688,,adl
3.36542,0.9551,-1.4916,0.5771,0.7171,-1.0293,0.7441,31.125,30.7313,-4.0688,,adl
3.376117,1.0697,-1.3798,0.8051,0.7171,-1.0293,0.7441,31.125,30.7313,-4.0688,,adl
3.396137,1.3714,-1.2197,0.8467,0.7171,-1.0293,0.7441,31.125,30.7313,-4.0688,,adl
3.404483,1.3714,-1.2197,0.8467,0.7171,-1.0293,0.7441,31.125,30.7313,-4.0688,,adl
3.415901,1.5747,-0.9232,0.7671,0.7171,-1.0293,0.7441,31.125,30.7313,-4.0688,,adl
3.419672,1.5747,-0.9232,0.7671,0.7171,-1.0293,0.7441,32.9625,29.55,-6.9375,,adl
3.422807,1.5747,-0.9232,0.7671,1.0775,-1.3788,0.7844,32.9625,29.55,-6.9375,,adl
3.433171,1.5644,-0.4743,0.4324,1.0775,-1.3788,0.7844,32.9625,29.55,-6.9375,,adl
3.452412,1.5644,-0.4743,0.4324,1.0775,-1.3788,0.7844,32.9625,29.55,-6.9375,,adl
3.455473,1.5062,-0.1651,-0.1187,1.0775,-1.3788,0.7844,32.9625,29.55,-6.9375,,adl
3.472796,1.2553,-0.0432,-0.7392,1.0775,-1.3788,0.7844,32.9625,29.55,-6.9375,,adl
3.478668,1.2553,-0.0432,-0.7392,1.0775,-1.3788,0.7844,31.7625,27.0563,-12.75,,adl
3.48731,1.2553,-0.0432,-0.7392,1.02,-1.242,0.4791,31.7625,27.0563,-12.75,,adl
3.49109,1.1308,-0.0667,-1.0805,1.02,-1.242,0.4791,31.7625,27.0563,-12.75,,adl
3.49972,1.1308,-0.0667,-1.0805,1.02,-1.242,0.4791,31.7625,27.0563,-12.75,,adl
3.51023,1.0682,-0.1436,-1.0346,1.02,-1.242,0.4791,31.7625,27.0563,-12.75,,adl
3.529296,0.9322,-0.1892,-0.8261,1.02,-1.242,0.4791,31.7625,27.0563,-12.75,,adl
3.53877,0.9322,-0.1892,-0.8261,1.02,-1.242,0.4791,31.65,25.8563,-15.8625,,adl
3.547709,0.9322,-0.1892,-0.8261,1.02,-1.242,0.4791,31.65,25.8563,-15.8625,,adl
3.548581,0.9322,-0.1892,-0.8261,0.337,-0.8095,-0.0146,31.65,25.8563,-15.8625,,adl
3.549271,0.8661,-0.2782,-0.4933,0.337,-0.8095,-0.0146,31.65,25.8563,-15.8625,,adl
3.567894,0.8417,-0.6117,-0.1113,0.337,-0.8095,-0.0146,31.65,25.8563,-15.8625,,adl
3.58635,0.4029,-0.7658,0.403,0.337,-0.8095,-0.0146,31.65,25.8563,-15.8625,,adl
3.595583,0.4029,-0.7658,0.403,0.337,-0.8095,-0.0146,31.65,25.8563,-15.8625,,adl
3.598549,0.4029,-0.7658,0.403,0.337,-0.8095,-0.0146,30.675,26.7,-17.9062,,adl
3.608662,-0.1903,-0.8636,0.9255,0.337,-0.8095,-0.0146,30.675,26.7,-17.9062,,adl
3.612629,-0.1903,-0.8636,0.9255,-0.115,-0.8497,-0.5973,30.675,26.7,-17.9062,,adl
3.62429,-0.6532,-0.8841,1.419,-0.115,-0.8497,-0.5973,30.675,26.7,-17.9062,,adl
3.643932,-0.6532,-0.8841,1.419,-0.115,-0.8497,-0.5973,30.675,26.7,-17.9062,,adl
3.647453,-1.1954,-0.6937,1.8258,-0.115,-0.8497,-0.5973,30.675,26.7,-17.9062,,adl
3.659393,-1.1954,-0.6937,1.8258,-0.115,-0.8497,-0.5973,28.8938,27.975,-20.2313,,adl
3.663741,-1.442,-0.6192,2.1019,-0.115,-0.8497,-0.5973,28.8938,27.975,-20.2313,,adl
3.671872,-1.442,-0.6192,2.1019,-0.0331,-0.6751,-0.634,28.8938,27.975,-20.2313,,adl
3.682216,-1.411,-0.6614,2.1736,-0.0331,-0.6751,-0.634,28.8938,27.975,-20.2313,,adl
3.691452,-1.411,-0.6614,2.1736,-0.0331,-0.6751,-0.634,28.8938,27.975,-20.2313,,adl
3.702509,-1.3698,-0.8302,2.0627,-0.0331,-0.6751,-0.634,28.8938,27.975,-20.2313,,adl
3.718403,-1.3698,-0.8302,2.0627,-0.0331,-0.6751,-0.634,27.1688,29.8688,-21.3188,,adl
3.720163,-1.4564,-1.0124,1.852,-0.0331,-0.6751,-0.634,27.1688,29.8688,-21.3188,,adl
3.734541,-1.4564,-1.0124,1.852,0.1562,-0.6361,-0.7341,27.1688,29.8688,-21.3188,,adl
3.73943,-1.4564,-1.0124,1.852,0.1562,-0.6361,-0.7341,27.1688,29.8688,-21.3188,,adl
3.740264,-1.683,-1.1914,1.7016,0.1562,-0.6361,-0.7341,27.1688,29.8688,-21.3188,,adl
3.759073,-1.8442,-1.3488,1.5931,0.1562,-0.6361,-0.7341,27.1688,29.8688,-21.3188,,adl
3.778837,-2.0182,-1.4006,1.6465,0.1562,-0.6361,-0.7341,27.1688,29.8688,-21.3188,,adl
3.78267,-2.0182,-1.4006,1.6465,0.1562,-0.6361,-0.7341,25.0688,31.1438,-21.7688,,adl
3.786189,-2.0182,-1.4006,1.6465,0.1562,-0.6361,-0.7341,25.0688,31.1438,-21.7688,,adl
3.797371,-2.0182,-1.4006,1.6465,0.0634,-0.443,-0.6951,25.0688,31.1438,-21.7688,,adl
3.799035,-2.1172,-1.4595,1.6869,0.0634,-0.443,-0.6951,25.0688,31.1438,-21.7688,,adl
3.816513,-2.3964,-1.3906,1.7157,0.0634,-0.443,-0.6951,25.0688,31.1438,-21.7688,,adl
3.834622,-2.3964,-1.3906,1.7157,0.0634,-0.443,-0.6951,25.0688,31.1438,-21.7688,,adl
3.837423,-2.6887,-1.4206,1.7666,0.0634,-0.443,-0.6951,25.0688,31.1438,-21.7688,,adl
3.839427,-2.6887,-1.4206,1.7666,0.0634,-0.443,-0.6951,23.0063,31.9688,-22.8375,,adl
3.854444,-2.9846,-1.3358,1.8502,0.0634,-0.443,-0.6951,23.0063,31.9688,-22.8375,,adl
3.858229,-2.9846,-1.3358,1.8502,0.0842,-0.1877,-0.359,23.0063,31.9688,-22.8375,,adl
3.874285,-2.9601,-1.2033,2.0828,0.0842,-0.1877,-0.359,23.0063,31.9688,-22.8375,,adl
3.882789,-2.9601,-1.2033,2.0828,0.0842,-0.1877,-0.359,23.0063,31.9688,-22.8375,,adl
3.891981,-2.6102,-1.0911,1.9255,0.0842,-0.1877,-0.359,23.0063,31.9688,-22.8375,,adl
3.897539,-2.6102,-1.0911,1.9255,0.0842,-0.1877,-0.359,23.775,32.625,-24.3188,,adl
3.911699,-2.3905,-0.8905,1.358,0.0842,-0.1877,-0.359,23.775,32.625,-24.3188,,adl
3.921389,-2.3905,-0.8905,1.358,0.3981,-0.1144,0.093,23.775,32.625,-24.3188,,adl
3.93247,-2.3905,-0.8905,1.358,0.3981,-0.1144,0.093,23.775,32.625,-24.3188,,adl
3.935496,-2.2813,-0.7423,0.8642,0.3981,-0.1144,0.093,23.775,32.625,-24.3188,,adl
3.950911,-2.0539,-0.7255,0.5729,0.3981,-0.1144,0.093,23.775,32.625,-24.3188,,adl
3.958922,-2.0539,-0.7255,0.5729,0.3981,-0.1144,0.093,22.5188,31.9688,-24.2813,,adl
3.969179,-1.8179,-0.6825,0.4646,0.3981,-0.1144,0.093,22.5188,31.9688,-24.2813,,adl
3.978339,-1.8179,-0.6825,0.4646,0.3981,-0.1144,0.093,22.5188,31.9688,-24.2813,,adl
3.982485,-1.8179,-0.6825,0.4646,0.2747,-0.0374,0.3373,22.5188,31.9688,-24.2813,,adl
3.987942,-1.5528,-0.7206,0.3656,0.2747,-0.0374,0.3373,22.5188,31.9688,-24.2813,,adl
4.009714,-1.3455,-0.696,0.3618,0.2747,-0.0374,0.3373,22.5188,31.9688,-24.2813,,adl
4.021081,-1.3455,-0.696,0.3618,0.2747,-0.0374,0.3373,23.0438,31.3125,-25.1438,,adl
4.026157,-1.3455,-0.696,0.3618,0.2747,-0.0374,0.3373,23.0438,31.3125,-25.1438,,adl
4.027516,-1.186,-0.6315,0.3345,0.2747,-0.0374,0.3373,23.0438,31.3125,-25.1438,,adl
4.045474,-1.186,-0.6315,0.3345,0.1416,-0.0899,0.4558,23.0438,31.3125,-25.1438,,adl
4.049424,-0.9385,-0.6031,0.2342,0.1416,-0.0899,0.4558,23.0438,31.3125,-25.1438,,adl
4.066141,-0.7293,-0.5556,0.1912,0.1416,-0.0899,0.4558,23.0438,31.3125,-25.1438,,adl
4.07389,-0.7293,-0.5556,0.1912,0.1416,-0.0899,0.4558,23.0438,31.3125,-25.1438,,adl
4.078541,-0.7293,-0.5556,0.1912,0.1416,-0.0899,0.4558,23.9625,30.5813,-25.0688,,adl
4.083991,-0.0215,-0.9902,0.1046,0.1416,-0.0899,0.4558,23.9625,30.5813,-25.0688,,adl
4.103397,0.3878,-1.5184,0.4131,0.1416,-0.0899,0.4558,23.9625,30.5813,-25.0688,,adl
4.107478,0.3878,-1.5184,0.4131,-0.038,-0.3733,0.4606,23.9625,30.5813,-25.0688,,adl
4.12159,0.3878,-1.5184,0.4131,-0.038,-0.3733,0.4606,23.9625,30.5813,-25.0688,,adl
4.124513,0.653,-1.9052,1.0573,-0.038,-0.3733,0.4606,23.9625,30.5813,-25.0688,,adl
4.138806,0.653,-1.9052,1.0573,-0.038,-0.3733,0.4606,23.2875,30.4875,-26.4,,adl
4.142837,0.7597,-1.9856,1.2739,-0.038,-0.3733,0.4606,23.2875,30.4875,-26.4,,adl
4.160337,0.4915,-1.4836,0.9378,-0.038,-0.3733,0.4606,23.2875,30.4875,-26.4,,adl
4.169914,0.4915,-1.4836,0.9378,-0.038,-0.3733,0.4606,23.2875,30.4875,-26.4,,adl
4.17297,0.4915,-1.4836,0.9378,0.298,-0.4466,0.6159,23.2875,30.4875,-26.4,,adl
4.1788,0.5513,-0.6508,0.4952,0.298,-0.4466,0.6159,23.2875,30.4875,-26.4,,adl
4.199153,0.8988,-0.0048,-0.0703,0.298,-0.4466,0.6159,23.2875,30.4875,-26.4,,adl
4.200858,0.8988,-0.0048,-0.0703,0.298,-0.4466,0.6159,23.6625,29.0625,-27.7688,,adl
4.217061,0.8988,-0.0048,-0.0703,0.298,-0.4466,0.6159,23.6625,29.0625,-27.7688,,adl
4.218776,1.1855,0.1872,-0.8988,0.298,-0.4466,0.6159,23.6625,29.0625,-27.7688,,adl
4.232526,1.1855,0.1872,-0.8988,0.364,0.1935,0.3825,23.6625,29.0625,-27.7688,,adl
4.236782,1.175,0.165,-1.6796,0.364,0.1935,0.3825,23.6625,29.0625,-27.7688,,adl
4.256603,1.1188,0.0361,-1.9632,0.364,0.1935,0.3825,23.6625,29.0625,-27.7688,,adl
4.26053,1.1188,0.0361,-1.9632,0.364,0.1935,0.3825,23.925,27.675,-27.8813,,adl
4.267169,1.1188,0.0361,-1.9632,0.364,0.1935,0.3825,23.925,27.675,-27.8813,,adl
4.275197,0.8031,-0.1505,-0.8367,0.364,0.1935,0.3825,23.925,27.675,-27.8813,,adl
4.293027,0.8031,-0.1505,-0.8367,0.1306,0.8276,0.1052,23.925,27.675,-27.8813,,adl
4.294742,0.42,-0.308,0.471,0.1306,0.8276,0.1052,23.925,27.675,-27.8813,,adl
4.31357,0.42,-0.308,0.471,0.1306,0.8276,0.1052,23.925,27.675,-27.8813,,adl
4.31665,-0.0443,-0.4716,1.7333,0.1306,0.8276,0.1052,23.925,27.675,-27.8813,,adl
4.323147,-0.0443,-0.4716,1.7333,0.1306,0.8276,0.1052,25.4063,27.1313,-27.7313,,adl
4.332253,-0.3333,-0.859,2.382,0.1306,0.8276,0.1052,25.4063,27.1313,-27.7313,,adl
4.351944,-0.2345,-1.1783,1.1265,0.1306,0.8276,0.1052,25.4063,27.1313,-27.7313,,adl
4.356138,-0.2345,-1.1783,1.1265,1.6162,0.554,0.5609,25.4063,27.1313,-27.7313,,adl
4.360576,-0.2345,-1.1783,1.1265,1.6162,0.554,0.5609,25.4063,27.1313,-27.7313,,adl
4.3708,0.3075,-1.4272,-0.8153,1.6162,0.554,0.5609,25.4063,27.1313,-27.7313,,adl
4.379997,0.3075,-1.4272,-0.8153,1.6162,0.554,0.5609,27.5063,23.925,-30.2063,,adl
4.389772,0.9372,-1.4051,-2.9036,1.6162,0.554,0.5609,27.5063,23.925,-30.2063,,adl
4.409122,0.9372,-1.4051,-2.9036,1.6162,0.554,0.5609,27.5063,23.925,-30.2063,,adl
4.412529,1.6927,-1.126,-4.2788,1.6162,0.554,0.5609,27.5063,23.925,-30.2063,,adl
4.417659,1.6927,-1.126,-4.2788,1.1226,1.2588,0.8822,27.5063,23.925,-30.2063,,adl
4.427874,2.1635,-0.7784,-4.6969,1.1226,1.2588,0.8822,27.5063,23.925,-30.2063,,adl
4.4395,2.1635,-0.7784,-4.6969,1.1226,1.2588,0.8822,28.5375,19.6688,-27.15,,adl
4.447345,2.3228,-0.4553,-4.4518,1.1226,1.2588,0.8822,28.5375,19.6688,-27.15,,adl
4.456982,2.3228,-0.4553,-4.4518,1.1226,1.2588,0.8822,28.5375,19.6688,-27.15,,adl
4.466848,2.1902,-0.3803,-4.0632,1.1226,1.2588,0.8822,28.5375,19.6688,-27.15,,adl
4.479743,2.1902,-0.3803,-4.0632,0.0989,0.7873,0.1295,28.5375,19.6688,-27.15,,adl
4.485457,1.8551,-0.3105,-3.7976,0.0989,0.7873,0.1295,28.5375,19.6688,-27.15,,adl
4.498424,1.8551,-0.3105,-3.7976,0.0989,0.7873,0.1295,31.3688,18.8813,-25.3688,,adl
4.504032,1.8551,-0.3105,-3.7976,0.0989,0.7873,0.1295,31.3688,18.8813,-25.3688,,adl
4.504847,1.4378,-0.2377,-3.7495,0.0989,0.7873,0.1295,31.3688,18.8813,-25.3688,,adl
4.523817,1.2174,-0.2341,-3.5268,0.0989,0.7873,0.1295,31.3688,18.8813,-25.3688,,adl
4.54232,1.2174,-0.2341,-3.5268,-0.3373,-0.0337,-0.3994,31.3688,18.8813,-25.3688,,adl
4.543984,0.799,-0.4131,-3.1912,-0.3373,-0.0337,-0.3994,31.3688,18.8813,-25.3688,,adl
4.55391,0.799,-0.4131,-3.1912,-0.3373,-0.0337,-0.3994,31.3688,18.8813,-25.3688,,adl
4.558678,0.799,-0.4131,-3.1912,-0.3373,-0.0337,-0.3994,31.2188,19.8188,-24.525,,adl
4.5626,0.4767,-0.6027,-2.9929,-0.3373,-0.0337,-0.3994,31.2188,19.8188,-24.525,,adl
4.581817,0.0666,-0.5822,-2.778,-0.3373,-0.0337,-0.3994,31.2188,19.8188,-24.525,,adl
4.600259,0.0666,-0.5822,-2.778,-0.3373,-0.0337,-0.3994,31.2188,19.8188,-24.525,,adl
4.603374,-0.234,-0.3619,-2.4266,-0.3373,-0.0337,-0.3994,31.2188,19.8188,-24.525,,adl
4.605931,-0.234,-0.3619,-2.4266,-0.7014,-0.0422,-0.2113,31.2188,19.8188,-24.525,,adl
4.617862,-0.234,-0.3619,-2.4266,-0.7014,-0.0422,-0.2113,30.6563,22.0312,-24.6938,,adl
4.619692,-0.3187,-0.2226,-1.8299,-0.7014,-0.0422,-0.2113,30.6563,22.0312,-24.6938,,adl
4.638785,-0.3833,-0.128,-1.1557,-0.7014,-0.0422,-0.2113,30.6563,22.0312,-24.6938,,adl
4.647021,-0.3833,-0.128,-1.1557,-0.7014,-0.0422,-0.2113,30.6563,22.0312,-24.6938,,adl
4.658492,-0.3126,-0.1585,-0.5089,-0.7014,-0.0422,-0.2113,30.6563,22.0312,-24.6938,,adl
4.666248,-0.3126,-0.1585,-0.5089,-0.7894,-0.283,0.0392,30.6563,22.0312,-24.6938,,adl
4.67654,-0.3085,-0.2235,-0.0475,-0.7894,-0.283,0.0392,30.6563,22.0312,-24.6938,,adl
4.678404,-0.3085,-0.2235,-0.0475,-0.7894,-0.283,0.0392,30.4875,23.0625,-23.6438,,adl
4.695684,-0.3085,-0.2235,-0.0475,-0.7894,-0.283,0.0392,30.4875,23.0625,-23.6438,,adl
4.697088,-0.3271,-0.1382,0.1694,-0.7894,-0.283,0.0392,30.4875,23.0625,-23.6438,,adl
4.715552,-0.2806,0.0396,0.3221,-0.7894,-0.283,0.0392,30.4875,23.0625,-23.6438,,adl
4.729149,-0.2806,0.0396,0.3221,-0.5158,-0.4333,0.352,30.4875,23.0625,-23.6438,,adl
4.734221,-0.0611,0.185,0.4756,-0.5158,-0.4333,0.352,30.4875,23.0625,-23.6438,,adl
4.739166,-0.0611,0.185,0.4756,-0.5158,-0.4333,0.352,30.375,23.8875,-23.9438,,adl
4.742035,-0.0611,0.185,0.4756,-0.5158,-0.4333,0.352,30.375,23.8875,-23.9438,,adl
4.753199,0.1634,0.4016,0.5849,-0.5158,-0.4333,0.352,30.375,23.8875,-23.9438,,adl
4.77213,0.3988,0.573,0.4451,-0.5158,-0.4333,0.352,30.375,23.8875,-23.9438,,adl
4.791545,0.3988,0.573,0.4451,-0.5158,-0.4333,0.352,30.375,23.8875,-23.9438,,adl
4.793102,0.3988,0.573,0.4451,-0.2518,-0.162,0.3398,30.375,23.8875,-23.9438,,adl
4.794231,0.5355,0.644,0.2466,-0.2518,-0.162,0.3398,30.375,23.8875,-23.9438,,adl
4.79778,0.5355,0.644,0.2466,-0.2518,-0.162,0.3398,30.2625,24.1313,-24.7688,,adl
4.810789,0.7262,0.5765,0.1158,-0.2518,-0.162,0.3398,30.2625,24.1313,-24.7688,,adl
4.829305,0.8052,0.5513,0.1007,-0.2518,-0.162,0.3398,30.2625,24.1313,-24.7688,,adl
4.839021,0.8052,0.5513,0.1007,-0.2518,-0.162,0.3398,30.2625,24.1313,-24.7688,,adl
4.85013,0.7648,0.6073,0.1007,-0.2518,-0.162,0.3398,30.2625,24.1313,-24.7688,,adl
4.852961,0.7648,0.6073,0.1007,-0.3092,0.3035,0.104,30.2625,24.1313,-24.7688,,adl
4.858443,0.7648,0.6073,0.1007,-0.3092,0.3035,0.104,32.325,24.0,-25.4625,,adl
4.86925,0.592,0.6487,0.2025,-0.3092,0.3035,0.104,32.325,24.0,-25.4625,,adl
4.886561,0.592,0.6487,0.2025,-0.3092,0.3035,0.104,32.325,24.0,-25.4625,,adl
4.888911,0.4744,0.676,0.3509,-0.3092,0.3035,0.104,32.325,24.0,-25.4625,,adl
4.907504,0.6768,0.4307,0.4422,-0.3092,0.3035,0.104,32.325,24.0,-25.4625,,adl
4.915507,0.6768,0.4307,0.4422,-0.3752,0.5221,-0.0415,32.325,24.0,-25.4625,,adl
4.918399,0.6768,0.4307,0.4422,-0.3752,0.5221,-0.0415,31.4063,24.4688,-22.6313,,adl
4.92522,0.7653,-0.049,0.4682,-0.3752,0.5221,-0.0415,31.4063,24.4688,-22.6313,,adl
4.93501,0.7653,-0.049,0.4682,-0.3752,0.5221,-0.0415,31.4063,24.4688,-22.6313,,adl
4.945558,0.8195,-0.6834,0.7493,-0.3752,0.5221,-0.0415,31.4063,24.4688,-22.6313,,adl
4.963932,0.8713,-1.2804,1.3054,-0.3752,0.5221,-0.0415,31.4063,24.4688,-22.6313,,adl
4.976889,0.8713,-1.2804,1.3054,-0.5488,0.4,0.0025,31.4063,24.4688,-22.6313,,adl
4.978663,0.8713,-1.2804,1.3054,-0.5488,0.4,0.0025,31.8188,25.5188,-20.6625,,adl
4.981326,0.8713,-1.2804,1.3054,-0.5488,0.4,0.0025,31.8188,25.5188,-20.6625,,adl
4.98219,0.8134,-1.5298,2.0132,-0.5488,0.4,0.0025,31.8188,25.5188,-20.6625,,adl
5.003361,0.5823,-1.3201,2.6943,-0.5488,0.4,0.0025,31.8188,25.5188,-20.6625,,adl
5.021652,0.4181,-0.6804,2.9841,-0.5488,0.4,0.0025,31.8188,25.5188,-20.6625,,adl
5.031041,0.4181,-0.6804,2.9841,-0.5488,0.4,0.0025,31.8188,25.5188,-20.6625,,adl
5.038256,0.4181,-0.6804,2.9841,-0.5488,0.4,0.0025,32.6813,25.65,-19.7438,,adl
5.039481,0.4181,-0.6804,2.9841,0.1734,0.2864,0.5144,32.6813,25.65,-19.7438,,adl
5.040427,0.694,0.1026,2.945,0.1734,0.2864,0.5144,32.6813,25.65,-19.7438,,adl
5.059498,1.243,0.6985,2.0698,0.1734,0.2864,0.5144,32.6813,25.65,-19.7438,,adl
5.077922,1.243,0.6985,2.0698,0.1734,0.2864,0.5144,32.6813,25.65,-19.7438,,adl
5.081041,1.9836,0.664,0.7277,0.1734,0.2864,0.5144,32.6813,25.65,-19.7438,,adl
5.097622,2.3627,0.3143,-0.8392,0.1734,0.2864,0.5144,32.6813,25.65,-19.7438,,adl
5.099418,2.3627,0.3143,-0.8392,0.1734,0.2864,0.5144,33.6375,23.9625,-20.3063,,adl
5.109451,2.3627,0.3143,-0.8392,0.9479,0.4195,0.1699,33.6375,23.9625,-20.3063,,adl
5.117117,2.7068,-0.0699,-1.8868,0.9479,0.4195,0.1699,33.6375,23.9625,-20.3063,,adl
5.125782,2.7068,-0.0699,-1.8868,0.9479,0.4195,0.1699,33.6375,23.9625,-20.3063,,adl
5.136023,2.9681,-0.4969,-2.5293,0.9479,0.4195,0.1699,33.6375,23.9625,-20.3063,,adl
5.154632,3.0983,-0.79,-2.7049,0.9479,0.4195,0.1699,33.6375,23.9625,-20.3063,,adl
5.158198,3.0983,-0.79,-2.7049,0.9479,0.4195,0.1699,33.8625,23.3625,-20.4188,,adl
5.163838,3.0983,-0.79,-2.7049,0.2295,0.5637,-0.6805,33.8625,23.3625,-20.4188,,adl
5.172948,3.0983,-0.79,-2.7049,0.2295,0.5637,-0.6805,33.8625,23.3625,-20.4188,,adl
5.173769,2.8504,-0.9846,-2.2873,0.2295,0.5637,-0.6805,33.8625,23.3625,-20.4188,,adl
5.19366,2.3408,-1.2946,-1.368,0.2295,0.5637,-0.6805,33.8625,23.3625,-20.4188,,adl
5.213229,1.5697,-1.9357,-0.8304,0.2295,0.5637,-0.6805,33.8625,23.3625,-20.4188,,adl
5.218551,1.5697,-1.9357,-0.8304,0.2295,0.5637,-0.6805,32.9813,25.425,-19.5563,,adl
5.221134,1.5697,-1.9357,-0.8304,0.2295,0.5637,-0.6805,32.9813,25.425,-19.5563,,adl
5.225493,1.5697,-1.9357,-0.8304,-0.2872,0.5405,-1.7139,32.9813,25.425,-19.5563,,adl
5.231178,0.2014,-2.2077,-0.6247,-0.2872,0.5405,-1.7139,32.9813,25.425,-19.5563,,adl
5.250505,-0.8742,-2.2572,-0.4931,-0.2872,0.5405,-1.7139,32.9813,25.425,-19.5563,,adl
5.269585,-0.8742,-2.2572,-0.4931,-0.2872,0.5405,-1.7139,32.9813,25.425,-19.5563,,adl
5.272715,-1.5808,-2.0813,-0.6333,-0.2872,0.5405,-1.7139,32.9813,25.425,-19.5563,,adl
5.278525,-1.5808,-2.0813,-0.6333,-0.2872,0.5405,-1.7139,31.2188,29.8313,-17.5875,,adl
5.28783,-1.5808,-2.0813,-0.6333,-0.2835,1.9051,-1.5076,31.2188,29.8313,-17.5875,,adl
5.289471,-1.6607,-1.8169,-0.9579,-0.2835,1.9051,-1.5076,31.2188,29.8313,-17.5875,,adl
5.308547,-1.3227,-1.6898,-1.1683,-0.2835,1.9051,-1.5076,31.2188,29.8313,-17.5875,,adl
5.316464,-1.3227,-1.6898,-1.1683,-0.2835,1.9051,-1.5076,31.2188,29.8313,-17.5875,,adl
5.327378,-1.2684,-1.6914,-1.5609,-0.2835,1.9051,-1.5076,31.2188,29.8313,-17.5875,,adl
5.338753,-1.2684,-1.6914,-1.5609,-0.2835,1.9051,-1.5076,32.0813,32.1938,-16.05,,adl
5.346139,-1.372,-1.7191,-2.0282,-0.2835,1.9051,-1.5076,32.0813,32.1938,-16.05,,adl
5.349761,-1.372,-1.7191,-2.0282,-0.2409,1.6474,-1.3768,32.0813,32.1938,-16.05,,adl
5.364475,-1.372,-1.7191,-2.0282,-0.2409,1.6474,-1.3768,32.0813,32.1938,-16.05,,adl
5.365893,-1.541,-1.7904,-2.2883,-0.2409,1.6474,-1.3768,32.0813,32.1938,-16.05,,adl
5.385184,-1.9131,-1.8011,-2.2095,-0.2409,1.6474,-1.3768,32.0813,32.1938,-16.05,,adl
5.40007,-1.9131,-1.8011,-2.2095,-0.2409,1.6474,-1.3768,29.9438,35.1375,-11.175,,adl
5.404439,-2.2835,-1.6906,-1.6368,-0.2409,1.6474,-1.3768,29.9438,35.1375,-11.175,,adl
5.414072,-2.2835,-1.6906,-1.6368,-0.2409,1.6474,-1.3768,29.9438,35.1375,-11.175,,adl
5.415442,-2.2835,-1.6906,-1.6368,-0.6013,0.7029,-0.9981,29.9438,35.1375,-11.175,,adl
5.422587,-2.508,-1.5459,-0.9103,-0.6013,0.7029,-0.9981,29.9438,35.1375,-11.175,,adl
5.442416,-2.6028,-1.3568,-0.2988,-0.6013,0.7029,-0.9981,29.9438,35.1375,-11.175,,adl
5.458525,-2.6028,-1.3568,-0.2988,-0.6013,0.7029,-0.9981,27.9,37.0875,-9.45,,adl
5.460196,-2.6028,-1.3568,-0.2988,-0.6013,0.7029,-0.9981,27.9,37.0875,-9.45,,adl
5.460938,-2.6696,-1.237,0.028,-0.6013,0.7029,-0.9981,27.9,37.0875,-9.45,,adl
5.474111,-2.6696,-1.237,0.028,-0.457,-0.5713,-0.3189,27.9,37.0875,-9.45,,adl
5.4804,-2.5606,-1.2312,0.3351,-0.457,-0.5713,-0.3189,27.9,37.0875,-9.45,,adl
5.499702,-2.3916,-1.0967,0.731,-0.457,-0.5713,-0.3189,27.9,37.0875,-9.45,,adl
5.510245,-2.3916,-1.0967,0.731,-0.457,-0.5713,-0.3189,27.9,37.0875,-9.45,,adl
5.520181,-1.9933,-1.046,0.7499,-0.457,-0.5713,-0.3189,27.9,37.0875,-9.45,,adl
5.5219,-1.9933,-1.046,0.7499,-0.457,-0.5713,-0.3189,27.3938,37.3875,-9.3188,,adl
5.536481,-1.9933,-1.046,0.7499,-0.1101,-1.3226,0.3385,27.3938,37.3875,-9.3188,,adl
5.538133,-1.6142,-0.9276,0.4494,-0.1101,-1.3226,0.3385,27.3938,37.3875,-9.3188,,adl
5.556522,-1.6142,-0.9276,0.4494,-0.1101,-1.3226,0.3385,27.3938,37.3875,-9.3188,,adl
5.559517,-1.242,-0.7474,0.0453,-0.1101,-1.3226,0.3385,27.3938,37.3875,-9.3188,,adl
5.576087,-0.8459,-0.6689,-0.235,-0.1101,-1.3226,0.3385,27.3938,37.3875,-9.3188,,adl
5.577834,-0.8459,-0.6689,-0.235,-0.1101,-1.3226,0.3385,27.3375,37.2188,-11.5125,,adl
5.595025,-0.6363,-0.419,-0.3358,-0.1101,-1.3226,0.3385,27.3375,37.2188,-11.5125,,adl
5.598994,-0.6363,-0.419,-0.3358,-0.3398,-1.1248,0.5499,27.3375,37.2188,-11.5125,,adl
5.604167,-0.6363,-0.419,-0.3358,-0.3398,-1.1248,0.5499,27.3375,37.2188,-11.5125,,adl
5.613795,-0.3636,-0.234,-0.29,-0.3398,-1.1248,0.5499,27.3375,37.2188,-11.5125,,adl
5.634085,-0.1701,-0.1146,-0.0989,-0.3398,-1.1248,0.5499,27.3375,37.2188,-11.5125,,adl
5.638387,-0.1701,-0.1146,-0.0989,-0.3398,-1.1248,0.5499,27.5625,36.4875,-12.5625,,adl
5.651729,-0.1701,-0.1146,-0.0989,-0.3398,-1.1248,0.5499,27.5625,36.4875,-12.5625,,adl
5.653014,-0.0338,-0.1433,0.2686,-0.3398,-1.1248,0.5499,27.5625,36.4875,-12.5625,,adl
5.661202,-0.0338,-0.1433,0.2686,-0.9312,-0.2402,0.4216,27.5625,36.4875,-12.5625,,adl
5.671478,0.0941,-0.28,0.7919,-0.9312,-0.2402,0.4216,27.5625,36.4875,-12.5625,,adl
5.690222,-0.0849,-0.3814,1.2419,-0.9312,-0.2402,0.4216,27.5625,36.4875,-12.5625,,adl
5.698722,-0.0849,-0.3814,1.2419,-0.9312,-0.2402,0.4216,28.2375,36.0563,-10.6125,,adl
5.701949,-0.0849,-0.3814,1.2419,-0.9312,-0.2402,0.4216,28.2375,36.0563,-10.6125,,adl
5.70897,-0.2286,-0.3827,1.6375,-0.9312,-0.2402,0.4216,28.2375,36.0563,-10.6125,,adl
5.723238,-0.2286,-0.3827,1.6375,-1.1718,0.8141,0.3788,28.2375,36.0563,-10.6125,,adl
5.728852,-0.4258,-0.1465,2.0481,-1.1718,0.8141,0.3788,28.2375,36.0563,-10.6125,,adl
5.747317,-0.4258,-0.1465,2.0481,-1.1718,0.8141,0.3788,28.2375,36.0563,-10.6125,,adl
5.748744,-0.4268,0.2607,2.1246,-1.1718,0.8141,0.3788,28.2375,36.0563,-10.6125,,adl
5.759014,-0.4268,0.2607,2.1246,-1.1718,0.8141,0.3788,29.3813,35.4563,-5.9625,,adl
5.766364,-0.1534,0.5865,2.0363,-1.1718,0.8141,0.3788,29.3813,35.4563,-5.9625,,adl
5.785173,-0.1534,0.5865,2.0363,-0.9299,0.9925,0.639,29.3813,35.4563,-5.9625,,adl
5.787209,0.2761,0.7502,1.8807,-0.9299,0.9925,0.639,29.3813,35.4563,-5.9625,,adl
5.794977,0.2761,0.7502,1.8807,-0.9299,0.9925,0.639,29.3813,35.4563,-5.9625,,adl
5.805924,0.892,0.5757,1.5275,-0.9299,0.9925,0.639,29.3813,35.4563,-5.9625,,adl
5.817769,0.892,0.5757,1.5275,-0.9299,0.9925,0.639,31.6313,34.65,-3.5438,,adl
5.824241,1.4117,0.1866,1.1661,-0.9299,0.9925,0.639,31.6313,34.65,-3.5438,,adl
5.843208,1.4117,0.1866,1.1661,-0.9299,0.9925,0.639,31.6313,34.65,-3.5438,,adl
5.846151,1.3331,0.1036,1.2182,-0.9299,0.9925,0.639,31.6313,34.65,-3.5438,,adl
5.848359,1.3331,0.1036,1.2182,-1.013,0.5515,0.5559,31.6313,34.65,-3.5438,,adl
5.863064,1.4688,-0.0966,1.9766,-1.013,0.5515,0.5559,31.6313,34.65,-3.5438,,adl
5.878564,1.4688,-0.0966,1.9766,-1.013,0.5515,0.5559,31.575,32.925,0.6,,adl
5.88163,1.2704,0.2018,2.8201,-1.013,0.5515,0.5559,31.575,32.925,0.6,,adl
5.891153,1.2704,0.2018,2.8201,-1.013,0.5515,0.5559,31.575,32.925,0.6,,adl
5.900812,1.2603,0.5661,3.3767,-1.013,0.5515,0.5559,31.575,32.925,0.6,,adl
5.910144,1.2603,0.5661,3.3767,-0.7784,0.4953,0.7539,31.575,32.925,0.6,,adl
5.920482,1.3712,0.9656,3.619,-0.7784,0.4953,0.7539,31.575,32.925,0.6,,adl
5.939325,1.3712,0.9656,3.619,-0.7784,0.4953,0.7539,31.575,32.925,0.6,,adl
5.942712,1.9066,1.3012,3.6542,-0.7784,0.4953,0.7539,31.575,32.925,0.6,,adl
5.944629,1.9066,1.3012,3.6542,-0.7784,0.4953,0.7539,33.3375,31.6125,3.5438,,adl
5.958524,2.5716,1.3746,3.0204,-0.7784,0.4953,0.7539,33.3375,31.6125,3.5438,,adl
5.971956,2.5716,1.3746,3.0204,0.1354,0.7543,0.92,33.3375,31.6125,3.5438,,adl
5.977463,2.4927,0.8798,2.0114,0.1354,0.7543,0.92,33.3375,31.6125,3.5438,,adl
5.987741,2.4927,0.8798,2.0114,0.1354,0.7543,0.92,33.3375,31.6125,3.5438,,adl
5.996324,1.8255,0.3761,1.8974,0.1354,0.7543,0.92,33.3375,31.6125,3.5438,,adl
5.997611,1.8255,0.3761,1.8974,0.1354,0.7543,0.92,35.25,29.9063,4.8375,,adl
6.016071,1.7847,0.881,2.1781,0.1354,0.7543,0.92,35.25,29.9063,4.8375,,adl
6.033433,1.7847,0.881,2.1781,0.1354,0.7543,0.92,35.25,29.9063,4.8375,,adl
6.034807,1.7847,0.881,2.1781,0.5411,2.0566,1.6604,35.25,29.9063,4.8375,,adl
6.035725,3.0889,1.4852,2.7625,0.5411,2.0566,1.6604,35.25,29.9063,4.8375,,adl
6.05293,4.5054,1.5273,2.3236,0.5411,2.0566,1.6604,35.25,29.9063,4.8375,,adl
6.059319,4.5054,1.5273,2.3236,0.5411,2.0566,1.6604,37.125,26.4938,8.0813,,adl
6.073018,5.1111,1.0838,0.7009,0.5411,2.0566,1.6604,37.125,26.4938,8.0813,,adl
6.081962,5.1111,1.0838,0.7009,0.5411,2.0566,1.6604,37.125,26.4938,8.0813,,adl
6.092145,4.9321,0.5921,-1.2524,0.5411,2.0566,1.6604,37.125,26.4938,8.0813,,adl
6.096156,4.9321,0.5921,-1.2524,1.1971,0.5796,0.5119,37.125,26.4938,8.0813,,adl
6.111399,4.6534,0.2512,-2.3908,1.1971,0.5796,0.5119,37.125,26.4938,8.0813,,adl
6.118942,4.6534,0.2512,-2.3908,1.1971,0.5796,0.5119,37.95,25.2375,8.5688,,adl
6.129894,4.6534,0.2512,-2.3908,1.1971,0.5796,0.5119,37.95,25.2375,8.5688,,adl
6.131361,4.3379,0.4169,-2.5356,1.1971,0.5796,0.5119,37.95,25.2375,8.5688,,adl
6.149836,4.0576,0.5177,-2.1784,1.1971,0.5796,0.5119,37.95,25.2375,8.5688,,adl
6.158482,4.0576,0.5177,-2.1784,0.4616,-0.0654,-0.3004,37.95,25.2375,8.5688,,adl
6.168763,3.59,0.4409,-1.7646,0.4616,-0.0654,-0.3004,37.95,25.2375,8.5688,,adl
6.176709,3.59,0.4409,-1.7646,0.4616,-0.0654,-0.3004,37.95,25.2375,8.5688,,adl
6.177926,3.59,0.4409,-1.7646,0.4616,-0.0654,-0.3004,37.65,25.725,7.125,,adl
6.187742,2.7613,0.2185,-1.4555,0.4616,-0.0654,-0.3004,37.65,25.725,7.125,,adl
6.208038,2.1256,-0.2154,-1.2222,0.4616,-0.0654,-0.3004,37.65,25.725,7.125,,adl
6.22289,2.1256,-0.2154,-1.2222,0.3871,-0.5713,-0.8038,37.65,25.725,7.125,,adl
6.226597,2.1256,-0.2154,-1.2222,0.3871,-0.5713,-0.8038,37.65,25.725,7.125,,adl
6.227498,1.6246,-0.8327,-1.1634,0.3871,-0.5713,-0.8038,37.65,25.725,7.125,,adl
6.237959,1.6246,-0.8327,-1.1634,0.3871,-0.5713,-0.8038,36.9,27.8438,5.2875,,adl
6.244954,1.0798,-0.9684,-1.2439,0.3871,-0.5713,-0.8038,36.9,27.8438,5.2875,,adl
6.264302,0.7681,-0.8837,-1.1969,0.3871,-0.5713,-0.8038,36.9,27.8438,5.2875,,adl
6.274635,0.7681,-0.8837,-1.1969,0.3871,-0.5713,-0.8038,36.9,27.8438,5.2875,,adl
6.282297,0.7681,-0.8837,-1.1969,0.326,-0.294,-0.7195,36.9,27.8438,5.2875,,adl
6.283883,0.6741,-0.6991,-0.8,0.326,-0.294,-0.7195,36.9,27.8438,5.2875,,adl
6.298373,0.6741,-0.6991,-0.8,0.326,-0.294,-0.7195,35.4563,29.8313,4.2,,adl
6.309498,0.6337,-0.504,-0.4361,0.326,-0.294,-0.7195,35.4563,29.8313,4.2,,adl
6.320769,0.6337,-0.504,-0.4361,0.326,-0.294,-0.7195,35.4563,29.8313,4.2,,adl
6.324136,0.6324,-0.3971,-0.2065,0.326,-0.294,-0.7195,35.4563,29.8313,4.2,,adl
6.340966,0.5632,-0.4111,-0.5264,0.326,-0.294,-0.7195,35.4563,29.8313,4.2,,adl
6.344656,0.5632,-0.4111,-0.5264,0.5276,-1.3214,-0.6365,35.4563,29.8313,4.2,,adl
6.358679,0.5632,-0.4111,-0.5264,0.5276,-1.3214,-0.6365,33.825,32.2125,1.4625,,adl
6.362985,0.4464,-0.5681,-1.0957,0.5276,-1.3214,-0.6365,33.825,32.2125,1.4625,,adl
6.368264,0.4464,-0.5681,-1.0957,0.5276,-1.3214,-0.6365,33.825,32.2125,1.4625,,adl
6.37904,-0.2753,-0.5399,-1.8375,0.5276,-1.3214,-0.6365,33.825,32.2125,1.4625,,adl
6.39833,-0.8595,-0.286,-1.9892,0.5276,-1.3214,-0.6365,33.825,32.2125,1.4625,,adl
6.407318,-0.8595,-0.286,-1.9892,0.0694,-0.0374,-0.6413,33.825,32.2125,1.4625,,adl
6.416402,-0.8595,-0.286,-1.9892,0.0694,-0.0374,-0.6413,33.825,32.2125,1.4625,,adl
6.417801,-1.0353,-0.1668,-1.386,0.0694,-0.0374,-0.6413,33.825,32.2125,1.4625,,adl
6.419109,-1.0353,-0.1668,-1.386,0.0694,-0.0374,-0.6413,32.4188,33.675,-0.6562,,adl
6.436017,-1.0683,-0.1255,-0.6507,0.0694,-0.0374,-0.6413,32.4188,33.675,-0.6562,,adl
6.455618,-1.161,-0.1811,-0.1399,0.0694,-0.0374,-0.6413,32.4188,33.675,-0.6562,,adl
6.467231,-1.161,-0.1811,-0.1399,0.0694,-0.0374,-0.6413,32.4188,33.675,-0.6562,,adl
6.470242,-1.161,-0.1811,-0.1399,-0.0979,-0.1094,-0.3959,32.4188,33.675,-0.6562,,adl
6.474315,-1.3094,-0.3251,0.1935,-0.0979,-0.1094,-0.3959,32.4188,33.675,-0.6562,,adl
6.477909,-1.3094,-0.3251,0.1935,-0.0979,-0.1094,-0.3959,31.4063,34.8563,-0.1125,,adl
6.493415,-1.5202,-0.4206,0.5247,-0.0979,-0.1094,-0.3959,31.4063,34.8563,-0.1125,,adl
6.512817,-1.5202,-0.4206,0.5247,-0.0979,-0.1094,-0.3959,31.4063,34.8563,-0.1125,,adl
6.515649,-1.6923,-0.2926,0.6086,-0.0979,-0.1094,-0.3959,31.4063,34.8563,-0.1125,,adl
6.535043,-1.6923,-0.2926,0.6086,0.2014,-0.8425,0.0025,31.4063,34.8563,-0.1125,,adl
6.536309,-1.6235,-0.245,0.5134,0.2014,-0.8425,0.0025,31.4063,34.8563,-0.1125,,adl
6.538568,-1.6235,-0.245,0.5134,0.2014,-0.8425,0.0025,30.9938,35.3438,-1.5563,,adl
6.55119,-1.5641,-0.1985,0.3395,0.2014,-0.8425,0.0025,30.9938,35.3438,-1.5563,,adl
6.560389,-1.5641,-0.1985,0.3395,0.2014,-0.8425,0.0025,30.9938,35.3438,-1.5563,,adl
6.571174,-1.5652,-0.197,0.3063,0.2014,-0.8425,0.0025,30.9938,35.3438,-1.5563,,adl
6.590192,-1.6385,-0.2049,0.3708,0.2014,-0.8425,0.0025,30.9938,35.3438,-1.5563,,adl
6.593024,-1.6385,-0.2049,0.3708,0.2478,-0.862,0.2773,30.9938,35.3438,-1.5563,,adl
6.600066,-1.6385,-0.2049,0.3708,0.2478,-0.862,0.2773,30.5625,35.1188,-4.2375,,adl
6.607836,-1.6385,-0.2049,0.3708,0.2478,-0.862,0.2773,30.5625,35.1188,-4.2375,,adl
6.608773,-1.4829,-0.2136,0.6175,0.2478,-0.862,0.2773,30.5625,35.1188,-4.2375,,adl
6.628,-1.2733,-0.2323,0.8146,0.2478,-0.862,0.2773,30.5625,35.1188,-4.2375,,adl
6.646519,-0.9366,-0.2556,0.7972,0.2478,-0.862,0.2773,30.5625,35.1188,-4.2375,,adl
6.655191,-0.9366,-0.2556,0.7972,0.2478,-0.862,0.2773,30.5625,35.1188,-4.2375,,adl
6.656443,-0.9366,-0.2556,0.7972,0.4653,-0.7606,0.5644,30.5625,35.1188,-4.2375,,adl
6.657875,-0.9366,-0.2556,0.7972,0.4653,-0.7606,0.5644,31.7813,34.5188,-6.45,,adl
6.666999,-0.662,-0.1946,0.423,0.4653,-0.7606,0.5644,31.7813,34.5188,-6.45,,adl
6.685131,-0.3674,-0.0547,0.0797,0.4653,-0.7606,0.5644,31.7813,34.5188,-6.45,,adl
6.703818,-0.3674,-0.0547,0.0797,0.4653,-0.7606,0.5644,31.7813,34.5188,-6.45,,adl
6.706839,-0.0267,0.0517,-0.1721,0.4653,-0.7606,0.5644,31.7813,34.5188,-6.45,,adl
6.717511,-0.0267,0.0517,-0.1721,0.4873,-0.5126,0.6255,31.7813,34.5188,-6.45,,adl
6.719421,-0.0267,0.0517,-0.1721,0.4873,-0.5126,0.6255,32.325,33.3188,-8.3625,,adl
6.72278,0.4291,0.0183,-0.3026,0.4873,-0.5126,0.6255,32.325,33.3188,-8.3625,,adl
6.741492,1.1675,-0.5088,-0.484,0.4873,-0.5126,0.6255,32.325,33.3188,-8.3625,,adl
6.750635,1.1675,-0.5088,-0.484,0.4873,-0.5126,0.6255,32.325,33.3188,-8.3625,,adl
6.761525,1.3895,-0.9803,-0.4827,0.4873,-0.5126,0.6255,32.325,33.3188,-8.3625,,adl
6.779032,1.3895,-0.9803,-0.4827,0.4873,-0.5126,0.6255,32.8875,32.025,-10.35,,adl
6.782794,1.3895,-0.9803,-0.4827,0.1452,-0.2207,0.1906,32.8875,32.025,-10.35,,adl
6.785415,1.5697,-1.609,-0.3085,0.1452,-0.2207,0.1906,32.8875,32.025,-10.35,,adl
6.799231,1.5697,-1.609,-0.3085,0.1452,-0.2207,0.1906,32.8875,32.025,-10.35,,adl
6.800643,1.0932,-1.7273,0.1671,0.1452,-0.2207,0.1906,32.8875,32.025,-10.35,,adl
6.818922,0.8519,-1.4605,0.9131,0.1452,-0.2207,0.1906,32.8875,32.025,-10.35,,adl
6.83919,1.1092,-1.0757,1.1789,0.1452,-0.2207,0.1906,32.8875,32.025,-10.35,,adl
6.843333,1.1092,-1.0757,1.1789,0.1452,-0.2207,0.1906,33.2812,31.8,-9.8438,,adl
6.845797,1.1092,-1.0757,1.1789,0.265,0.3535,0.3043,33.2812,31.8,-9.8438,,adl
6.847842,1.1092,-1.0757,1.1789,0.265,0.3535,0.3043,33.2812,31.8,-9.8438,,adl
6.856578,1.4879,-0.7799,0.6586,0.265,0.3535,0.3043,33.2812,31.8,-9.8438,,adl
6.876391,1.5232,-0.691,-0.4073,0.265,0.3535,0.3043,33.2812,31.8,-9.8438,,adl
6.894779,1.5232,-0.691,-0.4073,0.265,0.3535,0.3043,33.2812,31.8,-9.8438,,adl
6.896656,1.3381,-0.6237,-1.2674,0.265,0.3535,0.3043,33.2812,31.8,-9.8438,,adl
6.897398,1.3381,-0.6237,-1.2674,0.265,0.3535,0.3043,33.7125,31.2188,-10.3875,,adl
6.9042,1.3381,-0.6237,-1.2674,0.4482,0.2142,0.0562,33.7125,31.2188,-10.3875,,adl
6.915111,1.0977,-0.4166,-1.6145,0.4482,0.2142,0.0562,33.7125,31.2188,-10.3875,,adl
6.933431,0.7942,-0.189,-1.5219,0.4482,0.2142,0.0562,33.7125,31.2188,-10.3875,,adl
6.942409,0.7942,-0.189,-1.5219,0.4482,0.2142,0.0562,33.7125,31.2188,-10.3875,,adl
6.952471,0.6137,-0.1294,-1.4718,0.4482,0.2142,0.0562,33.7125,31.2188,-10.3875,,adl
6.958276,0.6137,-0.1294,-1.4718,0.4482,0.2142,0.0562,33.9188,31.0125,-10.2938,,adl
6.966411,0.6137,-0.1294,-1.4718,0.2149,0.2217,-0.0378,33.9188,31.0125,-10.2938,,adl
6.972078,0.509,-0.1437,-1.6313,0.2149,0.2217,-0.0378,33.9188,31.0125,-10.2938,,adl
6.990499,0.509,-0.1437,-1.6313,0.2149,0.2217,-0.0378,33.9188,31.0125,-10.2938,,adl
6.991894,0.3562,-0.2732,-1.9337,0.2149,0.2217,-0.0378,33.9188,31.0125,-10.2938,,adl
7.0111,0.306,-0.529,-2.0015,0.2149,0.2217,-0.0378,33.9188,31.0125,-10.2938,,adl
7.018793,0.306,-0.529,-2.0015,0.2149,0.2217,-0.0378,33.7313,30.8063,-10.1813,,adl
7.028982,0.306,-0.529,-2.0015,-0.2237,-0.0509,-0.044,33.7313,30.8063,-10.1813,,adl
7.03292,0.251,-0.9172,-1.6843,-0.2237,-0.0509,-0.044,33.7313,30.8063,-10.1813,,adl
7.037908,0.251,-0.9172,-1.6843,-0.2237,-0.0509,-0.044,33.7313,30.8063,-10.1813,,adl
7.048236,-0.0602,-1.1559,-0.8208,-0.2237,-0.0509,-0.044,33.7313,30.8063,-10.1813,,adl
7.067014,-0.5581,-0.9329,0.0645,-0.2237,-0.0509,-0.044,33.7313,30.8063,-10.1813,,adl
7.078628,-0.5581,-0.9329,0.0645,-0.2237,-0.0509,-0.044,34.0125,31.2375,-10.8,,adl
7.086429,-0.5581,-0.9329,0.0645,-0.2237,-0.0509,-0.044,34.0125,31.2375,-10.8,,adl
7.088537,-0.1958,0.8906,-0.3365,-0.2237,-0.0509,-0.044,34.0125,31.2375,-10.8,,adl
7.091939,-0.1958,0.8906,-0.3365,-0.6586,-0.0704,-1.2547,34.0125,31.2375,-10.8,,adl
7.106125,-6.1684,0.4313,0.9422,-0.6586,-0.0704,-1.2547,34.0125,31.2375,-10.8,,adl
7.125255,-3.3986,-4.7012,2.3337,-0.6586,-0.0704,-1.2547,34.0125,31.2375,-10.8,,adl
7.133828,-3.3986,-4.7012,2.3337,-0.6586,-0.0704,-1.2547,34.0125,31.2375,-10.8,,adl
7.137488,-3.3986,-4.7012,2.3337,-0.6586,-0.0704,-1.2547,32.1188,33.9188,-9.9,,adl
7.143191,-3.6134,-2.1855,3.1021,-0.6586,-0.0704,-1.2547,32.1188,33.9188,-9.9,,adl
7.152679,-3.6134,-2.1855,3.1021,-0.5548,0.9767,0.7745,32.1188,33.9188,-9.9,,adl
7.163461,-1.502,-0.687,3.2122,-0.5548,0.9767,0.7745,32.1188,33.9188,-9.9,,adl
7.181457,-1.502,-0.687,3.2122,-0.5548,0.9767,0.7745,32.1188,33.9188,-9.9,,adl
7.184875,-0.046,0.0815,2.9786,-0.5548,0.9767,0.7745,32.1188,33.9188,-9.9,,adl
7.197341,-0.046,0.0815,2.9786,-0.5548,0.9767,0.7745,35.3063,32.4188,-9.6,,adl
7.200908,1.8824,0.0145,2.8347,-0.5548,0.9767,0.7745,35.3063,32.4188,-9.6,,adl
7.214518,1.8824,0.0145,2.8347,0.6511,-0.9562,0.8858,35.3063,32.4188,-9.6,,adl
7.224848,2.4475,0.5228,1.4971,0.6511,-0.9562,0.8858,35.3063,32.4188,-9.6,,adl
7.228882,2.4475,0.5228,1.4971,0.6511,-0.9562,0.8858,35.3063,32.4188,-9.6,,adl
7.240345,2.4143,0.5189,-1.052,0.6511,-0.9562,0.8858,35.3063,32.4188,-9.6,,adl
7.258672,2.2125,0.3956,-2.6105,0.6511,-0.9562,0.8858,35.3063,32.4188,-9.6,,adl
7.25955,2.2125,0.3956,-2.6105,0.6511,-0.9562,0.8858,34.9125,30.525,-11.1562,,adl
7.276377,2.2125,0.3956,-2.6105,0.6511,-0.9562,0.8858,34.9125,30.525,-11.1562,,adl
7.276906,2.2125,0.3956,-2.6105,-0.0209,0.2252,0.0538,34.9125,30.525,-11.1562,,adl
7.277194,1.7426,0.3639,-2.6745,-0.0209,0.2252,0.0538,34.9125,30.525,-11.1562,,adl
7.29761,1.3149,0.6845,-1.7016,-0.0209,0.2252,0.0538,34.9125,30.525,-11.1562,,adl
7.315746,1.2345,0.9901,-0.6397,-0.0209,0.2252,0.0538,34.9125,30.525,-11.1562,,adl
7.317835,1.2345,0.9901,-0.6397,-0.0209,0.2252,0.0538,35.6063,30.1688,-10.2375,,adl
7.324542,1.2345,0.9901,-0.6397,-0.0209,0.2252,0.0538,35.6063,30.1688,-10.2375,,adl
7.33559,1.0347,1.2583,0.1002,-0.0209,0.2252,0.0538,35.6063,30.1688,-10.2375,,adl
7.339404,1.0347,1.2583,0.1002,-0.6293,0.3315,-0.1831,35.6063,30.1688,-10.2375,,adl
7.353945,0.7525,1.1477,0.7286,-0.6293,0.3315,-0.1831,35.6063,30.1688,-10.2375,,adl
7.372346,0.7525,1.1477,0.7286,-0.6293,0.3315,-0.1831,35.6063,30.1688,-10.2375,,adl
7.373719,0.6034,0.5876,1.039,-0.6293,0.3315,-0.1831,35.6063,30.1688,-10.2375,,adl
7.378914,0.6034,0.5876,1.039,-0.6293,0.3315,-0.1831,35.1375,31.4813,-8.7563,,adl
7.392468,0.2949,-0.0766,1.5416,-0.6293,0.3315,-0.1831,35.1375,31.4813,-8.7563,,adl
7.401642,0.2949,-0.0766,1.5416,-0.5621,-0.8084,-0.2651,35.1375,31.4813,-8.7563,,adl
7.412401,0.1737,-0.4956,1.986,-0.5621,-0.8084,-0.2651,35.1375,31.4813,-8.7563,,adl
7.420246,0.1737,-0.4956,1.986,-0.5621,-0.8084,-0.2651,35.1375,31.4813,-8.7563,,adl
7.431337,0.4625,-0.7048,2.2456,-0.5621,-0.8084,-0.2651,35.1375,31.4813,-8.7563,,adl
7.43768,0.4625,-0.7048,2.2456,-0.5621,-0.8084,-0.2651,35.4938,32.4563,-8.6625,,adl
7.450452,0.674,-0.6441,2.1052,-0.5621,-0.8084,-0.2651,35.4938,32.4563,-8.6625,,adl
7.463843,0.674,-0.6441,2.1052,-0.3813,-0.5163,-0.149,35.4938,32.4563,-8.6625,,adl
7.467825,0.674,-0.6441,2.1052,-0.3813,-0.5163,-0.149,35.4938,32.4563,-8.6625,,adl
7.468655,0.7587,-0.4788,1.9015,-0.3813,-0.5163,-0.149,35.4938,32.4563,-8.6625,,adl
7.488093,0.9355,-0.6922,1.9071,-0.3813,-0.5163,-0.149,35.4938,32.4563,-8.6625,,adl
7.49848,0.9355,-0.6922,1.9071,-0.3813,-0.5163,-0.149,34.3125,32.9813,-10.2938,,adl
7.50774,1.0386,-1.514,2.0308,-0.3813,-0.5163,-0.149,34.3125,32.9813,-10.2938,,adl
7.5164,1.0386,-1.514,2.0308,-0.3813,-0.5163,-0.149,34.3125,32.9813,-10.2938,,adl
7.525815,1.0386,-1.514,2.0308,-0.4632,0.0786,-0.59,34.3125,32.9813,-10.2938,,adl
7.5276,0.3146,-1.3792,2.6392,-0.4632,0.0786,-0.59,34.3125,32.9813,-10.2938,,adl
7.546298,0.0937,-1.2421,2.5055,-0.4632,0.0786,-0.59,34.3125,32.9813,-10.2938,,adl
7.557515,0.0937,-1.2421,2.5055,-0.4632,0.0786,-0.59,33.075,34.5188,-8.9813,,adl
7.563549,0.0937,-1.2421,2.5055,-0.4632,0.0786,-0.59,33.075,34.5188,-8.9813,,adl
7.564561,0.2578,-0.7831,1.6189,-0.4632,0.0786,-0.59,33.075,34.5188,-8.9813,,adl
7.584015,0.4509,-0.2753,0.3653,-0.4632,0.0786,-0.59,33.075,34.5188,-8.9813,,adl
7.587542,0.4509,-0.2753,0.3653,0.1929,0.9729,-0.606,33.075,34.5188,-8.9813,,adl
7.60327,0.7008,-0.0479,-0.8656,0.1929,0.9729,-0.606,33.075,34.5188,-8.9813,,adl
7.611897,0.7008,-0.0479,-0.8656,0.1929,0.9729,-0.606,33.075,34.5188,-8.9813,,adl
7.61848,0.7008,-0.0479,-0.8656,0.1929,0.9729,-0.606,32.625,35.4375,-7.5188,,adl
7.621636,0.5835,-0.0957,-1.61,0.1929,0.9729,-0.606,32.625,35.4375,-7.5188,,adl
7.641748,0.4505,-0.3294,-1.7313,0.1929,0.9729,-0.606,32.625,35.4375,-7.5188,,adl
7.650297,0.4505,-0.3294,-1.7313,-0.2555,1.0022,-0.8966,32.625,35.4375,-7.5188,,adl
7.659966,0.4505,-0.3294,-1.7313,-0.2555,1.0022,-0.8966,32.625,35.4375,-7.5188,,adl
7.662742,0.2331,-0.6445,-1.1738,-0.2555,1.0022,-0.8966,32.625,35.4375,-7.5188,,adl
7.678359,0.2331,-0.6445,-1.1738,-0.2555,1.0022,-0.8966,32.8313,37.0875,-6.7875,,adl
7.679976,-0.2382,-0.7614,-0.3187,-0.2555,1.0022,-0.8966,32.8313,37.0875,-6.7875,,adl
7.698924,-0.7192,-0.7476,0.23,-0.2555,1.0022,-0.8966,32.8313,37.0875,-6.7875,,adl
7.707538,-0.7192,-0.7476,0.23,-0.2555,1.0022,-0.8966,32.8313,37.0875,-6.7875,,adl
7.713373,-0.7192,-0.7476,0.23,-0.1126,0.7029,-0.7891,32.8313,37.0875,-6.7875,,adl
7.718409,-1.1137,-0.4443,-0.0878,-0.1126,0.7029,-0.7891,32.8313,37.0875,-6.7875,,adl
7.742584,-1.172,-0.2037,-0.6676,-0.1126,0.7029,-0.7891,32.8313,37.0875,-6.7875,,adl
7.744326,-1.172,-0.2037,-0.6676,-0.1126,0.7029,-0.7891,29.6813,39.1313,-2.9438,,adl
7.755904,-1.172,-0.2037,-0.6676,-0.1126,0.7029,-0.7891,29.6813,39.1313,-2.9438,,adl
7.758903,-1.3065,-0.1008,-1.0857,-0.1126,0.7029,-0.7891,29.6813,39.1313,-2.9438,,adl
7.775513,-1.3065,-0.1008,-1.0857,0.0474,0.6896,-0.5852,29.6813,39.1313,-2.9438,,adl
7.779259,-1.3868,-0.2039,-1.1267,0.0474,0.6896,-0.5852,29.6813,39.1313,-2.9438,,adl
7.794286,-1.1987,-0.5528,-0.9998,0.0474,0.6896,-0.5852,29.6813,39.1313,-2.9438,,adl
7.800251,-1.1987,-0.5528,-0.9998,0.0474,0.6896,-0.5852,28.6875,39.6938,-1.7625,,adl
7.803459,-1.1987,-0.5528,-0.9998,0.0474,0.6896,-0.5852,28.6875,39.6938,-1.7625,,adl
7.813327,-0.9838,-0.8095,-1.0075,0.0474,0.6896,-0.5852,28.6875,39.6938,-1.7625,,adl
7.832343,-0.8049,-0.8743,-1.1237,0.0474,0.6896,-0.5852,28.6875,39.6938,-1.7625,,adl
7.836541,-0.8049,-0.8743,-1.1237,0.1244,0.4451,-0.3054,28.6875,39.6938,-1.7625,,adl
7.851189,-0.8049,-0.8743,-1.1237,0.1244,0.4451,-0.3054,28.6875,39.6938,-1.7625,,adl
7.852611,-0.643,-0.7214,-1.1801,0.1244,0.4451,-0.3054,28.6875,39.6938,-1.7625,,adl
7.858415,-0.643,-0.7214,-1.1801,0.1244,0.4451,-0.3054,27.6563,40.6688,-0.9,,adl
7.870637,-0.6012,-0.5985,-1.3178,0.1244,0.4451,-0.3054,27.6563,40.6688,-0.9,,adl
7.889842,-0.559,-0.4492,-1.5938,0.1244,0.4451,-0.3054,27.6563,40.6688,-0.9,,adl
7.902258,-0.559,-0.4492,-1.5938,0.1244,0.4451,-0.3054,27.6563,40.6688,-0.9,,adl
7.905111,-0.559,-0.4492,-1.5938,0.1757,0.4293,-0.0916,27.6563,40.6688,-0.9,,adl
7.908395,-0.4472,-0.2578,-1.9193,0.1757,0.4293,-0.0916,27.6563,40.6688,-0.9,,adl
7.919058,-0.4472,-0.2578,-1.9193,0.1757,0.4293,-0.0916,27.6375,40.8375,-0.2625,,adl
7.928134,-0.2675,-0.0912,-2.2383,0.1757,0.4293,-0.0916,27.6375,40.8375,-0.2625,,adl
7.946699,-0.2675,-0.0912,-2.2383,0.1757,0.4293,-0.0916,27.6375,40.8375,-0.2625,,adl
7.94961,-0.0434,0.0653,-2.4145,0.1757,0.4293,-0.0916,27.6375,40.8375,-0.2625,,adl
7.960279,-0.0434,0.0653,-2.4145,-0.1052,0.3083,0.1295,27.6375,40.8375,-0.2625,,adl
7.967316,0.2471,0.2405,-2.2446,-0.1052,0.3083,0.1295,27.6375,40.8375,-0.2625,,adl
7.977368,0.2471,0.2405,-2.2446,-0.1052,0.3083,0.1295,28.125,40.7438,0.8625,,adl
7.985293,0.5712,0.3261,-1.7356,-0.1052,0.3083,0.1295,28.125,40.7438,0.8625,,adl
7.995134,0.5712,0.3261,-1.7356,-0.1052,0.3083,0.1295,28.125,40.7438,0.8625,,adl
8.005201,0.6655,0.2172,-1.2738,-0.1052,0.3083,0.1295,28.125,40.7438,0.8625,,adl
8.02336,0.6655,0.2172,-1.2738,-0.3692,-0.0949,0.0502,28.125,40.7438,0.8625,,adl
8.026851,0.6847,-0.0031,-1.074,-0.3692,-0.0949,0.0502,28.125,40.7438,0.8625,,adl
8.03836,0.6847,-0.0031,-1.074,-0.3692,-0.0949,0.0502,28.2375,40.1438,1.0688,,adl
8.042167,0.6847,-0.0031,-1.074,-0.3692,-0.0949,0.0502,28.2375,40.1438,1.0688,,adl
8.043102,0.5061,-0.1432,-0.8036,-0.3692,-0.0949,0.0502,28.2375,40.1438,1.0688,,adl
8.062284,0.3842,-0.1473,-0.2671,-0.3692,-0.0949,0.0502,28.2375,40.1438,1.0688,,adl
8.081726,0.341,-0.0147,0.1858,-0.3692,-0.0949,0.0502,28.2375,40.1438,1.0688,,adl
8.084913,0.341,-0.0147,0.1858,-0.4546,0.1898,0.198,28.2375,40.1438,1.0688,,adl
8.090139,0.341,-0.0147,0.1858,-0.4546,0.1898,0.198,28.2375,40.1438,1.0688,,adl
8.098226,0.341,-0.0147,0.1858,-0.4546,0.1898,0.198,28.2188,40.35,2.5125,,adl
8.100894,0.4502,0.1721,0.3947,-0.4546,0.1898,0.198,28.2188,40.35,2.5125,,adl
8.119507,0.5965,0.3376,0.1597,-0.4546,0.1898,0.198,28.2188,40.35,2.5125,,adl
8.1384,0.5965,0.3376,0.1597,-0.4546,0.1898,0.198,28.2188,40.35,2.5125,,adl
8.14121,0.9797,0.5816,0.1005,-0.4546,0.1898,0.198,28.2188,40.35,2.5125,,adl
8.146566,0.9797,0.5816,0.1005,-0.2738,0.2619,0.2896,28.2188,40.35,2.5125,,adl
8.157083,1.28,0.8225,-0.1728,-0.2738,0.2619,0.2896,28.2188,40.35,2.5125,,adl
8.158898,1.28,0.8225,-0.1728,-0.2738,0.2619,0.2896,30.5063,39.3938,2.3438,,adl
8.1769,1.3036,0.9397,-0.5326,-0.2738,0.2619,0.2896,30.5063,39.3938,2.3438,,adl
8.186455,1.3036,0.9397,-0.5326,-0.2738,0.2619,0.2896,30.5063,39.3938,2.3438,,adl
8.196001,1.2065,1.0116,-0.4991,-0.2738,0.2619,0.2896,30.5063,39.3938,2.3438,,adl
8.208717,1.2065,1.0116,-0.4991,-0.429,0.3255,0.0722,30.5063,39.3938,2.3438,,adl
8.223435,1.1567,0.9523,-0.0547,-0.429,0.3255,0.0722,30.5063,39.3938,2.3438,,adl
8.226866,1.1567,0.9523,-0.0547,-0.429,0.3255,0.0722,29.4,39.0563,5.5875,,adl
8.233576,1.1567,0.9523,-0.0547,-0.429,0.3255,0.0722,29.4,39.0563,5.5875,,adl
8.234948,0.9628,0.8806,0.4029,-0.429,0.3255,0.0722,29.4,39.0563,5.5875,,adl
8.252966,0.8876,0.8975,0.4761,-0.429,0.3255,0.0722,29.4,39.0563,5.5875,,adl
8.271899,0.8876,0.8975,0.4761,-0.3813,0.3548,0.0122,29.4,39.0563,5.5875,,adl
8.275598,0.8299,0.8617,0.5582,-0.3813,0.3548,0.0122,29.4,39.0563,5.5875,,adl
8.278183,0.8299,0.8617,0.5582,-0.3813,0.3548,0.0122,29.4938,38.9813,6.7313,,adl
8.282837,0.8299,0.8617,0.5582,-0.3813,0.3548,0.0122,29.4938,38.9813,6.7313,,adl
8.291961,0.7517,0.7774,0.4414,-0.3813,0.3548,0.0122,29.4938,38.9813,6.7313,,adl
8.310599,0.505,0.6687,0.3325,-0.3813,0.3548,0.0122,29.4938,38.9813,6.7313,,adl
8.329264,0.505,0.6687,0.3325,-0.3813,0.3548,0.0122,29.4938,38.9813,6.7313,,adl
8.332389,0.3744,0.5427,0.0326,-0.3813,0.3548,0.0122,29.4938,38.9813,6.7313,,adl
8.335099,0.3744,0.5427,0.0326,-0.346,0.3352,0.2773,29.4938,38.9813,6.7313,,adl
8.338942,0.3744,0.5427,0.0326,-0.346,0.3352,0.2773,29.5875,38.3813,8.7,,adl
8.348638,0.6303,0.7626,0.1567,-0.346,0.3352,0.2773,29.5875,38.3813,8.7,,adl
8.368465,1.0519,0.7463,0.426,-0.346,0.3352,0.2773,29.5875,38.3813,8.7,,adl
8.379262,1.0519,0.7463,0.426,-0.346,0.3352,0.2773,29.5875,38.3813,8.7,,adl
8.386556,1.2948,0.8056,0.5876,-0.346,0.3352,0.2773,29.5875,38.3813,8.7,,adl
8.395789,1.2948,0.8056,0.5876,-0.2299,-0.2439,0.3812,29.5875,38.3813,8.7,,adl
8.397673,1.2948,0.8056,0.5876,-0.2299,-0.2439,0.3812,30.0188,37.4625,8.8875,,adl
8.406791,1.5838,0.7357,0.5982,-0.2299,-0.2439,0.3812,30.0188,37.4625,8.8875,,adl
8.424533,1.5838,0.7357,0.5982,-0.2299,-0.2439,0.3812,30.0188,37.4625,8.8875,,adl
8.42834,1.7015,0.84,0.6243,-0.2299,-0.2439,0.3812,30.0188,37.4625,8.8875,,adl
8.444469,1.8556,0.8349,0.5029,-0.2299,-0.2439,0.3812,30.0188,37.4625,8.8875,,adl
8.458464,1.8556,0.8349,0.5029,-0.1187,0.0676,0.127,30.0188,37.4625,8.8875,,adl
8.461812,1.8556,0.8349,0.5029,-0.1187,0.0676,0.127,30.9,37.0875,9.5813,,adl
8.464123,1.9479,0.6647,0.4503,-0.1187,0.0676,0.127,30.9,37.0875,9.5813,,adl
8.471728,1.9479,0.6647,0.4503,-0.1187,0.0676,0.127,30.9,37.0875,9.5813,,adl
8.482416,2.364,0.0678,0.192,-0.1187,0.0676,0.127,30.9,37.0875,9.5813,,adl
8.502352,2.038,-0.5312,0.0051,-0.1187,0.0676,0.127,30.9,37.0875,9.5813,,adl
8.518509,2.038,-0.5312,0.0051,-0.1187,0.0676,0.127,30.3,37.5563,10.3313,,adl
8.522725,2.038,-0.5312,0.0051,-0.1187,0.0676,0.127,30.3,37.5563,10.3313,,adl
8.52466,2.038,-0.5312,0.0051,-0.4265,0.6051,-0.3604,30.3,37.5563,10.3313,,adl
8.527167,1.9306,-1.2141,0.462,-0.4265,0.6051,-0.3604,30.3,37.5563,10.3313,,adl
8.540063,1.8464,-1.4722,1.1607,-0.4265,0.6051,-0.3604,30.3,37.5563,10.3313,,adl
8.559159,1.4608,-1.3287,1.6781,-0.4265,0.6051,-0.3604,30.3,37.5563,10.3313,,adl
8.568348,1.4608,-1.3287,1.6781,-0.4265,0.6051,-0.3604,30.3,37.5563,10.3313,,adl
8.579174,1.1484,-0.9499,2.0109,-0.4265,0.6051,-0.3604,30.3,37.5563,10.3313,,adl
8.582747,1.1484,-0.9499,2.0109,-0.4265,0.6051,-0.3604,29.0813,38.175,12.5625,,adl
8.585638,1.1484,-0.9499,2.0109,-0.4033,0.841,-0.4715,29.0813,38.175,12.5625,,adl
8.598186,0.875,-0.5543,2.155,-0.4033,0.841,-0.4715,29.0813,38.175,12.5625,,adl
8.616011,0.875,-0.5543,2.155,-0.4033,0.841,-0.4715,29.0813,38.175,12.5625,,adl
8.617423,0.6616,-0.07,2.1391,-0.4033,0.841,-0.4715,29.0813,38.175,12.5625,,adl
8.635885,0.5762,0.2895,1.134,-0.4033,0.841,-0.4715,29.0813,38.175,12.5625,,adl
8.639931,0.5762,0.2895,1.134,-0.4033,0.841,-0.4715,28.2563,38.7375,13.3125,,adl
8.645296,0.5762,0.2895,1.134,0.3175,1.2026,-0.5021,28.2563,38.7375,13.3125,,adl
8.656289,0.6523,0.4595,-0.1166,0.3175,1.2026,-0.5021,28.2563,38.7375,13.3125,,adl
8.664278,0.6523,0.4595,-0.1166,0.3175,1.2026,-0.5021,28.2563,38.7375,13.3125,,adl
8.674211,0.9717,0.3636,-0.9463,0.3175,1.2026,-0.5021,28.2563,38.7375,13.3125,,adl
8.692858,1.1479,0.1059,-1.6386,0.3175,1.2026,-0.5021,28.2563,38.7375,13.3125,,adl
8.700222,1.1479,0.1059,-1.6386,0.3175,1.2026,-0.5021,24.375,40.2,15.9375,,adl
8.70725,1.1479,0.1059,-1.6386,0.2698,1.0902,-0.8173,24.375,40.2,15.9375,,adl
8.712288,1.1479,0.1059,-1.6386,0.2698,1.0902,-0.8173,24.375,40.2,15.9375,,adl
8.715352,1.3202,-0.4349,-2.0496,0.2698,1.0902,-0.8173,24.375,40.2,15.9375,,adl
8.731423,1.2142,-1.0929,-2.0417,0.2698,1.0902,-0.8173,24.375,40.2,15.9375,,adl
8.750316,0.7373,-1.5146,-1.3759,0.2698,1.0902,-0.8173,24.375,40.2,15.9375,,adl
8.758171,0.7373,-1.5146,-1.3759,0.2698,1.0902,-0.8173,21.0938,41.7375,16.875,,adl
8.759876,0.7373,-1.5146,-1.3759,0.2698,1.0902,-0.8173,21.0938,41.7375,16.875,,adl
8.768244,0.7373,-1.5146,-1.3759,-0.3325,0.5063,-1.1704,21.0938,41.7375,16.875,,adl
8.769499,0.0666,-1.8182,-0.4818,-0.3325,0.5063,-1.1704,21.0938,41.7375,16.875,,adl
8.788997,-0.7758,-1.6747,0.2228,-0.3325,0.5063,-1.1704,21.0938,41.7375,16.875,,adl
8.80799,-0.7758,-1.6747,0.2228,-0.3325,0.5063,-1.1704,21.0938,41.7375,16.875,,adl
8.811056,-1.3703,-1.402,0.6855,-0.3325,0.5063,-1.1704,21.0938,41.7375,16.875,,adl
8.81907,-1.3703,-1.402,0.6855,-0.3325,0.5063,-1.1704,18.0188,42.6375,18.3188,,adl
8.82742,-1.4716,-0.8323,1.002,-0.3325,0.5063,-1.1704,18.0188,42.6375,18.3188,,adl
8.831142,-1.4716,-0.8323,1.002,0.0219,0.6541,-0.755,18.0188,42.6375,18.3188,,adl
8.845958,-1.3089,-0.3631,0.4508,0.0219,0.6541,-0.755,18.0188,42.6375,18.3188,,adl
8.857221,-1.3089,-0.3631,0.4508,0.0219,0.6541,-0.755,18.0188,42.6375,18.3188,,adl
8.865042,-1.1793,-0.0538,-0.5347,0.0219,0.6541,-0.755,18.0188,42.6375,18.3188,,adl
8.878388,-1.1793,-0.0538,-0.5347,0.0219,0.6541,-0.755,15.0375,43.8188,18.2063,,adl
8.884354,-0.7631,-0.189,-1.1493,0.0219,0.6541,-0.755,15.0375,43.8188,18.2063,,adl
8.893389,-0.7631,-0.189,-1.1493,0.0964,0.191,-0.5547,15.0375,43.8188,18.2063,,adl
8.902244,-0.7631,-0.189,-1.1493,0.0964,0.191,-0.5547,15.0375,43.8188,18.2063,,adl
8.90349,-0.6499,-0.3542,-0.7227,0.0964,0.191,-0.5547,15.0375,43.8188,18.2063,,adl
8.92334,-0.6598,-0.2482,-0.2516,0.0964,0.191,-0.5547,15.0375,43.8188,18.2063,,adl
8.938453,-0.6598,-0.2482,-0.2516,0.0964,0.191,-0.5547,14.1375,44.4563,18.1313,,adl
8.942479,-0.1762,-0.4216,0.1061,0.0964,0.191,-0.5547,14.1375,44.4563,18.1313,,adl
8.949961,-0.1762,-0.4216,0.1061,0.0964,0.191,-0.5547,14.1375,44.4563,18.1313,,adl
8.955921,-0.1762,-0.4216,0.1061,-0.0173,-0.0679,-0.3629,14.1375,44.4563,18.1313,,adl
8.960438,0.2481,-0.6798,0.2409,-0.0173,-0.0679,-0.3629,14.1375,44.4563,18.1313,,adl
8.980349,0.29,-0.5195,0.1152,-0.0173,-0.0679,-0.3629,14.1375,44.4563,18.1313,,adl
8.99832,0.29,-0.5195,0.1152,-0.0173,-0.0679,-0.3629,12.9563,44.8688,18.4875,,adl
9.000002,0.29,-0.5195,0.1152,-0.0173,-0.0679,-0.3629,12.9563,44.8688,18.4875,,adl
9.000705,0.175,-0.366,-0.3639,-0.0173,-0.0679,-0.3629,12.9563,44.8688,18.4875,,adl
9.017671,0.175,-0.366,-0.3639,-0.0588,0.1727,-0.4826,12.9563,44.8688,18.4875,,adl
9.021366,-0.0988,-0.2048,-0.7296,-0.0588,0.1727,-0.4826,12.9563,44.8688,18.4875,,adl
9.038102,-0.2787,-0.2266,-0.8619,-0.0588,0.1727,-0.4826,12.9563,44.8688,18.4875,,adl
9.046301,-0.2787,-0.2266,-0.8619,-0.0588,0.1727,-0.4826,12.9563,44.8688,18.4875,,adl
9.056428,-0.4462,-0.4393,-0.8327,-0.0588,0.1727,-0.4826,12.9563,44.8688,18.4875,,adl
9.05899,-0.4462,-0.4393,-0.8327,-0.0588,0.1727,-0.4826,11.7563,45.3,18.525,,adl
9.075674,-0.7784,-0.5091,-1.0162,-0.0588,0.1727,-0.4826,11.7563,45.3,18.525,,adl
9.079953,-0.7784,-0.5091,-1.0162,-0.4033,0.6992,-0.5424,11.7563,45.3,18.525,,adl
9.095121,-0.7784,-0.5091,-1.0162,-0.4033,0.6992,-0.5424,11.7563,45.3,18.525,,adl
9.096502,-1.041,-0.5183,-1.2875,-0.4033,0.6992,-0.5424,11.7563,45.3,18.525,,adl
9.114328,-0.9691,-0.6678,-1.2612,-0.4033,0.6992,-0.5424,11.7563,45.3,18.525,,adl
9.119376,-0.9691,-0.6678,-1.2612,-0.4033,0.6992,-0.5424,10.5188,44.8313,18.6562,,adl
9.133081,-1.0332,-0.7567,-1.1946,-0.4033,0.6992,-0.5424,10.5188,44.8313,18.6562,,adl
9.14193,-1.0332,-0.7567,-1.1946,-0.4033,0.6992,-0.5424,10.5188,44.8313,18.6562,,adl
9.143062,-1.0332,-0.7567,-1.1946,-0.7846,0.5734,-0.3506,10.5188,44.8313,18.6562,,adl
9.151829,-1.0678,-0.8835,-0.8447,-0.7846,0.5734,-0.3506,10.5188,44.8313,18.6562,,adl
9.171791,-1.1637,-0.9808,-0.2547,-0.7846,0.5734,-0.3506,10.5188,44.8313,18.6562,,adl
9.178646,-1.1637,-0.9808,-0.2547,-0.7846,0.5734,-0.3506,7.275,44.1,22.8,,adl
9.190252,-1.1637,-0.9808,-0.2547,-0.7846,0.5734,-0.3506,7.275,44.1,22.8,,adl
9.191608,-1.2538,-0.9405,0.3418,-0.7846,0.5734,-0.3506,7.275,44.1,22.8,,adl
9.203655,-1.2538,-0.9405,0.3418,-0.8407,0.0762,0.0208,7.275,44.1,22.8,,adl
9.209552,-1.01,-0.79,0.8013,-0.8407,0.0762,0.0208,7.275,44.1,22.8,,adl
9.229058,0.135,-1.0794,0.6503,-0.8407,0.0762,0.0208,7.275,44.1,22.8,,adl
9.237007,0.135,-1.0794,0.6503,-0.8407,0.0762,0.0208,7.275,44.1,22.8,,adl
9.238694,0.135,-1.0794,0.6503,-0.8407,0.0762,0.0208,7.725,42.375,25.05,,adl
9.247651,0.6199,-1.7544,-0.2158,-0.8407,0.0762,0.0208,7.725,42.375,25.05,,adl
9.265772,0.6199,-1.7544,-0.2158,-0.9677,-0.2732,-0.0355,7.725,42.375,25.05,,adl
9.267548,0.8059,-2.1719,0.0468,-0.9677,-0.2732,-0.0355,7.725,42.375,25.05,,adl
9.284898,0.8059,-2.1719,0.0468,-0.9677,-0.2732,-0.0355,7.725,42.375,25.05,,adl
9.286419,0.9725,-2.5165,0.9696,-0.9677,-0.2732,-0.0355,7.725,42.375,25.05,,adl
9.298065,0.9725,-2.5165,0.9696,-0.9677,-0.2732,-0.0355,7.575,40.6875,26.7188,,adl
9.304839,0.5284,-2.4045,1.8205,-0.9677,-0.2732,-0.0355,7.575,40.6875,26.7188,,adl
9.32428,-0.1376,-1.5662,2.4417,-0.9677,-0.2732,-0.0355,7.575,40.6875,26.7188,,adl
9.327995,-0.1376,-1.5662,2.4417,-1.1364,0.0945,0.0098,7.575,40.6875,26.7188,,adl
9.335306,-0.1376,-1.5662,2.4417,-1.1364,0.0945,0.0098,7.575,40.6875,26.7188,,adl
9.346809,-0.349,-0.5568,2.6605,-1.1364,0.0945,0.0098,7.575,40.6875,26.7188,,adl
9.358802,-0.349,-0.5568,2.6605,-1.1364,0.0945,0.0098,7.6313,38.1562,31.1625,,adl
9.362973,-0.4132,0.4503,2.4732,-1.1364,0.0945,0.0098,7.6313,38.1562,31.1625,,adl
9.380962,-0.4132,0.4503,2.4732,-1.1364,0.0945,0.0098,7.6313,38.1562,31.1625,,adl
9.38252,-0.4425,1.2518,1.5515,-1.1364,0.0945,0.0098,7.6313,38.1562,31.1625,,adl
9.390345,-0.4425,1.2518,1.5515,-0.4278,1.1403,0.006,7.6313,38.1562,31.1625,,adl
9.40231,-0.3339,1.675,0.3356,-0.4278,1.1403,0.006,7.6313,38.1562,31.1625,,adl
9.418631,-0.3339,1.675,0.3356,-0.4278,1.1403,0.006,4.8563,37.125,31.5375,,adl
9.421825,-0.107,1.6901,-0.447,-0.4278,1.1403,0.006,4.8563,37.125,31.5375,,adl
9.428585,-0.107,1.6901,-0.447,-0.4278,1.1403,0.006,4.8563,37.125,31.5375,,adl
9.438662,-0.0112,1.6424,-1.0848,-0.4278,1.1403,0.006,4.8563,37.125,31.5375,,adl
9.452698,-0.0112,1.6424,-1.0848,-0.4913,1.133,-0.2481,4.8563,37.125,31.5375,,adl
9.458341,0.0281,1.301,-1.5637,-0.4913,1.133,-0.2481,4.8563,37.125,31.5375,,adl
9.47661,0.0281,1.301,-1.5637,-0.4913,1.133,-0.2481,4.8563,37.125,31.5375,,adl
9.477925,-0.0438,0.7466,-1.4705,-0.4913,1.133,-0.2481,4.8563,37.125,31.5375,,adl
9.47903,-0.0438,0.7466,-1.4705,-0.4913,1.133,-0.2481,2.2313,36.5063,33.6,,adl
9.495756,-0.202,0.1111,-0.3075,-0.4913,1.133,-0.2481,2.2313,36.5063,33.6,,adl
9.515174,-0.202,0.1111,-0.3075,-1.0838,0.5026,-0.3103,2.2313,36.5063,33.6,,adl
9.519255,-0.64,-0.2211,0.9935,-1.0838,0.5026,-0.3103,2.2313,36.5063,33.6,,adl
9.524969,-0.64,-0.2211,0.9935,-1.0838,0.5026,-0.3103,2.2313,36.5063,33.6,,adl
9.534558,-1.0225,-0.1119,1.9755,-1.0838,0.5026,-0.3103,2.2313,36.5063,33.6,,adl
9.537938,-1.0225,-0.1119,1.9755,-1.0838,0.5026,-0.3103,0.3563,33.9375,36.225,,adl
9.553912,-0.9817,0.2227,2.331,-1.0838,0.5026,-0.3103,0.3563,33.9375,36.225,,adl
9.573339,-0.9817,0.2227,2.331,-1.0838,0.5026,-0.3103,0.3563,33.9375,36.225,,adl
9.576229,-0.5019,0.5683,2.2831,-1.0838,0.5026,-0.3103,0.3563,33.9375,36.225,,adl
9.578938,-0.5019,0.5683,2.2831,-0.3374,0.4097,0.3616,0.3563,33.9375,36.225,,adl
9.591563,0.1112,0.9727,1.5978,-0.3374,0.4097,0.3616,0.3563,33.9375,36.225,,adl
9.598369,0.1112,0.9727,1.5978,-0.3374,0.4097,0.3616,-0.3,33.0938,37.4813,,adl
9.610862,0.5174,1.2412,0.4939,-0.3374,0.4097,0.3616,-0.3,33.0938,37.4813,,adl
9.619678,0.5174,1.2412,0.4939,-0.3374,0.4097,0.3616,-0.3,33.0938,37.4813,,adl
9.630278,1.0064,1.3114,-0.4098,-0.3374,0.4097,0.3616,-0.3,33.0938,37.4813,,adl
9.639258,1.0064,1.3114,-0.4098,0.0902,0.2717,0.4544,-0.3,33.0938,37.4813,,adl
9.6496,1.4471,1.3276,-0.9664,0.0902,0.2717,0.4544,-0.3,33.0938,37.4813,,adl
9.659066,1.4471,1.3276,-0.9664,0.0902,0.2717,0.4544,0.0938,33.3,36.9563,,adl
9.669491,1.4471,1.3276,-0.9664,0.0902,0.2717,0.4544,0.0938,33.3,36.9563,,adl
9.671609,1.6538,1.2941,-1.2651,0.0902,0.2717,0.4544,0.0938,33.3,36.9563,,adl
9.687598,1.6223,1.2289,-1.2324,0.0902,0.2717,0.4544,0.0938,33.3,36.9563,,adl
9.703835,1.6223,1.2289,-1.2324,-0.3387,0.29,0.1308,0.0938,33.3,36.9563,,adl
9.707425,1.3467,1.0552,-0.6671,-0.3387,0.29,0.1308,0.0938,33.3,36.9563,,adl
9.715547,1.3467,1.0552,-0.6671,-0.3387,0.29,0.1308,0.0938,33.3,36.9563,,adl
9.71759,1.3467,1.0552,-0.6671,-0.3387,0.29,0.1308,0.0938,32.8688,37.7812,,adl
9.726527,1.1858,0.9152,-0.0399,-0.3387,0.29,0.1308,0.0938,32.8688,37.7812,,adl
9.745596,1.179,0.8733,0.4393,-0.3387,0.29,0.1308,0.0938,32.8688,37.7812,,adl
9.763867,1.179,0.8733,0.4393,-0.3387,0.29,0.1308,0.0938,32.8688,37.7812,,adl
9.767399,1.179,0.8733,0.4393,-0.2335,0.3205,0.132,0.0938,32.8688,37.7812,,adl
9.770434,1.3218,0.8586,0.5914,-0.2335,0.3205,0.132,0.0938,32.8688,37.7812,,adl
9.779139,1.3218,0.8586,0.5914,-0.2335,0.3205,0.132,-0.1688,31.9313,38.5125,,adl
9.783299,1.3598,1.0239,0.3238,-0.2335,0.3205,0.132,-0.1688,31.9313,38.5125,,adl
9.802794,1.5434,1.1336,-0.0715,-0.2335,0.3205,0.132,-0.1688,31.9313,38.5125,,adl
9.81387,1.5434,1.1336,-0.0715,-0.2335,0.3205,0.132,-0.1688,31.9313,38.5125,,adl
9.822138,1.7148,1.1691,-0.4271,-0.2335,0.3205,0.132,-0.1688,31.9313,38.5125,,adl
9.828121,1.7148,1.1691,-0.4271,-0.0539,0.3108,0.0745,-0.1688,31.9313,38.5125,,adl
9.838087,1.7148,1.1691,-0.4271,-0.0539,0.3108,0.0745,-0.5438,31.575,38.1,,adl
9.840137,1.7318,1.1287,-0.6442,-0.0539,0.3108,0.0745,-0.5438,31.575,38.1,,adl
9.859697,1.7318,1.1287,-0.6442,-0.0539,0.3108,0.0745,-0.5438,31.575,38.1,,adl
9.863137,1.7174,0.8972,-0.5303,-0.0539,0.3108,0.0745,-0.5438,31.575,38.1,,adl
9.879064,1.6692,0.5188,-0.2639,-0.0539,0.3108,0.0745,-0.5438,31.575,38.1,,adl
9.88771,1.6692,0.5188,-0.2639,-0.3007,0.2925,-0.1453,-0.5438,31.575,38.1,,adl
9.898673,1.7023,0.1126,0.0991,-0.3007,0.2925,-0.1453,-0.5438,31.575,38.1,,adl
9.902509,1.7023,0.1126,0.0991,-0.3007,0.2925,-0.1453,-2.5875,31.7063,38.7938,,adl
9.906361,1.7023,0.1126,0.0991,-0.3007,0.2925,-0.1453,-2.5875,31.7063,38.7938,,adl
9.917382,1.7086,-0.1444,0.5262,-0.3007,0.2925,-0.1453,-2.5875,31.7063,38.7938,,adl
9.935593,1.4327,-0.0846,0.7717,-0.3007,0.2925,-0.1453,-2.5875,31.7063,38.7938,,adl
9.950424,1.4327,-0.0846,0.7717,-0.2335,0.4537,-0.0586,-2.5875,31.7063,38.7938,,adl
9.954797,1.4327,-0.0846,0.7717,-0.2335,0.4537,-0.0586,-2.5875,31.7063,38.7938,,adl
9.955562,1.2619,0.2603,0.9118,-0.2335,0.4537,-0.0586,-2.5875,31.7063,38.7938,,adl
9.957906,1.2619,0.2603,0.9118,-0.2335,0.4537,-0.0586,-2.925,30.3,39.2063,,adl
9.974366,1.456,0.4969,0.7172,-0.2335,0.4537,-0.0586,-2.925,30.3,39.2063,,adl
9.993722,1.6955,0.75,0.3239,-0.2335,0.4537,-0.0586,-2.925,30.3,39.2063,,adl
10.002852,1.6955,0.75,0.3239,-0.2335,0.4537,-0.0586,-2.925,30.3,39.2063,,adl
10.015257,1.6955,0.75,0.3239,0.0377,0.2937,-0.0403,-2.925,30.3,39.2063,,adl
10.019458,1.9736,0.51,-0.1742,0.0377,0.2937,-0.0403,-2.925,30.3,39.2063,,adl
10.022385,1.9736,0.51,-0.1742,0.0377,0.2937,-0.0403,-4.3875,30.15,39.2438,,adl
10.031641,2.0364,0.3536,-0.4316,0.0377,0.2937,-0.0403,-4.3875,30.15,39.2438,,adl
10.04995,2.0364,0.3536,-0.4316,0.0377,0.2937,-0.0403,-4.3875,30.15,39.2438,,adl
10.051381,2.1743,-0.0275,-0.2319,0.0377,0.2937,-0.0403,-4.3875,30.15,39.2438,,adl
10.069533,2.0067,-0.1559,0.1016,0.0377,0.2937,-0.0403,-4.3875,30.15,39.2438,,adl
10.074919,2.0067,-0.1559,0.1016,-0.1895,0.0249,-0.2591,-4.3875,30.15,39.2438,,adl
10.080369,2.0067,-0.1559,0.1016,-0.1895,0.0249,-0.2591,-5.4563,30.2625,39.375,,adl
10.092279,2.0363,-0.4223,0.4779,-0.1895,0.0249,-0.2591,-5.4563,30.2625,39.375,,adl
10.097909,2.0363,-0.4223,0.4779,-0.1895,0.0249,-0.2591,-5.4563,30.2625,39.375,,adl
10.108355,1.9427,-0.5805,1.0109,-0.1895,0.0249,-0.2591,-5.4563,30.2625,39.375,,adl
10.126795,1.5953,-0.5558,1.4724,-0.1895,0.0249,-0.2591,-5.4563,30.2625,39.375,,adl
10.135413,1.5953,-0.5558,1.4724,-0.1676,0.2045,-0.419,-5.4563,30.2625,39.375,,adl
10.138261,1.5953,-0.5558,1.4724,-0.1676,0.2045,-0.419,-6.2625,28.725,38.9813,,adl
10.145501,1.5953,-0.5558,1.4724,-0.1676,0.2045,-0.419,-6.2625,28.725,38.9813,,adl
10.147463,1.2329,-0.2947,1.8912,-0.1676,0.2045,-0.419,-6.2625,28.725,38.9813,,adl
10.165062,1.1688,-0.1196,2.03,-0.1676,0.2045,-0.419,-6.2625,28.725,38.9813,,adl
10.18498,1.1333,0.0169,1.5422,-0.1676,0.2045,-0.419,-6.2625,28.725,38.9813,,adl
10.194251,1.1333,0.0169,1.5422,-0.1676,0.2045,-0.419,-6.2625,28.725,38.9813,,adl
10.19892,1.1333,0.0169,1.5422,0.6278,0.356,-0.5229,-6.2625,28.725,38.9813,,adl
10.200108,1.1333,0.0169,1.5422,0.6278,0.356,-0.5229,-8.325,28.7625,39.45,,adl
10.204009,1.0026,0.0184,0.415,0.6278,0.356,-0.5229,-8.325,28.7625,39.45,,adl
10.223388,0.8163,-0.1147,-0.5797,0.6278,0.356,-0.5229,-8.325,28.7625,39.45,,adl
10.241202,0.8163,-0.1147,-0.5797,0.6278,0.356,-0.5229,-8.325,28.7625,39.45,,adl
10.242588,0.7662,-0.3441,-1.0459,0.6278,0.356,-0.5229,-8.325,28.7625,39.45,,adl
10.258852,0.7662,-0.3441,-1.0459,0.6278,0.356,-0.5229,-9.9938,29.8313,37.2188,,adl
10.262651,0.7662,-0.3441,-1.0459,0.6681,0.0909,-0.81,-9.9938,29.8313,37.2188,,adl
10.265238,0.8918,-0.7962,-1.2368,0.6681,0.0909,-0.81,-9.9938,29.8313,37.2188,,adl
10.280765,0.7634,-1.3496,-1.4892,0.6681,0.0909,-0.81,-9.9938,29.8313,37.2188,,adl
10.291701,0.7634,-1.3496,-1.4892,0.6681,0.0909,-0.81,-9.9938,29.8313,37.2188,,adl
10.302095,0.1914,-1.6938,-1.6339,0.6681,0.0909,-0.81,-9.9938,29.8313,37.2188,,adl
10.319371,-0.5384,-1.9484,-1.5522,0.6681,0.0909,-0.81,-9.9938,29.8313,37.2188,,adl
10.321157,-0.5384,-1.9484,-1.5522,0.6681,0.0909,-0.81,-11.6625,30.3563,35.925,,adl
10.324328,-0.5384,-1.9484,-1.5522,0.1635,0.0371,-1.196,-11.6625,30.3563,35.925,,adl
10.337658,-0.5384,-1.9484,-1.5522,0.1635,0.0371,-1.196,-11.6625,30.3563,35.925,,adl
10.339086,-0.9953,-2.2169,-1.0183,0.1635,0.0371,-1.196,-11.6625,30.3563,35.925,,adl
10.357311,-1.3753,-2.0881,-0.2381,0.1635,0.0371,-1.196,-11.6625,30.3563,35.925,,adl
10.376855,-1.3777,-2.0061,0.2861,0.1635,0.0371,-1.196,-11.6625,30.3563,35.925,,adl
10.380623,-1.3777,-2.0061,0.2861,0.1635,0.0371,-1.196,-13.8563,29.4375,35.9813,,adl
10.384054,-1.3777,-2.0061,0.2861,0.1635,0.0371,-1.196,-13.8563,29.4375,35.9813,,adl
10.38483,-1.3777,-2.0061,0.2861,0.0144,0.3596,-1.1301,-13.8563,29.4375,35.9813,,adl
10.396321,-1.488,-1.8668,0.1621,0.0144,0.3596,-1.1301,-13.8563,29.4375,35.9813,,adl
10.414538,-1.3662,-1.9329,-0.2648,0.0144,0.3596,-1.1301,-13.8563,29.4375,35.9813,,adl
10.43323,-1.3662,-1.9329,-0.2648,0.0144,0.3596,-1.1301,-13.8563,29.4375,35.9813,,adl
10.436395,-1.4258,-1.7756,-0.624,0.0144,0.3596,-1.1301,-13.8563,29.4375,35.9813,,adl
10.440211,-1.4258,-1.7756,-0.624,0.0144,0.3596,-1.1301,-17.3063,27.9938,35.4563,,adl
10.446743,-1.4258,-1.7756,-0.624,-0.0076,0.5881,-1.0323,-17.3063,27.9938,35.4563,,adl
10.452607,-1.3899,-1.6276,-0.9251,-0.0076,0.5881,-1.0323,-17.3063,27.9938,35.4563,,adl
10.471956,-1.6183,-1.414,-1.3039,-0.0076,0.5881,-1.0323,-17.3063,27.9938,35.4563,,adl
10.481336,-1.6183,-1.414,-1.3039,-0.0076,0.5881,-1.0323,-17.3063,27.9938,35.4563,,adl
10.492954,-1.6734,-1.4233,-1.1725,-0.0076,0.5881,-1.0323,-17.3063,27.9938,35.4563,,adl
10.499206,-1.6734,-1.4233,-1.1725,-0.0076,0.5881,-1.0323,-20.2313,26.0438,34.5938,,adl
10.509167,-1.6734,-1.4233,-1.1725,-0.4351,0.7847,-1.0201,-20.2313,26.0438,34.5938,,adl
10.51092,-1.8654,-1.3196,-0.6834,-0.4351,0.7847,-1.0201,-20.2313,26.0438,34.5938,,adl
10.52811,-1.8654,-1.3196,-0.6834,-0.4351,0.7847,-1.0201,-20.2313,26.0438,34.5938,,adl
10.529376,-2.2081,-1.2949,-0.3849,-0.4351,0.7847,-1.0201,-20.2313,26.0438,34.5938,,adl
10.548483,-2.3613,-1.2145,-0.3327,-0.4351,0.7847,-1.0201,-20.2313,26.0438,34.5938,,adl
10.558831,-2.3613,-1.2145,-0.3327,-0.4351,0.7847,-1.0201,-23.2688,24.2813,34.35,,adl
10.569134,-2.1448,-1.0955,-0.4743,-0.4351,0.7847,-1.0201,-23.2688,24.2813,34.35,,adl
10.572868,-2.1448,-1.0955,-0.4743,-0.308,0.6564,-0.5572,-23.2688,24.2813,34.35,,adl
10.575584,-2.1448,-1.0955,-0.4743,-0.308,0.6564,-0.5572,-23.2688,24.2813,34.35,,adl
10.586366,-2.0093,-1.0887,-0.6955,-0.308,0.6564,-0.5572,-23.2688,24.2813,34.35,,adl
10.606411,-1.9582,-0.981,-0.831,-0.308,0.6564,-0.5572,-23.2688,24.2813,34.35,,adl
10.61842,-1.9582,-0.981,-0.831,-0.308,0.6564,-0.5572,-24.8813,23.325,34.5,,adl
10.624105,-1.9582,-0.981,-0.831,-0.308,0.6564,-0.5572,-24.8813,23.325,34.5,,adl
10.627293,-1.7527,-0.813,-0.8382,-0.308,0.6564,-0.5572,-24.8813,23.325,34.5,,adl
10.634426,-1.7527,-0.813,-0.8382,-0.3362,0.1262,-0.1503,-24.8813,23.325,34.5,,adl
10.643633,-1.4829,-0.6375,-0.6715,-0.3362,0.1262,-0.1503,-24.8813,23.325,34.5,,adl
10.663185,-1.291,-0.6165,-0.8308,-0.3362,0.1262,-0.1503,-24.8813,23.325,34.5,,adl
10.671424,-1.291,-0.6165,-0.8308,-0.3362,0.1262,-0.1503,-24.8813,23.325,34.5,,adl
10.679965,-1.291,-0.6165,-0.8308,-0.3362,0.1262,-0.1503,-24.3563,22.0875,35.1,,adl
10.681596,-1.1236,-0.7816,-0.9433,-0.3362,0.1262,-0.1503,-24.3563,22.0875,35.1,,adl
10.695983,-1.1236,-0.7816,-0.9433,-0.5035,-0.2524,0.0477,-24.3563,22.0875,35.1,,adl
10.703013,-0.9159,-0.9102,-1.0339,-0.5035,-0.2524,0.0477,-24.3563,22.0875,35.1,,adl
10.720081,-0.9159,-0.9102,-1.0339,-0.5035,-0.2524,0.0477,-24.3563,22.0875,35.1,,adl
10.721439,-0.7926,-0.9976,-0.8661,-0.5035,-0.2524,0.0477,-24.3563,22.0875,35.1,,adl
10.738129,-0.7926,-0.9976,-0.8661,-0.5035,-0.2524,0.0477,-24.2063,20.475,35.6063,,adl
10.739677,-0.7374,-1.1012,-0.5585,-0.5035,-0.2524,0.0477,-24.2063,20.475,35.6063,,adl
10.758539,-0.7374,-1.1012,-0.5585,-1.0117,0.1324,0.1563,-24.2063,20.475,35.6063,,adl
10.762416,-0.7787,-1.0807,-0.1307,-1.0117,0.1324,0.1563,-24.2063,20.475,35.6063,,adl
10.769015,-0.7787,-1.0807,-0.1307,-1.0117,0.1324,0.1563,-24.2063,20.475,35.6063,,adl
10.777932,-0.6363,-1.0682,0.2215,-1.0117,0.1324,0.1563,-24.2063,20.475,35.6063,,adl
10.797253,0.1658,-1.5403,0.3951,-1.0117,0.1324,0.1563,-24.2063,20.475,35.6063,,adl
10.799103,0.1658,-1.5403,0.3951,-1.0117,0.1324,0.1563,-23.325,18.5813,35.1562,,adl
10.81546,0.1658,-1.5403,0.3951,-1.0117,0.1324,0.1563,-23.325,18.5813,35.1562,,adl
10.816895,0.0935,-1.7981,0.3442,-1.0117,0.1324,0.1563,-23.325,18.5813,35.1562,,adl
10.820088,0.0935,-1.7981,0.3442,-1.2341,0.0102,0.1783,-23.325,18.5813,35.1562,,adl
10.835453,0.1457,-1.9797,0.8711,-1.2341,0.0102,0.1783,-23.325,18.5813,35.1562,,adl
10.854404,0.2149,-2.0306,1.591,-1.2341,0.0102,0.1783,-23.325,18.5813,35.1562,,adl
10.859314,0.2149,-2.0306,1.591,-1.2341,0.0102,0.1783,-23.925,15.7688,37.95,,adl
10.863134,0.2149,-2.0306,1.591,-1.2341,0.0102,0.1783,-23.925,15.7688,37.95,,adl
10.873525,0.1157,-1.7928,1.8831,-1.2341,0.0102,0.1783,-23.925,15.7688,37.95,,adl
10.882402,0.1157,-1.7928,1.8831,-1.2158,-0.0839,0.3616,-23.925,15.7688,37.95,,adl
10.892258,0.1009,-1.3338,1.9902,-1.2158,-0.0839,0.3616,-23.925,15.7688,37.95,,adl
10.911934,0.1009,-1.3338,1.9902,-1.2158,-0.0839,0.3616,-23.925,15.7688,37.95,,adl
10.913293,-0.0708,-0.77,1.9905,-1.2158,-0.0839,0.3616,-23.925,15.7688,37.95,,adl
10.918548,-0.0708,-0.77,1.9905,-1.2158,-0.0839,0.3616,-24.1313,13.2188,39.2812,,adl
10.931285,-0.1431,-0.1701,1.7419,-1.2158,-0.0839,0.3616,-24.1313,13.2188,39.2812,,adl
10.94468,-0.1431,-0.1701,1.7419,-0.903,0.428,0.54,-24.1313,13.2188,39.2812,,adl
10.950126,-0.0226,0.4428,1.4113,-0.903,0.428,0.54,-24.1313,13.2188,39.2812,,adl
10.959001,-0.0226,0.4428,1.4113,-0.903,0.428,0.54,-24.1313,13.2188,39.2812,,adl
10.971106,0.2317,1.0215,1.2758,-0.903,0.428,0.54,-24.1313,13.2188,39.2812,,adl
10.981942,0.2317,1.0215,1.2758,-0.903,0.428,0.54,-24.75,11.775,38.9813,,adl
10.988744,0.6849,1.393,0.874,-0.903,0.428,0.54,-24.75,11.775,38.9813,,adl
11.007502,0.6849,1.393,0.874,-0.903,0.428,0.54,-24.75,11.775,38.9813,,adl
11.010817,0.6849,1.393,0.874,-0.5683,0.5698,0.4069,-24.75,11.775,38.9813,,adl
11.013602,1.0753,1.4148,0.2541,-0.5683,0.5698,0.4069,-24.75,11.775,38.9813,,adl
11.027028,1.3963,1.2433,-0.2214,-0.5683,0.5698,0.4069,-24.75,11.775,38.9813,,adl
11.038493,1.3963,1.2433,-0.2214,-0.5683,0.5698,0.4069,-26.25,10.5,39.4313,,adl
11.046453,1.5917,0.7019,-0.355,-0.5683,0.5698,0.4069,-26.25,10.5,39.4313,,adl
11.054436,1.5917,0.7019,-0.355,-0.5683,0.5698,0.4069,-26.25,10.5,39.4313,,adl
11.064762,1.433,-0.0718,0.0841,-0.5683,0.5698,0.4069,-26.25,10.5,39.4313,,adl
11.068699,1.433,-0.0718,0.0841,-0.9092,0.4916,-0.143,-26.25,10.5,39.4313,,adl
11.084164,0.7788,-0.8293,0.9101,-0.9092,0.4916,-0.143,-26.25,10.5,39.4313,,adl
11.098357,0.7788,-0.8293,0.9101,-0.9092,0.4916,-0.143,-27.7125,8.175,39.2625,,adl
11.102165,0.7788,-0.8293,0.9101,-0.9092,0.4916,-0.143,-27.7125,8.175,39.2625,,adl
11.102835,-0.5483,-0.7039,1.5929,-0.9092,0.4916,-0.143,-27.7125,8.175,39.2625,,adl
11.122652,-0.7217,-0.1092,2.065,-0.9092,0.4916,-0.143,-27.7125,8.175,39.2625,,adl
11.131515,-0.7217,-0.1092,2.065,-0.5268,1.5777,0.529,-27.7125,8.175,39.2625,,adl
11.141472,-0.0985,0.3291,2.0851,-0.5268,1.5777,0.529,-27.7125,8.175,39.2625,,adl
11.149505,-0.0985,0.3291,2.0851,-0.5268,1.5777,0.529,-27.7125,8.175,39.2625,,adl
11.157835,-0.0985,0.3291,2.0851,-0.5268,1.5777,0.529,-30.6,7.8,37.2563,,adl
11.160268,0.5201,0.6618,1.3881,-0.5268,1.5777,0.529,-30.6,7.8,37.2563,,adl
11.179508,1.0509,1.131,0.0045,-0.5268,1.5777,0.529,-30.6,7.8,37.2563,,adl
11.193207,1.0509,1.131,0.0045,0.3871,1.646,0.4984,-30.6,7.8,37.2563,,adl
11.197031,1.0509,1.131,0.0045,0.3871,1.646,0.4984,-30.6,7.8,37.2563,,adl
11.197763,1.5037,1.3491,-1.4673,0.3871,1.646,0.4984,-30.6,7.8,37.2563,,adl
11.218262,1.7561,1.5034,-2.6047,0.3871,1.646,0.4984,-30.6,7.8,37.2563,,adl
11.22277,1.7561,1.5034,-2.6047,0.3871,1.646,0.4984,-33.3563,9.5438,34.2375,,adl
11.23714,1.8981,1.6204,-3.0981,0.3871,1.646,0.4984,-33.3563,9.5438,34.2375,,adl
11.251045,1.8981,1.6204,-3.0981,0.3871,1.646,0.4984,-33.3563,9.5438,34.2375,,adl
11.255175,1.8981,1.6204,-3.0981,-0.4535,1.0035,-0.2113,-33.3563,9.5438,34.2375,,adl
11.256307,1.8909,1.7413,-2.8462,-0.4535,1.0035,-0.2113,-33.3563,9.5438,34.2375,,adl
11.275291,1.6346,1.616,-2.3677,-0.4535,1.0035,-0.2113,-33.3563,9.5438,34.2375,,adl
11.281847,1.6346,1.616,-2.3677,-0.4535,1.0035,-0.2113,-34.875,9.1875,30.75,,adl
11.293136,1.6346,1.616,-2.3677,-0.4535,1.0035,-0.2113,-34.875,9.1875,30.75,,adl
11.294603,1.0176,1.1978,-1.7871,-0.4535,1.0035,-0.2113,-34.875,9.1875,30.75,,adl
11.313608,-0.0181,0.9349,-1.0259,-0.4535,1.0035,-0.2113,-34.875,9.1875,30.75,,adl
11.317627,-0.0181,0.9349,-1.0259,-1.206,0.2375,-0.7513,-34.875,9.1875,30.75,,adl
11.332878,-0.6386,0.8398,-0.0007,-1.206,0.2375,-0.7513,-34.875,9.1875,30.75,,adl
11.338553,-0.6386,0.8398,-0.0007,-1.206,0.2375,-0.7513,-36.9563,5.1,32.2313,,adl
11.341734,-0.6386,0.8398,-0.0007,-1.206,0.2375,-0.7513,-36.9563,5.1,32.2313,,adl
11.351436,-0.7915,1.0073,0.9802,-1.206,0.2375,-0.7513,-36.9563,5.1,32.2313,,adl
11.370089,-0.2975,1.0092,1.5215,-1.206,0.2375,-0.7513,-36.9563,5.1,32.2313,,adl
11.380988,-0.2975,1.0092,1.5215,-0.8554,0.4793,-0.2481,-36.9563,5.1,32.2313,,adl
11.388573,-0.2975,1.0092,1.5215,-0.8554,0.4793,-0.2481,-36.9563,5.1,32.2313,,adl
11.389479,0.196,0.9495,1.2443,-0.8554,0.4793,-0.2481,-36.9563,5.1,32.2313,,adl
11.398125,0.196,0.9495,1.2443,-0.8554,0.4793,-0.2481,-37.8,2.475,30.375,,adl
11.409098,0.4859,0.7842,0.5307,-0.8554,0.4793,-0.2481,-37.8,2.475,30.375,,adl
11.428176,0.5765,0.6819,0.2402,-0.8554,0.4793,-0.2481,-37.8,2.475,30.375,,adl
11.43729,0.5765,0.6819,0.2402,-0.8554,0.4793,-0.2481,-37.8,2.475,30.375,,adl
11.44167,0.5765,0.6819,0.2402,-0.8089,0.8007,-0.2603,-37.8,2.475,30.375,,adl
11.447526,0.6502,0.4929,0.5228,-0.8089,0.8007,-0.2603,-37.8,2.475,30.375,,adl
11.459329,0.6502,0.4929,0.5228,-0.8089,0.8007,-0.2603,-38.2125,0.7875,30.5813,,adl
11.466164,0.5426,0.4648,0.871,-0.8089,0.8007,-0.2603,-38.2125,0.7875,30.5813,,adl
11.483996,0.5426,0.4648,0.871,-0.8089,0.8007,-0.2603,-38.2125,0.7875,30.5813,,adl
11.48527,0.1841,0.5831,1.107,-0.8089,0.8007,-0.2603,-38.2125,0.7875,30.5813,,adl
11.50379,0.1841,0.5831,1.107,-0.8847,1.4189,-0.4227,-38.2125,0.7875,30.5813,,adl
11.507758,-0.2418,0.7246,1.1112,-0.8847,1.4189,-0.4227,-38.2125,0.7875,30.5813,,adl
11.519022,-0.2418,0.7246,1.1112,-0.8847,1.4189,-0.4227,-41.6813,-1.575,27.0188,,adl
11.525412,0.0159,0.0377,0.9802,-0.8847,1.4189,-0.4227,-41.6813,-1.575,27.0188,,adl
11.532425,0.0159,0.0377,0.9802,-0.8847,1.4189,-0.4227,-41.6813,-1.575,27.0188,,adl
11.542493,-0.1225,-0.5965,0.987,-0.8847,1.4189,-0.4227,-41.6813,-1.575,27.0188,,adl
11.562335,0.2057,-1.4939,1.6023,-0.8847,1.4189,-0.4227,-41.6813,-1.575,27.0188,,adl
11.567764,0.2057,-1.4939,1.6023,-1.0277,1.1989,-0.3971,-41.6813,-1.575,27.0188,,adl
11.577891,0.2057,-1.4939,1.6023,-1.0277,1.1989,-0.3971,-43.2,-3.9,23.3063,,adl
11.579577,0.2057,-1.4939,1.6023,-1.0277,1.1989,-0.3971,-43.2,-3.9,23.3063,,adl
11.580316,0.5388,-2.0952,2.3359,-1.0277,1.1989,-0.3971,-43.2,-3.9,23.3063,,adl
11.599611,0.5893,-2.0982,2.9425,-1.0277,1.1989,-0.3971,-43.2,-3.9,23.3063,,adl
11.619475,0.3473,-1.4966,3.2964,-1.0277,1.1989,-0.3971,-43.2,-3.9,23.3063,,adl
11.627906,0.3473,-1.4966,3.2964,-1.0277,1.1989,-0.3971,-43.2,-3.9,23.3063,,adl
11.629192,0.3473,-1.4966,3.2964,-0.6856,0.505,0.022,-43.2,-3.9,23.3063,,adl
11.639002,0.2953,-0.6088,3.4668,-0.6856,0.505,0.022,-43.2,-3.9,23.3063,,adl
11.640785,0.2953,-0.6088,3.4668,-0.6856,0.505,0.022,-44.3813,-5.2125,21.15,,adl
11.657772,0.5007,-0.0431,3.3861,-0.6856,0.505,0.022,-44.3813,-5.2125,21.15,,adl
11.676749,0.5007,-0.0431,3.3861,-0.6856,0.505,0.022,-44.3813,-5.2125,21.15,,adl
11.679563,0.8671,0.2968,3.1146,-0.6856,0.505,0.022,-44.3813,-5.2125,21.15,,adl
11.690321,0.8671,0.2968,3.1146,0.265,1.062,0.1673,-44.3813,-5.2125,21.15,,adl
11.69564,1.1533,0.5194,1.7454,0.265,1.062,0.1673,-44.3813,-5.2125,21.15,,adl
11.698453,1.1533,0.5194,1.7454,0.265,1.062,0.1673,-45.6375,-4.95,19.0125,,adl
11.715912,1.6769,0.8446,0.5096,0.265,1.062,0.1673,-45.6375,-4.95,19.0125,,adl
11.724934,1.6769,0.8446,0.5096,0.265,1.062,0.1673,-45.6375,-4.95,19.0125,,adl
11.734351,2.0737,1.4335,-1.0057,0.265,1.062,0.1673,-45.6375,-4.95,19.0125,,adl
11.752879,2.0737,1.4335,-1.0057,0.6266,1.2013,-0.0159,-45.6375,-4.95,19.0125,,adl
11.754777,2.4565,1.6138,-2.3512,0.6266,1.2013,-0.0159,-45.6375,-4.95,19.0125,,adl
11.758094,2.4565,1.6138,-2.3512,0.6266,1.2013,-0.0159,-44.8688,-3.7313,14.5313,,adl
11.771338,2.4565,1.6138,-2.3512,0.6266,1.2013,-0.0159,-44.8688,-3.7313,14.5313,,adl
11.772733,2.6393,1.3103,-3.0933,0.6266,1.2013,-0.0159,-44.8688,-3.7313,14.5313,,adl
11.791748,2.7722,0.4831,-2.9847,0.6266,1.2013,-0.0159,-44.8688,-3.7313,14.5313,,adl
11.810891,2.834,-0.5758,-2.2659,0.6266,1.2013,-0.0159,-44.8688,-3.7313,14.5313,,adl
11.815095,2.834,-0.5758,-2.2659,-0.2934,0.5734,-0.8698,-44.8688,-3.7313,14.5313,,adl
11.819077,2.834,-0.5758,-2.2659,-0.2934,0.5734,-0.8698,-46.8,-5.625,12.3938,,adl
11.821372,2.834,-0.5758,-2.2659,-0.2934,0.5734,-0.8698,-46.8,-5.625,12.3938,,adl
11.829879,2.4023,-1.2282,-1.3906,-0.2934,0.5734,-0.8698,-46.8,-5.625,12.3938,,adl
11.848948,1.5305,-1.5448,-0.9413,-0.2934,0.5734,-0.8698,-46.8,-5.625,12.3938,,adl
11.86748,1.5305,-1.5448,-0.9413,-0.2934,0.5734,-0.8698,-46.8,-5.625,12.3938,,adl
11.870736,0.6267,-1.6967,-0.5185,-0.2934,0.5734,-0.8698,-46.8,-5.625,12.3938,,adl
11.876816,0.6267,-1.6967,-0.5185,-0.6513,0.8104,-1.2609,-46.8,-5.625,12.3938,,adl
11.878264,0.6267,-1.6967,-0.5185,-0.6513,0.8104,-1.2609,-46.4813,-8.5312,11.1188,,adl
11.886692,0.0157,-1.7774,0.2541,-0.6513,0.8104,-1.2609,-46.4813,-8.5312,11.1188,,adl
11.906985,-0.1578,-1.8311,0.9683,-0.6513,0.8104,-1.2609,-46.4813,-8.5312,11.1188,,adl
11.91538,-0.1578,-1.8311,0.9683,-0.6513,0.8104,-1.2609,-46.4813,-8.5312,11.1188,,adl
11.925305,-0.2332,-1.8272,0.774,-0.6513,0.8104,-1.2609,-46.4813,-8.5312,11.1188,,adl
11.938253,-0.2332,-1.8272,0.774,-0.6513,0.8104,-1.2609,-46.2,-11.9062,7.5375,,adl
11.940061,-0.2332,-1.8272,0.774,-0.0711,1.0498,-1.1351,-46.2,-11.9062,7.5375,,adl
11.944324,-0.3831,-1.72,-0.2875,-0.0711,1.0498,-1.1351,-46.2,-11.9062,7.5375,,adl
11.962635,-0.3831,-1.72,-0.2875,-0.0711,1.0498,-1.1351,-46.2,-11.9062,7.5375,,adl
11.964405,-0.4513,-1.5915,-1.1352,-0.0711,1.0498,-1.1351,-46.2,-11.9062,7.5375,,adl
11.982897,-0.5781,-1.4735,-1.6551,-0.0711,1.0498,-1.1351,-46.2,-11.9062,7.5375,,adl
11.997837,-0.5781,-1.4735,-1.6551,-0.0711,1.0498,-1.1351,-45.5438,-15.0375,4.9125,,adl
11.999981,-0.5781,-1.4735,-1.6551,-0.2214,0.7994,-1.0458,-45.5438,-15.0375,4.9125,,adl
12.001105,-0.7902,-1.3684,-1.7955,-0.2214,0.7994,-1.0458,-45.5438,-15.0375,4.9125,,adl
12.010525,-0.7902,-1.3684,-1.7955,-0.2214,0.7994,-1.0458,-45.5438,-15.0375,4.9125,,adl
12.020975,-1.0791,-1.0581,-1.7479,-0.2214,0.7994,-1.0458,-45.5438,-15.0375,4.9125,,adl
12.040206,-1.1353,-0.6891,-1.9678,-0.2214,0.7994,-1.0458,-45.5438,-15.0375,4.9125,,adl
12.058676,-1.1353,-0.6891,-1.9678,-0.2214,0.7994,-1.0458,-45.5438,-15.0375,4.9125,,adl
12.060111,-1.1842,-0.464,-2.3211,-0.2214,0.7994,-1.0458,-45.5438,-15.0375,4.9125,,adl
12.061132,-1.1842,-0.464,-2.3211,-0.2214,0.7994,-1.0458,-44.2875,-16.9688,3.1875,,adl
12.063778,-1.1842,-0.464,-2.3211,-0.6526,0.8422,-1.0031,-44.2875,-16.9688,3.1875,,adl
12.078313,-1.2731,-0.4404,-2.1434,-0.6526,0.8422,-1.0031,-44.2875,-16.9688,3.1875,,adl
12.098317,-1.322,-0.5803,-1.4265,-0.6526,0.8422,-1.0031,-44.2875,-16.9688,3.1875,,adl
12.106765,-1.322,-0.5803,-1.4265,-0.6526,0.8422,-1.0031,-44.2875,-16.9688,3.1875,,adl
12.117773,-1.5469,-0.5696,-0.7536,-0.6526,0.8422,-1.0031,-44.2875,-16.9688,3.1875,,adl
12.121802,-1.5469,-0.5696,-0.7536,-0.6526,0.8422,-1.0031,-43.7438,-19.6875,0.15,,adl
12.127236,-1.5469,-0.5696,-0.7536,-1.2195,1.0059,-0.9713,-43.7438,-19.6875,0.15,,adl
12.135684,-1.6942,-0.3993,-0.5644,-1.2195,1.0059,-0.9713,-43.7438,-19.6875,0.15,,adl
12.1545,-1.6942,-0.3993,-0.5644,-1.2195,1.0059,-0.9713,-43.7438,-19.6875,0.15,,adl
12.157688,-1.6781,-0.4889,-0.599,-1.2195,1.0059,-0.9713,-43.7438,-19.6875,0.15,,adl
12.174922,-1.7039,-0.6381,-0.3855,-1.2195,1.0059,-0.9713,-43.7438,-19.6875,0.15,,adl
12.181784,-1.7039,-0.6381,-0.3855,-1.2195,1.0059,-0.9713,-42.3375,-21.825,-4.5938,,adl
12.187237,-1.7039,-0.6381,-0.3855,-1.5066,0.8997,-0.8063,-42.3375,-21.825,-4.5938,,adl
12.192977,-1.7411,-0.8506,0.1078,-1.5066,0.8997,-0.8063,-42.3375,-21.825,-4.5938,,adl
12.201886,-1.7411,-0.8506,0.1078,-1.5066,0.8997,-0.8063,-42.3375,-21.825,-4.5938,,adl
12.212375,-1.7062,-1.1113,0.7374,-1.5066,0.8997,-0.8063,-42.3375,-21.825,-4.5938,,adl
12.231384,-1.7234,-1.1221,1.3682,-1.5066,0.8997,-0.8063,-42.3375,-21.825,-4.5938,,adl
12.237739,-1.7234,-1.1221,1.3682,-1.5066,0.8997,-0.8063,-39.7125,-22.5,-9.75,,adl
12.249963,-1.7234,-1.1221,1.3682,-1.5066,0.8997,-0.8063,-39.7125,-22.5,-9.75,,adl
12.25184,-1.7234,-1.1221,1.3682,-1.4088,0.213,-0.358,-39.7125,-22.5,-9.75,,adl
12.252635,-1.5941,-1.1125,1.6682,-1.4088,0.213,-0.358,-39.7125,-22.5,-9.75,,adl
12.270045,-1.4816,-0.9958,1.7295,-1.4088,0.213,-0.358,-39.7125,-22.5,-9.75,,adl
12.289042,-1.0588,-1.0103,2.0265,-1.4088,0.213,-0.358,-39.7125,-22.5,-9.75,,adl
12.297804,-1.0588,-1.0103,2.0265,-1.4088,0.213,-0.358,-39.7125,-22.5,-9.75,,adl
12.299546,-1.0588,-1.0103,2.0265,-1.4088,0.213,-0.358,-40.9688,-22.4062,-10.7625,,adl
12.308169,-0.6442,-0.898,2.0345,-1.4088,0.213,-0.358,-40.9688,-22.4062,-10.7625,,adl
12.311893,-0.6442,-0.898,2.0345,-1.0154,-0.3209,0.0978,-40.9688,-22.4062,-10.7625,,adl
12.326219,-0.0816,-1.0675,1.746,-1.0154,-0.3209,0.0978,-40.9688,-22.4062,-10.7625,,adl
12.346198,-0.0816,-1.0675,1.746,-1.0154,-0.3209,0.0978,-40.9688,-22.4062,-10.7625,,adl
12.349266,0.7954,-1.7136,1.3027,-1.0154,-0.3209,0.0978,-40.9688,-22.4062,-10.7625,,adl
12.359019,0.7954,-1.7136,1.3027,-1.0154,-0.3209,0.0978,-41.3063,-21.4875,-11.2688,,adl
12.365301,0.6809,-1.6438,1.235,-1.0154,-0.3209,0.0978,-41.3063,-21.4875,-11.2688,,adl
12.374686,0.6809,-1.6438,1.235,-1.0924,-0.1096,0.0953,-41.3063,-21.4875,-11.2688,,adl
12.384732,0.6442,-1.577,1.2675,-1.0924,-0.1096,0.0953,-41.3063,-21.4875,-11.2688,,adl
12.393279,0.6442,-1.577,1.2675,-1.0924,-0.1096,0.0953,-41.3063,-21.4875,-11.2688,,adl
12.403158,0.0266,-1.036,1.1254,-1.0924,-0.1096,0.0953,-41.3063,-21.4875,-11.2688,,adl
12.419077,0.0266,-1.036,1.1254,-1.0924,-0.1096,0.0953,-42.1125,-20.2688,-12.9938,,adl
12.422424,-0.4696,-0.416,1.4258,-1.0924,-0.1096,0.0953,-42.1125,-20.2688,-12.9938,,adl
12.436342,-0.4696,-0.416,1.4258,-1.4956,1.0401,0.1063,-42.1125,-20.2688,-12.9938,,adl
12.441189,-0.4696,-0.416,1.4258,-1.4956,1.0401,0.1063,-42.1125,-20.2688,-12.9938,,adl
12.443856,-0.779,0.2077,1.9499,-1.4956,1.0401,0.1063,-42.1125,-20.2688,-12.9938,,adl
12.461334,-0.9535,0.6222,2.0698,-1.4956,1.0401,0.1063,-42.1125,-20.2688,-12.9938,,adl
12.477847,-0.9535,0.6222,2.0698,-1.4956,1.0401,0.1063,-41.1562,-18.975,-17.0625,,adl
12.479553,-0.9738,0.8574,1.8222,-1.4956,1.0401,0.1063,-41.1562,-18.975,-17.0625,,adl
12.48906,-0.9738,0.8574,1.8222,-1.4956,1.0401,0.1063,-41.1562,-18.975,-17.0625,,adl
12.49834,-0.9738,0.8574,1.8222,-1.184,1.3211,0.1918,-41.1562,-18.975,-17.0625,,adl
12.500033,-0.6308,0.9345,1.5547,-1.184,1.3211,0.1918,-41.1562,-18.975,-17.0625,,adl
12.519173,-0.078,1.0061,1.4365,-1.184,1.3211,0.1918,-41.1562,-18.975,-17.0625,,adl
12.537136,-0.078,1.0061,1.4365,-1.184,1.3211,0.1918,-41.1562,-18.975,-17.0625,,adl
12.540198,0.5592,1.0301,1.4236,-1.184,1.3211,0.1918,-41.1562,-18.975,-17.0625,,adl
12.543018,0.5592,1.0301,1.4236,-1.184,1.3211,0.1918,-40.2188,-16.9688,-21.45,,adl
12.556218,1.1036,1.1007,1.5647,-1.184,1.3211,0.1918,-40.2188,-16.9688,-21.45,,adl
12.559975,1.1036,1.1007,1.5647,-0.8139,0.6614,0.1246,-40.2188,-16.9688,-21.45,,adl
12.576206,1.5723,0.9879,1.587,-0.8139,0.6614,0.1246,-40.2188,-16.9688,-21.45,,adl
12.584355,1.5723,0.9879,1.587,-0.8139,0.6614,0.1246,-40.2188,-16.9688,-21.45,,adl
12.595051,1.6266,0.5381,1.3297,-0.8139,0.6614,0.1246,-40.2188,-16.9688,-21.45,,adl
12.6001,1.6266,0.5381,1.3297,-0.8139,0.6614,0.1246,-39.6562,-15.975,-23.325,,adl
12.613718,1.3314,0.1893,0.8879,-0.8139,0.6614,0.1246,-39.6562,-15.975,-23.325,,adl
12.622611,1.3314,0.1893,0.8879,-0.6489,0.6186,-0.4972,-39.6562,-15.975,-23.325,,adl
12.63237,1.3314,0.1893,0.8879,-0.6489,0.6186,-0.4972,-39.6562,-15.975,-23.325,,adl
12.635505,1.0166,-0.1244,0.7489,-0.6489,0.6186,-0.4972,-39.6562,-15.975,-23.325,,adl
12.652217,0.667,-0.1857,0.7763,-0.6489,0.6186,-0.4972,-39.6562,-15.975,-23.325,,adl
12.659321,0.667,-0.1857,0.7763,-0.6489,0.6186,-0.4972,-38.0813,-15.45,-26.4938,,adl
12.670745,0.4528,-0.1897,0.3273,-0.6489,0.6186,-0.4972,-38.0813,-15.45,-26.4938,,adl
12.68187,0.4528,-0.1897,0.3273,-0.6489,0.6186,-0.4972,-38.0813,-15.45,-26.4938,,adl
12.684117,0.4528,-0.1897,0.3273,-0.6073,1.6277,-0.6512,-38.0813,-15.45,-26.4938,,adl
12.692027,0.204,0.008,-0.0386,-0.6073,1.6277,-0.6512,-38.0813,-15.45,-26.4938,,adl
12.710183,-0.1355,0.2136,-0.5376,-0.6073,1.6277,-0.6512,-38.0813,-15.45,-26.4938,,adl
12.719909,-0.1355,0.2136,-0.5376,-0.6073,1.6277,-0.6512,-33.2063,-16.3875,-31.8375,,adl
12.727658,-0.1355,0.2136,-0.5376,-0.6073,1.6277,-0.6512,-33.2063,-16.3875,-31.8375,,adl
12.728998,-0.492,0.3359,-1.1517,-0.6073,1.6277,-0.6512,-33.2063,-16.3875,-31.8375,,adl
12.747105,-0.492,0.3359,-1.1517,-0.6795,1.7047,-0.689,-33.2063,-16.3875,-31.8375,,adl
12.7508,-0.622,0.158,-1.793,-0.6795,1.7047,-0.689,-33.2063,-16.3875,-31.8375,,adl
12.767262,-1.0651,0.1281,-2.0798,-0.6795,1.7047,-0.689,-33.2063,-16.3875,-31.8375,,adl
12.775657,-1.0651,0.1281,-2.0798,-0.6795,1.7047,-0.689,-33.2063,-16.3875,-31.8375,,adl
12.779856,-1.0651,0.1281,-2.0798,-0.6795,1.7047,-0.689,-30.7688,-16.1625,-33.675,,adl
12.786188,-1.4443,0.2143,-1.9209,-0.6795,1.7047,-0.689,-30.7688,-16.1625,-33.675,,adl
12.805542,-1.7547,0.1995,-1.6229,-0.6795,1.7047,-0.689,-30.7688,-16.1625,-33.675,,adl
12.809322,-1.7547,0.1995,-1.6229,-1.3416,1.4224,-0.314,-30.7688,-16.1625,-33.675,,adl
12.823593,-1.7547,0.1995,-1.6229,-1.3416,1.4224,-0.314,-30.7688,-16.1625,-33.675,,adl
12.824995,-1.8287,0.3838,-0.721,-1.3416,1.4224,-0.314,-30.7688,-16.1625,-33.675,,adl
12.840585,-1.8287,0.3838,-0.721,-1.3416,1.4224,-0.314,-26.0063,-16.8563,-36.3938,,adl
12.844195,-1.4196,0.4156,0.4741,-1.3416,1.4224,-0.314,-26.0063,-16.8563,-36.3938,,adl
12.862588,-1.0616,0.6188,1.1011,-1.3416,1.4224,-0.314,-26.0063,-16.8563,-36.3938,,adl
12.871897,-1.0616,0.6188,1.1011,-1.3416,1.4224,-0.314,-26.0063,-16.8563,-36.3938,,adl
12.874974,-1.0616,0.6188,1.1011,-1.0057,0.5844,0.4459,-26.0063,-16.8563,-36.3938,,adl
12.881519,-0.5551,0.7062,0.9426,-1.0057,0.5844,0.4459,-26.0063,-16.8563,-36.3938,,adl
12.898429,-0.5551,0.7062,0.9426,-1.0057,0.5844,0.4459,-23.8688,-13.725,-38.7188,,adl
12.901016,-0.0407,0.7482,0.5002,-1.0057,0.5844,0.4459,-23.8688,-13.725,-38.7188,,adl
12.919448,-0.0407,0.7482,0.5002,-1.0057,0.5844,0.4459,-23.8688,-13.725,-38.7188,,adl
12.920863,0.6522,0.7439,0.2034,-1.0057,0.5844,0.4459,-23.8688,-13.725,-38.7188,,adl
12.933572,0.6522,0.7439,0.2034,-0.7246,0.3901,0.8258,-23.8688,-13.725,-38.7188,,adl
12.938974,1.2612,0.8418,0.1989,-0.7246,0.3901,0.8258,-23.8688,-13.725,-38.7188,,adl
12.958713,1.8185,0.9085,0.3203,-0.7246,0.3901,0.8258,-23.8688,-13.725,-38.7188,,adl
12.962459,1.8185,0.9085,0.3203,-0.7246,0.3901,0.8258,-23.6063,-10.425,-39.3188,,adl
12.966209,1.8185,0.9085,0.3203,-0.7246,0.3901,0.8258,-23.6063,-10.425,-39.3188,,adl
12.976848,2.1886,0.9282,0.3915,-0.7246,0.3901,0.8258,-23.6063,-10.425,-39.3188,,adl
12.995451,2.1886,0.9282,0.3915,-0.8419,0.6198,0.6133,-23.6063,-10.425,-39.3188,,adl
12.997125,2.296,0.9842,0.5939,-0.8419,0.6198,0.6133,-23.6063,-10.425,-39.3188,,adl
13.015024,2.296,0.9842,0.5939,-0.8419,0.6198,0.6133,-23.6063,-10.425,-39.3188,,adl
13.018216,2.2274,1.0502,0.9044,-0.8419,0.6198,0.6133,-23.6063,-10.425,-39.3188,,adl
13.020419,2.2274,1.0502,0.9044,-0.8419,0.6198,0.6133,-22.65,-7.5188,-40.4813,,adl
13.034953,1.9462,1.1733,1.4198,-0.8419,0.6198,0.6133,-22.65,-7.5188,-40.4813,,adl
13.053837,1.8501,1.25,1.7825,-0.8419,0.6198,0.6133,-22.65,-7.5188,-40.4813,,adl
13.057881,1.8501,1.25,1.7825,-0.6698,0.7542,0.4104,-22.65,-7.5188,-40.4813,,adl
13.062269,1.8501,1.25,1.7825,-0.6698,0.7542,0.4104,-22.65,-7.5188,-40.4813,,adl
13.07247,2.2912,0.8044,1.5915,-0.6698,0.7542,0.4104,-22.65,-7.5188,-40.4813,,adl
13.078239,2.2912,0.8044,1.5915,-0.6698,0.7542,0.4104,-20.2313,-4.7812,-41.0438,,adl
13.092286,2.2981,0.5889,1.3612,-0.6698,0.7542,0.4104,-20.2313,-4.7812,-41.0438,,adl
13.111085,2.2981,0.5889,1.3612,-0.6698,0.7542,0.4104,-20.2313,-4.7812,-41.0438,,adl
13.114182,2.9114,0.2017,1.4187,-0.6698,0.7542,0.4104,-20.2313,-4.7812,-41.0438,,adl
13.119144,2.9114,0.2017,1.4187,-0.4034,0.2925,0.3457,-20.2313,-4.7812,-41.0438,,adl
13.130186,3.4935,-0.0779,1.6114,-0.4034,0.2925,0.3457,-20.2313,-4.7812,-41.0438,,adl
13.139084,3.4935,-0.0779,1.6114,-0.4034,0.2925,0.3457,-20.0813,-3.225,-42.3938,,adl
13.148973,3.5518,-0.1596,1.6476,-0.4034,0.2925,0.3457,-20.0813,-3.225,-42.3938,,adl
13.159389,3.5518,-0.1596,1.6476,-0.4034,0.2925,0.3457,-20.0813,-3.225,-42.3938,,adl
13.168522,3.3835,0.2543,1.8249,-0.4034,0.2925,0.3457,-20.0813,-3.225,-42.3938,,adl
13.182393,3.3835,0.2543,1.8249,-0.319,0.1642,0.0855,-20.0813,-3.225,-42.3938,,adl
13.18794,3.2228,0.7997,2.202,-0.319,0.1642,0.0855,-20.0813,-3.225,-42.3938,,adl
13.198141,3.2228,0.7997,2.202,-0.319,0.1642,0.0855,-19.1813,-1.7625,-42.5063,,adl
13.206181,3.2228,0.7997,2.202,-0.319,0.1642,0.0855,-19.1813,-1.7625,-42.5063,,adl
13.207573,3.2221,1.1528,2.4642,-0.319,0.1642,0.0855,-19.1813,-1.7625,-42.5063,,adl
13.225912,3.0818,1.2855,2.465,-0.319,0.1642,0.0855,-19.1813,-1.7625,-42.5063,,adl
13.244557,3.0818,1.2855,2.465,0.3528,0.4744,-0.4289,-19.1813,-1.7625,-42.5063,,adl
13.248156,1.9644,1.3937,1.6585,0.3528,0.4744,-0.4289,-19.1813,-1.7625,-42.5063,,adl
13.253743,1.9644,1.3937,1.6585,0.3528,0.4744,-0.4289,-19.1813,-1.7625,-42.5063,,adl
13.26042,1.9644,1.3937,1.6585,0.3528,0.4744,-0.4289,-19.1438,-2.4375,-42.825,,adl
13.263456,1.075,1.3929,1.2754,0.3528,0.4744,-0.4289,-19.1438,-2.4375,-42.825,,adl
13.282893,1.2528,0.7749,1.6711,0.3528,0.4744,-0.4289,-19.1438,-2.4375,-42.825,,adl
13.302211,1.2528,0.7749,1.6711,0.3528,0.4744,-0.4289,-19.1438,-2.4375,-42.825,,adl
13.305167,2.1262,0.184,1.1677,0.3528,0.4744,-0.4289,-19.1438,-2.4375,-42.825,,adl
13.307858,2.1262,0.184,1.1677,0.9662,-0.2219,-0.3824,-19.1438,-2.4375,-42.825,,adl
13.318886,2.1262,0.184,1.1677,0.9662,-0.2219,-0.3824,-18.6562,-4.725,-42.8625,,adl
13.321956,2.753,-0.0292,-0.3938,0.9662,-0.2219,-0.3824,-18.6562,-4.725,-42.8625,,adl
13.340564,2.5849,0.0011,-1.5643,0.9662,-0.2219,-0.3824,-18.6562,-4.725,-42.8625,,adl
13.350552,2.5849,0.0011,-1.5643,0.9662,-0.2219,-0.3824,-18.6562,-4.725,-42.8625,,adl
13.36119,2.4688,-0.491,-1.3967,0.9662,-0.2219,-0.3824,-18.6562,-4.725,-42.8625,,adl
13.36908,2.4688,-0.491,-1.3967,0.0254,0.1422,-1.3744,-18.6562,-4.725,-42.8625,,adl
13.378488,1.694,-0.9986,-0.2807,0.0254,0.1422,-1.3744,-18.6562,-4.725,-42.8625,,adl
13.380284,1.694,-0.9986,-0.2807,0.0254,0.1422,-1.3744,-19.3313,-7.1625,-43.3875,,adl
13.397596,1.694,-0.9986,-0.2807,0.0254,0.1422,-1.3744,-19.3313,-7.1625,-43.3875,,adl
13.400552,0.5044,-1.4288,0.7891,0.0254,0.1422,-1.3744,-19.3313,-7.1625,-43.3875,,adl
13.417261,-0.7432,-1.7836,1.1763,0.0254,0.1422,-1.3744,-19.3313,-7.1625,-43.3875,,adl
13.43105,-0.7432,-1.7836,1.1763,-0.1199,1.0816,-1.7728,-19.3313,-7.1625,-43.3875,,adl
13.438441,-1.8131,-1.8626,1.3192,-0.1199,1.0816,-1.7728,-19.3313,-7.1625,-43.3875,,adl
13.439977,-1.8131,-1.8626,1.3192,-0.1199,1.0816,-1.7728,-16.3313,-8.25,-45.0375,,adl
13.445111,-1.8131,-1.8626,1.3192,-0.1199,1.0816,-1.7728,-16.3313,-8.25,-45.0375,,adl
13.455169,-2.4601,-1.7743,1.2649,-0.1199,1.0816,-1.7728,-16.3313,-8.25,-45.0375,,adl
13.474341,-2.6193,-1.6325,0.8477,-0.1199,1.0816,-1.7728,-16.3313,-8.25,-45.0375,,adl
13.492743,-2.6193,-1.6325,0.8477,-0.1199,1.0816,-1.7728,-16.3313,-8.25,-45.0375,,adl
13.495926,-2.6193,-1.6325,0.8477,0.4151,0.6491,-1.1253,-16.3313,-8.25,-45.0375,,adl
13.498662,-2.6712,-1.5414,0.3441,0.4151,0.6491,-1.1253,-16.3313,-8.25,-45.0375,,adl
13.500933,-2.6712,-1.5414,0.3441,0.4151,0.6491,-1.1253,-13.125,-10.575,-45.7688,,adl
13.51238,-2.7929,-1.461,-0.1213,0.4151,0.6491,-1.1253,-13.125,-10.575,-45.7688,,adl
13.531864,-3.0239,-1.5023,-0.8768,0.4151,0.6491,-1.1253,-13.125,-10.575,-45.7688,,adl
13.541052,-3.0239,-1.5023,-0.8768,0.4151,0.6491,-1.1253,-13.125,-10.575,-45.7688,,adl
13.550802,-3.1958,-1.3499,-1.2027,0.4151,0.6491,-1.1253,-13.125,-10.575,-45.7688,,adl
13.55541,-3.1958,-1.3499,-1.2027,0.4383,0.1018,-0.5279,-13.125,-10.575,-45.7688,,adl
13.559869,-3.1958,-1.3499,-1.2027,0.4383,0.1018,-0.5279,-11.5875,-12.2438,-45.4125,,adl
13.569924,-3.2648,-1.1789,-1.407,0.4383,0.1018,-0.5279,-11.5875,-12.2438,-45.4125,,adl
13.588583,-3.2648,-1.1789,-1.407,0.4383,0.1018,-0.5279,-11.5875,-12.2438,-45.4125,,adl
13.591721,-3.0186,-0.9324,-1.3313,0.4383,0.1018,-0.5279,-11.5875,-12.2438,-45.4125,,adl
13.608562,-2.2843,-0.9247,-1.0966,0.4383,0.1018,-0.5279,-11.5875,-12.2438,-45.4125,,adl
13.616946,-2.2843,-0.9247,-1.0966,0.1818,-0.338,0.1331,-11.5875,-12.2438,-45.4125,,adl
13.61868,-2.2843,-0.9247,-1.0966,0.1818,-0.338,0.1331,-11.7375,-13.35,-44.8875,,adl
13.627826,-1.7802,-0.8664,-1.0876,0.1818,-0.338,0.1331,-11.7375,-13.35,-44.8875,,adl
13.637341,-1.7802,-0.8664,-1.0876,0.1818,-0.338,0.1331,-11.7375,-13.35,-44.8875,,adl
13.649177,-1.4287,-0.9074,-1.2547,0.1818,-0.338,0.1331,-11.7375,-13.35,-44.8875,,adl
13.665829,-1.0583,-0.9942,-1.2847,0.1818,-0.338,0.1331,-11.7375,-13.35,-44.8875,,adl
13.678924,-1.0583,-0.9942,-1.2847,0.1818,-0.338,0.1331,-13.3875,-13.6313,-44.2313,,adl
13.6826,-1.0583,-0.9942,-1.2847,-0.1126,-0.5066,0.3554,-13.3875,-13.6313,-44.2313,,adl
13.684225,-1.0583,-0.9942,-1.2847,-0.1126,-0.5066,0.3554,-13.3875,-13.6313,-44.2313,,adl
13.685377,-0.7951,-1.0494,-0.8855,-0.1126,-0.5066,0.3554,-13.3875,-13.6313,-44.2313,,adl
13.704117,-0.5342,-1.0806,-0.3542,-0.1126,-0.5066,0.3554,-13.3875,-13.6313,-44.2313,,adl
13.723833,0.0313,-1.3394,-0.1661,-0.1126,-0.5066,0.3554,-13.3875,-13.6313,-44.2313,,adl
13.732031,0.0313,-1.3394,-0.1661,-0.1126,-0.5066,0.3554,-13.3875,-13.6313,-44.2313,,adl
13.739251,0.0313,-1.3394,-0.1661,-0.1126,-0.5066,0.3554,-14.9813,-12.9,-43.9688,,adl
13.743244,0.0313,-1.3394,-0.1661,-0.3032,-0.7473,0.3444,-14.9813,-12.9,-43.9688,,adl
13.745548,1.0081,-2.2397,-0.3107,-0.3032,-0.7473,0.3444,-14.9813,-12.9,-43.9688,,adl
13.761542,1.5483,-3.0137,-0.3234,-0.3032,-0.7473,0.3444,-14.9813,-12.9,-43.9688,,adl
13.779912,1.5483,-3.0137,-0.3234,-0.3032,-0.7473,0.3444,-14.9813,-12.9,-43.9688,,adl
13.783364,1.3216,-3.2492,0.2156,-0.3032,-0.7473,0.3444,-14.9813,-12.9,-43.9688,,adl
13.798818,1.3216,-3.2492,0.2156,-0.3032,-0.7473,0.3444,-17.6063,-10.725,-44.3813,,adl
13.801878,0.2832,-2.6456,1.5589,-0.3032,-0.7473,0.3444,-17.6063,-10.725,-44.3813,,adl
13.803466,0.2832,-2.6456,1.5589,-1.0289,-0.0496,0.1611,-17.6063,-10.725,-44.3813,,adl
13.818973,-0.6278,-1.3854,2.9818,-1.0289,-0.0496,0.1611,-17.6063,-10.725,-44.3813,,adl
13.827375,-0.6278,-1.3854,2.9818,-1.0289,-0.0496,0.1611,-17.6063,-10.725,-44.3813,,adl
13.839036,-1.0335,0.2431,3.9548,-1.0289,-0.0496,0.1611,-17.6063,-10.725,-44.3813,,adl
13.857406,-0.5287,1.1774,3.0096,-1.0289,-0.0496,0.1611,-17.6063,-10.725,-44.3813,,adl
13.859302,-0.5287,1.1774,3.0096,-1.0289,-0.0496,0.1611,-17.475,-9.0,-45.1125,,adl
13.865369,-0.5287,1.1774,3.0096,0.3223,0.5478,0.3957,-17.475,-9.0,-45.1125,,adl
13.875796,-0.5287,1.1774,3.0096,0.3223,0.5478,0.3957,-17.475,-9.0,-45.1125,,adl
13.878356,-0.2158,1.4399,1.105,0.3223,0.5478,0.3957,-17.475,-9.0,-45.1125,,adl
13.895443,0.1559,1.4123,-0.6913,0.3223,0.5478,0.3957,-17.475,-9.0,-45.1125,,adl
