time,ax,ay,az,wx,wy,wz,Bx,By,Bz,Unnamed: 10,label
0.018208,0.0,0.0,0.0,0.2557,-0.2115,-0.0314,0.0,0.0,0.0,,adl
0.038251,0.0,0.0,0.0,0.2557,-0.2115,-0.0314,0.0,0.0,0.0,,adl
0.059519,0.0,0.0,0.0,0.2557,-0.2115,-0.0314,-36.72,3.96,-12.36,,adl
0.060158,0.0,0.0,0.0,0.2557,-0.2115,-0.0314,-36.72,3.96,-12.36,,adl
0.075147,0.0,0.0,0.0,0.2557,-0.2115,-0.0314,-36.72,3.96,-12.36,,adl
0.079254,0.0,0.0,0.0,-0.2519,-0.5902,0.0352,-36.72,3.96,-12.36,,adl
0.099741,0.0,0.0,0.0,-0.1582,-0.7979,0.0224,-36.72,3.96,-12.36,,adl
0.120901,0.0,0.0,0.0,-0.1582,-0.7979,0.0224,-33.06,-16.32,-7.26,,adl
0.121476,0.0,0.0,0.0,0.0383,-0.2706,-0.0064,-33.06,-16.32,-7.26,,adl
0.136763,0.0,0.0,0.0,0.0383,-0.2706,-0.0064,-33.06,-16.32,-7.26,,adl
0.137308,-0.0044,0.0144,-0.41,0.0383,-0.2706,-0.0064,-33.06,-16.32,-7.26,,adl
0.14094,-0.0044,0.0144,-0.41,0.1087,0.1822,-0.0229,-33.06,-16.32,-7.26,,adl
0.161191,-0.0044,0.0144,-0.41,0.0554,0.3356,-0.0005,-33.06,-16.32,-7.26,,adl
0.182634,-0.0044,0.0144,-0.41,0.0554,0.3356,-0.0005,-31.5,-25.68,-4.38,,adl
0.183469,-0.0044,0.0144,-0.41,-0.0261,0.2269,0.025,-31.5,-25.68,-4.38,,adl
0.198747,-0.0044,0.0144,-0.41,-0.0261,0.2269,0.025,-31.5,-25.68,-4.38,,adl
0.199387,-0.1249,0.2306,0.685,-0.0261,0.2269,0.025,-31.5,-25.68,-4.38,,adl
0.20258,-0.1249,0.2306,0.685,-0.0352,-0.0107,0.0101,-31.5,-25.68,-4.38,,adl
0.223239,-0.1249,0.2306,0.685,-0.0154,-0.2077,-0.0107,-31.5,-25.68,-4.38,,adl
0.244616,-0.1249,0.2306,0.685,-0.0154,-0.2077,-0.0107,-29.52,-35.04,-1.68,,adl
0.245209,-0.1249,0.2306,0.685,0.0048,-0.2376,-0.0149,-29.52,-35.04,-1.68,,adl
0.260082,-0.1249,0.2306,0.685,0.0048,-0.2376,-0.0149,-29.52,-35.04,-1.68,,adl
0.260722,0.1112,-0.0003,-0.1455,0.0048,-0.2376,-0.0149,-29.52,-35.04,-1.68,,adl
0.264647,0.1112,-0.0003,-0.1455,0.0,-0.0357,-0.0021,-29.52,-35.04,-1.68,,adl
0.284886,0.1112,-0.0003,-0.1455,-0.0091,0.2072,0.0005,-29.52,-35.04,-1.68,,adl
0.30633,0.1112,-0.0003,-0.1455,-0.0091,0.2072,0.0005,-28.92,-34.5,-1.62,,adl
0.307039,0.1112,-0.0003,-0.1455,0.0133,0.2253,-0.0027,-28.92,-34.5,-1.62,,adl
0.321902,0.1112,-0.0003,-0.1455,0.0133,0.2253,-0.0027,-28.92,-34.5,-1.62,,adl
0.322545,-0.1467,0.0212,0.4433,0.0133,0.2253,-0.0027,-28.92,-34.5,-1.62,,adl
0.325714,-0.1467,0.0212,0.4433,0.0272,-0.0213,-0.0053,-28.92,-34.5,-1.62,,adl
0.346073,-0.1467,0.0212,0.4433,-0.0069,-0.1939,0.0011,-28.92,-34.5,-1.62,,adl
0.367419,-0.1467,0.0212,0.4433,-0.0069,-0.1939,0.0011,-29.22,-34.8,-1.26,,adl
0.368042,-0.1467,0.0212,0.4433,-0.0298,-0.1268,0.0075,-29.22,-34.8,-1.26,,adl
0.383299,-0.1467,0.0212,0.4433,-0.0298,-0.1268,0.0075,-29.22,-34.8,-1.26,,adl
0.383856,0.1243,0.0397,0.0863,-0.0298,-0.1268,0.0075,-29.22,-34.8,-1.26,,adl
0.387457,0.1243,0.0397,0.0863,-0.0059,0.0623,0.0053,-29.22,-34.8,-1.26,,adl
0.407919,0.1243,0.0397,0.0863,0.025,0.1326,-0.0043,-29.22,-34.8,-1.26,,adl
0.429167,0.1243,0.0397,0.0863,0.025,0.1326,-0.0043,-29.34,-34.86,-1.5,,adl
0.429735,0.1243,0.0397,0.0863,0.0186,0.0447,-0.008,-29.34,-34.86,-1.5,,adl
0.445211,0.1243,0.0397,0.0863,0.0186,0.0447,-0.008,-29.34,-34.86,-1.5,,adl
0.445774,-0.1115,-0.0468,0.1344,0.0186,0.0447,-0.008,-29.34,-34.86,-1.5,,adl
0.44889,-0.1115,-0.0468,0.1344,-0.008,-0.057,-0.0011,-29.34,-34.86,-1.5,,adl
0.469174,-0.1115,-0.0468,0.1344,-0.0293,-0.0623,0.0107,-29.34,-34.86,-1.5,,adl
0.490592,-0.1115,-0.0468,0.1344,-0.0293,-0.0623,0.0107,-29.16,-34.62,-1.44,,adl
0.491214,-0.1115,-0.0468,0.1344,-0.0149,-0.0154,0.0123,-29.16,-34.62,-1.44,,adl
0.506346,-0.1115,-0.0468,0.1344,-0.0149,-0.0154,0.0123,-29.16,-34.62,-1.44,,adl
0.507032,0.0532,0.0586,0.2491,-0.0149,-0.0154,0.0123,-29.16,-34.62,-1.44,,adl
0.510414,0.0532,0.0586,0.2491,0.0154,0.0229,0.0064,-29.16,-34.62,-1.44,,adl
0.532034,0.0532,0.0586,0.2491,0.0186,0.0346,-0.0075,-29.16,-34.62,-1.44,,adl
0.553317,0.0532,0.0586,0.2491,0.0186,0.0346,-0.0075,-29.58,-34.92,-1.92,,adl
0.554369,0.0532,0.0586,0.2491,-0.0021,0.0197,-0.0123,-29.58,-34.92,-1.92,,adl
0.567975,0.0532,0.0586,0.2491,-0.0021,0.0197,-0.0123,-29.58,-34.92,-1.92,,adl
0.568817,0.011,-0.003,0.1343,-0.0021,0.0197,-0.0123,-29.58,-34.92,-1.92,,adl
0.571718,0.011,-0.003,0.1343,-0.0107,-0.0037,-0.0096,-29.58,-34.92,-1.92,,adl
0.592761,0.011,-0.003,0.1343,-0.0043,-0.0298,-0.0021,-29.58,-34.92,-1.92,,adl
0.613776,0.011,-0.003,0.1343,-0.0043,-0.0298,-0.0021,-29.82,-34.8,-1.8,,adl
0.614713,0.011,-0.003,0.1343,0.0037,-0.033,0.0,-29.82,-34.8,-1.8,,adl
0.629887,0.011,-0.003,0.1343,0.0037,-0.033,0.0,-29.82,-34.8,-1.8,,adl
0.631055,-0.0167,-0.0222,0.1677,0.0037,-0.033,0.0,-29.82,-34.8,-1.8,,adl
0.633866,-0.0167,-0.0222,0.1677,0.0096,0.0027,0.0,-29.82,-34.8,-1.8,,adl
0.654202,-0.0167,-0.0222,0.1677,0.0059,0.0415,0.0016,-29.82,-34.8,-1.8,,adl
0.675196,-0.0167,-0.0222,0.1677,0.0059,0.0415,0.0016,-29.46,-34.74,-1.56,,adl
0.676074,-0.0167,-0.0222,0.1677,0.0016,0.0298,0.0037,-29.46,-34.74,-1.56,,adl
0.691368,-0.0167,-0.0222,0.1677,0.0016,0.0298,0.0037,-29.46,-34.74,-1.56,,adl
0.692307,0.0266,-0.0111,0.1654,0.0016,0.0298,0.0037,-29.46,-34.74,-1.56,,adl
0.695492,0.0266,-0.0111,0.1654,-0.0011,-0.008,0.0069,-29.46,-34.74,-1.56,,adl
0.71579,0.0266,-0.0111,0.1654,-0.0032,-0.032,0.0027,-29.46,-34.74,-1.56,,adl
0.737375,0.0266,-0.0111,0.1654,-0.0032,-0.032,0.0027,-29.82,-34.86,-1.98,,adl
0.738401,0.0266,-0.0111,0.1654,0.0037,-0.0202,-0.0021,-29.82,-34.86,-1.98,,adl
0.753101,0.0266,-0.0111,0.1654,0.0037,-0.0202,-0.0021,-29.82,-34.86,-1.98,,adl
0.754211,-0.0238,0.0081,0.1653,0.0037,-0.0202,-0.0021,-29.82,-34.86,-1.98,,adl
0.757343,-0.0238,0.0081,0.1653,0.0048,0.0149,-0.0005,-29.82,-34.86,-1.98,,adl
0.777538,-0.0238,0.0081,0.1653,0.0037,0.0218,0.0016,-29.82,-34.86,-1.98,,adl
0.798666,-0.0238,0.0081,0.1653,0.0037,0.0218,0.0016,-29.58,-34.92,-1.62,,adl
0.799325,-0.0238,0.0081,0.1653,-0.0011,0.0043,0.0021,-29.58,-34.92,-1.62,,adl
0.815857,-0.0238,0.0081,0.1653,-0.0011,0.0043,0.0021,-29.58,-34.92,-1.62,,adl
0.816883,-0.0011,0.0516,0.1965,-0.0011,0.0043,0.0021,-29.58,-34.92,-1.62,,adl
0.818819,-0.0011,0.0516,0.1965,-0.0021,-0.0123,0.0016,-29.58,-34.92,-1.62,,adl
0.839373,-0.0011,0.0516,0.1965,0.0037,-0.016,-0.0037,-29.58,-34.92,-1.62,,adl
0.860745,-0.0011,0.0516,0.1965,0.0037,-0.016,-0.0037,-29.82,-35.16,-1.74,,adl
0.861798,-0.0011,0.0516,0.1965,0.0043,-0.0053,-0.0053,-29.82,-35.16,-1.74,,adl
0.876194,-0.0011,0.0516,0.1965,0.0043,-0.0053,-0.0053,-29.82,-35.16,-1.74,,adl
0.877362,0.0465,-0.0238,0.1342,0.0043,-0.0053,-0.0053,-29.82,-35.16,-1.74,,adl
0.879894,0.0465,-0.0238,0.1342,0.0005,0.0075,-0.0032,-29.82,-35.16,-1.74,,adl
0.900495,0.0465,-0.0238,0.1342,-0.0016,0.008,-0.0027,-29.82,-35.16,-1.74,,adl
0.921796,0.0465,-0.0238,0.1342,-0.0016,0.008,-0.0027,-30.36,-34.86,-1.98,,adl
0.923207,0.0465,-0.0238,0.1342,-0.0011,-0.0048,-0.0016,-30.36,-34.86,-1.98,,adl
0.937587,0.0465,-0.0238,0.1342,-0.0011,-0.0048,-0.0016,-30.36,-34.86,-1.98,,adl
0.938662,0.0049,-0.044,0.1749,-0.0011,-0.0048,-0.0016,-30.36,-34.86,-1.98,,adl
0.94143,0.0049,-0.044,0.1749,-0.0005,-0.0107,0.0011,-30.36,-34.86,-1.98,,adl
0.962639,0.0049,-0.044,0.1749,0.0021,0.0016,0.0037,-30.36,-34.86,-1.98,,adl
0.983371,0.0049,-0.044,0.1749,0.0021,0.0016,0.0037,-30.36,-34.74,-1.38,,adl
0.98446,0.0049,-0.044,0.1749,0.0032,0.0176,0.0032,-30.36,-34.74,-1.38,,adl
0.999144,0.0049,-0.044,0.1749,0.0032,0.0176,0.0032,-30.36,-34.74,-1.38,,adl
1.000219,0.0018,0.0102,0.1486,0.0032,0.0176,0.0032,-30.36,-34.74,-1.38,,adl
1.003029,0.0018,0.0102,0.1486,0.0021,0.016,0.0005,-30.36,-34.74,-1.38,,adl
1.023935,0.0018,0.0102,0.1486,0.0005,-0.0005,-0.0011,-30.36,-34.74,-1.38,,adl
1.045238,0.0018,0.0102,0.1486,0.0005,-0.0005,-0.0011,-30.36,-34.62,-1.44,,adl
1.0463,0.0018,0.0102,0.1486,-0.0005,-0.0149,-0.0011,-30.36,-34.62,-1.44,,adl
1.061138,0.0018,0.0102,0.1486,-0.0005,-0.0149,-0.0011,-30.36,-34.62,-1.44,,adl
1.062338,-0.0052,-0.007,0.1629,-0.0005,-0.0149,-0.0011,-30.36,-34.62,-1.44,,adl
1.065987,-0.0052,-0.007,0.1629,-0.0016,-0.0149,0.0016,-30.36,-34.62,-1.44,,adl
1.085247,-0.0052,-0.007,0.1629,0.0016,-0.0016,0.0021,-30.36,-34.62,-1.44,,adl
1.107236,-0.0052,-0.007,0.1629,0.0016,-0.0016,0.0021,-29.82,-33.96,-1.56,,adl
1.108301,-0.0052,-0.007,0.1629,0.0037,0.008,0.0027,-29.82,-33.96,-1.56,,adl
1.12308,-0.0052,-0.007,0.1629,0.0037,0.008,0.0027,-29.82,-33.96,-1.56,,adl
1.124133,0.0122,-0.0054,0.1629,0.0037,0.008,0.0027,-29.82,-33.96,-1.56,,adl
1.126928,0.0122,-0.0054,0.1629,0.0037,0.0064,0.0048,-29.82,-33.96,-1.56,,adl
1.147012,0.0122,-0.0054,0.1629,0.0011,-0.0021,0.0016,-29.82,-33.96,-1.56,,adl
1.168707,0.0122,-0.0054,0.1629,0.0011,-0.0021,0.0016,-29.76,-34.32,-1.5,,adl
1.169653,0.0122,-0.0054,0.1629,-0.0027,-0.0064,0.0011,-29.76,-34.32,-1.5,,adl
1.184084,0.0122,-0.0054,0.1629,-0.0027,-0.0064,0.0011,-29.76,-34.32,-1.5,,adl
1.185014,0.0257,0.0085,0.1605,-0.0027,-0.0064,0.0011,-29.76,-34.32,-1.5,,adl
1.187619,0.0257,0.0085,0.1605,-0.0005,-0.0037,-0.0005,-29.76,-34.32,-1.5,,adl
1.208747,0.0257,0.0085,0.1605,0.0048,-0.0011,-0.0016,-29.76,-34.32,-1.5,,adl
1.230046,0.0257,0.0085,0.1605,0.0048,-0.0011,-0.0016,-30.18,-34.62,-1.5,,adl
1.231075,0.0257,0.0085,0.1605,0.0091,-0.0011,-0.0021,-30.18,-34.62,-1.5,,adl
1.246085,0.0257,0.0085,0.1605,0.0091,-0.0011,-0.0021,-30.18,-34.62,-1.5,,adl
1.247298,0.0095,0.0638,0.1533,0.0091,-0.0011,-0.0021,-30.18,-34.62,-1.5,,adl
1.249973,0.0095,0.0638,0.1533,0.0075,-0.0016,-0.0043,-30.18,-34.62,-1.5,,adl
1.270645,0.0095,0.0638,0.1533,-0.0016,-0.0011,-0.0037,-30.18,-34.62,-1.5,,adl
1.290771,0.0095,0.0638,0.1533,-0.0016,-0.0011,-0.0037,-30.42,-34.68,-1.8,,adl
1.29168,0.0095,0.0638,0.1533,-0.0059,0.0069,-0.0021,-30.42,-34.68,-1.8,,adl
1.307155,0.0095,0.0638,0.1533,-0.0059,0.0069,-0.0021,-30.42,-34.68,-1.8,,adl
1.308098,-0.0067,-0.1345,0.1629,-0.0059,0.0069,-0.0021,-30.42,-34.68,-1.8,,adl
1.311104,-0.0067,-0.1345,0.1629,-0.0005,0.0112,0.0027,-30.42,-34.68,-1.8,,adl
1.332298,-0.0067,-0.1345,0.1629,0.0,0.0064,0.0043,-30.42,-34.68,-1.8,,adl
1.352685,-0.0067,-0.1345,0.1629,0.0,0.0064,0.0043,-30.72,-35.4,-2.04,,adl
1.353669,-0.0067,-0.1345,0.1629,0.0,-0.0043,0.0,-30.72,-35.4,-2.04,,adl
1.370655,-0.0067,-0.1345,0.1629,0.0,-0.0043,0.0,-30.72,-35.4,-2.04,,adl
1.371669,-0.0435,0.1123,0.1893,0.0,-0.0043,0.0,-30.72,-35.4,-2.04,,adl
1.374568,-0.0435,0.1123,0.1893,0.0053,-0.0091,-0.0021,-30.72,-35.4,-2.04,,adl
1.393171,-0.0435,0.1123,0.1893,0.0037,-0.0011,-0.0016,-30.72,-35.4,-2.04,,adl
1.415196,-0.0435,0.1123,0.1893,0.0037,-0.0011,-0.0016,-30.54,-35.4,-2.04,,adl
1.416211,-0.0435,0.1123,0.1893,-0.0059,0.0091,0.0,-30.54,-35.4,-2.04,,adl
1.435096,-0.0435,0.1123,0.1893,-0.0059,0.0091,0.0,-30.54,-35.4,-2.04,,adl
1.435598,0.063,-0.0553,0.1581,-0.0059,0.0091,0.0,-30.54,-35.4,-2.04,,adl
1.436032,0.063,-0.0553,0.1581,-0.0069,0.0043,0.0011,-30.54,-35.4,-2.04,,adl
1.454245,0.063,-0.0553,0.1581,0.0005,-0.0096,0.0,-30.54,-35.4,-2.04,,adl
1.476158,0.063,-0.0553,0.1581,0.0005,-0.0096,0.0,-30.12,-35.16,-2.04,,adl
1.476855,0.063,-0.0553,0.1581,0.0053,-0.0197,-0.0011,-30.12,-35.16,-2.04,,adl
1.492062,0.063,-0.0553,0.1581,0.0053,-0.0197,-0.0011,-30.12,-35.16,-2.04,,adl
1.492415,0.0004,-0.0024,0.1414,0.0053,-0.0197,-0.0011,-30.12,-35.16,-2.04,,adl
1.495024,0.0004,-0.0024,0.1414,0.0091,-0.0037,-0.0027,-30.12,-35.16,-2.04,,adl
1.515843,0.0004,-0.0024,0.1414,0.0069,0.0186,-0.0037,-30.12,-35.16,-2.04,,adl
1.537098,0.0004,-0.0024,0.1414,0.0069,0.0186,-0.0037,-29.46,-34.98,-2.16,,adl
1.537639,0.0004,-0.0024,0.1414,-0.0005,0.0213,-0.0005,-29.46,-34.98,-2.16,,adl
1.553239,0.0004,-0.0024,0.1414,-0.0005,0.0213,-0.0005,-29.46,-34.98,-2.16,,adl
1.553839,-0.0019,0.0137,0.1629,-0.0005,0.0213,-0.0005,-29.46,-34.98,-2.16,,adl
1.557195,-0.0019,0.0137,0.1629,-0.0011,0.0043,0.0021,-29.46,-34.98,-2.16,,adl
1.577752,-0.0019,0.0137,0.1629,0.0,-0.0123,0.0027,-29.46,-34.98,-2.16,,adl
1.599174,-0.0019,0.0137,0.1629,0.0,-0.0123,0.0027,-29.34,-34.62,-1.86,,adl
1.599832,-0.0019,0.0137,0.1629,0.0027,-0.0133,0.0011,-29.34,-34.62,-1.86,,adl
1.614972,-0.0019,0.0137,0.1629,0.0027,-0.0133,0.0011,-29.34,-34.62,-1.86,,adl
1.615836,-0.0133,-0.0106,0.1557,0.0027,-0.0133,0.0011,-29.34,-34.62,-1.86,,adl
1.620312,-0.0133,-0.0106,0.1557,0.0021,-0.0091,0.0021,-29.34,-34.62,-1.86,,adl
1.64086,-0.0133,-0.0106,0.1557,-0.0005,0.0016,0.0021,-29.34,-34.62,-1.86,,adl
1.660905,-0.0133,-0.0106,0.1557,-0.0005,0.0016,0.0021,-29.34,-34.74,-2.1,,adl
1.661965,-0.0133,-0.0106,0.1557,-0.0005,0.0043,0.0016,-29.34,-34.74,-2.1,,adl
1.677188,-0.0133,-0.0106,0.1557,-0.0005,0.0043,0.0016,-29.34,-34.74,-2.1,,adl
1.678131,0.0169,0.0366,0.1581,-0.0005,0.0043,0.0016,-29.34,-34.74,-2.1,,adl
1.683064,0.0169,0.0366,0.1581,0.0016,0.0027,-0.0032,-29.34,-34.74,-2.1,,adl
1.701321,0.0169,0.0366,0.1581,0.0064,0.0,-0.0069,-29.34,-34.74,-2.1,,adl
1.722782,0.0169,0.0366,0.1581,0.0064,0.0,-0.0069,-29.04,-34.98,-1.98,,adl
1.723845,0.0169,0.0366,0.1581,0.0032,-0.0069,-0.0048,-29.04,-34.98,-1.98,,adl
1.738602,0.0169,0.0366,0.1581,0.0032,-0.0069,-0.0048,-29.04,-34.98,-1.98,,adl
1.739629,0.0183,-0.0231,0.1533,0.0032,-0.0069,-0.0048,-29.04,-34.98,-1.98,,adl
1.74261,0.0183,-0.0231,0.1533,-0.0016,-0.0075,-0.0016,-29.04,-34.98,-1.98,,adl
1.76327,0.0183,-0.0231,0.1533,-0.0043,0.0,0.0016,-29.04,-34.98,-1.98,,adl
1.783802,0.0183,-0.0231,0.1533,-0.0043,0.0,0.0016,-29.82,-35.46,-1.38,,adl
1.78483,0.0183,-0.0231,0.1533,-0.0027,0.0069,0.0053,-29.82,-35.46,-1.38,,adl
1.799464,0.0183,-0.0231,0.1533,-0.0027,0.0069,0.0053,-29.82,-35.46,-1.38,,adl
1.800364,-0.013,-0.0022,0.1892,-0.0027,0.0069,0.0053,-29.82,-35.46,-1.38,,adl
1.803468,-0.013,-0.0022,0.1892,0.0027,0.0037,0.0037,-29.82,-35.46,-1.38,,adl
1.824242,-0.013,-0.0022,0.1892,0.0032,-0.0021,0.0,-29.82,-35.46,-1.38,,adl
1.845997,-0.013,-0.0022,0.1892,0.0032,-0.0021,0.0,-30.12,-35.4,-1.56,,adl
1.84725,-0.013,-0.0022,0.1892,0.0027,0.0,0.0005,-30.12,-35.4,-1.56,,adl
1.86148,-0.013,-0.0022,0.1892,0.0027,0.0,0.0005,-30.12,-35.4,-1.56,,adl
1.862576,0.0159,0.034,0.1246,0.0027,0.0,0.0005,-30.12,-35.4,-1.56,,adl
1.865766,0.0159,0.034,0.1246,-0.0005,0.0032,-0.0016,-30.12,-35.4,-1.56,,adl
1.886069,0.0159,0.034,0.1246,0.0,0.0043,-0.0021,-30.12,-35.4,-1.56,,adl
1.906877,0.0159,0.034,0.1246,0.0,0.0043,-0.0021,-30.24,-35.22,-1.38,,adl
1.908024,0.0159,0.034,0.1246,-0.0027,-0.0032,-0.0021,-30.24,-35.22,-1.38,,adl
1.923355,0.0159,0.034,0.1246,-0.0027,-0.0032,-0.0021,-30.24,-35.22,-1.38,,adl
1.924241,-0.0002,-0.0463,0.1725,-0.0027,-0.0032,-0.0021,-30.24,-35.22,-1.38,,adl
1.926921,-0.0002,-0.0463,0.1725,0.0,-0.0069,-0.0011,-30.24,-35.22,-1.38,,adl
1.94772,-0.0002,-0.0463,0.1725,0.0027,-0.0021,0.0005,-30.24,-35.22,-1.38,,adl
1.96854,-0.0002,-0.0463,0.1725,0.0027,-0.0021,0.0005,-30.84,-35.22,-1.92,,adl
1.96954,-0.0002,-0.0463,0.1725,0.0005,0.0075,-0.0005,-30.84,-35.22,-1.92,,adl
1.985177,-0.0002,-0.0463,0.1725,0.0005,0.0075,-0.0005,-30.84,-35.22,-1.92,,adl
1.986144,-0.0053,-0.0131,0.1533,0.0005,0.0075,-0.0005,-30.84,-35.22,-1.92,,adl
1.988565,-0.0053,-0.0131,0.1533,0.0021,0.0069,0.0032,-30.84,-35.22,-1.92,,adl
2.009194,-0.0053,-0.0131,0.1533,-0.0005,0.0011,0.0027,-30.84,-35.22,-1.92,,adl
2.030575,-0.0053,-0.0131,0.1533,-0.0005,0.0011,0.0027,-30.78,-34.98,-1.98,,adl
2.031637,-0.0053,-0.0131,0.1533,0.0021,-0.0048,0.0027,-30.78,-34.98,-1.98,,adl
2.046616,-0.0053,-0.0131,0.1533,0.0021,-0.0048,0.0027,-30.78,-34.98,-1.98,,adl
2.047609,0.0121,0.0197,0.1653,0.0021,-0.0048,0.0027,-30.78,-34.98,-1.98,,adl
2.050122,0.0121,0.0197,0.1653,0.0032,-0.0069,0.0021,-30.78,-34.98,-1.98,,adl
2.071057,0.0121,0.0197,0.1653,0.0021,-0.0059,0.0011,-30.78,-34.98,-1.98,,adl
2.091898,0.0121,0.0197,0.1653,0.0021,-0.0059,0.0011,-30.36,-34.98,-1.8,,adl
2.093113,0.0121,0.0197,0.1653,-0.0016,0.0016,-0.0021,-30.36,-34.98,-1.8,,adl
2.107382,0.0121,0.0197,0.1653,-0.0016,0.0016,-0.0021,-30.36,-34.98,-1.8,,adl
2.108205,0.014,-0.0766,0.139,-0.0016,0.0016,-0.0021,-30.36,-34.98,-1.8,,adl
2.111698,0.014,-0.0766,0.139,-0.0011,0.0133,0.0,-30.36,-34.98,-1.8,,adl
2.132261,0.014,-0.0766,0.139,-0.0027,0.0128,0.0032,-30.36,-34.98,-1.8,,adl
2.154057,0.014,-0.0766,0.139,-0.0027,0.0128,0.0032,-30.66,-35.04,-1.86,,adl
2.155233,0.014,-0.0766,0.139,-0.0032,0.0027,0.0027,-30.66,-35.04,-1.86,,adl
2.169882,0.014,-0.0766,0.139,-0.0032,0.0027,0.0027,-30.66,-35.04,-1.86,,adl
2.171084,-0.0208,0.0491,0.1677,-0.0032,0.0027,0.0027,-30.66,-35.04,-1.86,,adl
2.174299,-0.0208,0.0491,0.1677,-0.0021,-0.0064,0.0032,-30.66,-35.04,-1.86,,adl
2.194223,-0.0208,0.0491,0.1677,0.0069,-0.0064,0.0016,-30.66,-35.04,-1.86,,adl
2.214961,-0.0208,0.0491,0.1677,0.0069,-0.0064,0.0016,-30.24,-34.92,-1.5,,adl
2.215957,-0.0208,0.0491,0.1677,0.0064,0.0021,0.0,-30.24,-34.92,-1.5,,adl
2.231833,-0.0208,0.0491,0.1677,0.0064,0.0021,0.0,-30.24,-34.92,-1.5,,adl
2.23288,0.0385,0.027,0.139,0.0064,0.0021,0.0,-30.24,-34.92,-1.5,,adl
2.234706,0.0385,0.027,0.139,-0.0037,0.0064,-0.0021,-30.24,-34.92,-1.5,,adl
2.255362,0.0385,0.027,0.139,-0.0021,0.0021,-0.0016,-30.24,-34.92,-1.5,,adl
2.276818,0.0385,0.027,0.139,-0.0021,0.0021,-0.0016,-30.06,-34.92,-1.98,,adl
2.277746,0.0385,0.027,0.139,0.0032,-0.0069,-0.0027,-30.06,-34.92,-1.98,,adl
2.293193,0.0385,0.027,0.139,0.0032,-0.0069,-0.0027,-30.06,-34.92,-1.98,,adl
2.294122,-0.0115,-0.0393,0.1366,0.0032,-0.0069,-0.0027,-30.06,-34.92,-1.98,,adl
2.297063,-0.0115,-0.0393,0.1366,0.0048,-0.008,-0.0011,-30.06,-34.92,-1.98,,adl
2.317188,-0.0115,-0.0393,0.1366,0.0048,0.0032,-0.0005,-30.06,-34.92,-1.98,,adl
2.338268,-0.0115,-0.0393,0.1366,0.0048,0.0032,-0.0005,-30.18,-34.8,-2.4,,adl
2.339307,-0.0115,-0.0393,0.1366,0.0064,0.0138,0.0021,-30.18,-34.8,-2.4,,adl
2.354062,-0.0115,-0.0393,0.1366,0.0064,0.0138,0.0021,-30.18,-34.8,-2.4,,adl
2.355196,-0.0001,0.0173,0.1749,0.0064,0.0138,0.0021,-30.18,-34.8,-2.4,,adl
2.358129,-0.0001,0.0173,0.1749,0.0016,0.0059,0.0021,-30.18,-34.8,-2.4,,adl
2.378571,-0.0001,0.0173,0.1749,-0.0016,-0.008,0.0037,-30.18,-34.8,-2.4,,adl
2.400437,-0.0001,0.0173,0.1749,-0.0016,-0.008,0.0037,-30.24,-35.04,-2.88,,adl
2.401426,-0.0001,0.0173,0.1749,0.0,-0.0101,0.0021,-30.24,-35.04,-2.88,,adl
2.415378,-0.0001,0.0173,0.1749,0.0,-0.0101,0.0021,-30.24,-35.04,-2.88,,adl
2.416133,-0.0119,-0.0325,0.1246,0.0,-0.0101,0.0021,-30.24,-35.04,-2.88,,adl
2.419341,-0.0119,-0.0325,0.1246,0.0037,-0.0021,0.0005,-30.24,-35.04,-2.88,,adl
2.43997,-0.0119,-0.0325,0.1246,0.0027,0.0064,0.0032,-30.24,-35.04,-2.88,,adl
2.46166,-0.0119,-0.0325,0.1246,0.0027,0.0064,0.0032,-30.42,-35.1,-3.54,,adl
2.462812,-0.0119,-0.0325,0.1246,0.0005,0.0032,-0.0005,-30.42,-35.1,-3.54,,adl
2.477561,-0.0119,-0.0325,0.1246,0.0005,0.0032,-0.0005,-30.42,-35.1,-3.54,,adl
2.478631,0.0015,0.0354,0.1725,0.0005,0.0032,-0.0005,-30.42,-35.1,-3.54,,adl
2.482251,0.0015,0.0354,0.1725,-0.0005,-0.0016,0.0005,-30.42,-35.1,-3.54,,adl
2.502935,0.0015,0.0354,0.1725,0.0005,0.0,-0.0021,-30.42,-35.1,-3.54,,adl
2.522805,0.0015,0.0354,0.1725,0.0005,0.0,-0.0021,-30.66,-35.22,-3.24,,adl
2.523697,0.0015,0.0354,0.1725,0.0043,0.0021,-0.0032,-30.66,-35.22,-3.24,,adl
2.538737,0.0015,0.0354,0.1725,0.0043,0.0021,-0.0032,-30.66,-35.22,-3.24,,adl
2.539739,0.0064,-0.0181,0.1366,0.0043,0.0021,-0.0032,-30.66,-35.22,-3.24,,adl
2.54267,0.0064,-0.0181,0.1366,0.0005,0.0011,-0.0011,-30.66,-35.22,-3.24,,adl
2.563263,0.0064,-0.0181,0.1366,-0.0037,-0.0053,0.0016,-30.66,-35.22,-3.24,,adl
2.584678,0.0064,-0.0181,0.1366,-0.0037,-0.0053,0.0016,-30.6,-35.16,-3.18,,adl
2.586249,0.0064,-0.0181,0.1366,0.0005,-0.0069,0.0027,-30.6,-35.16,-3.18,,adl
2.600389,0.0064,-0.0181,0.1366,0.0005,-0.0069,0.0027,-30.6,-35.16,-3.18,,adl
2.602936,0.016,-0.0126,0.1533,0.0005,-0.0069,0.0027,-30.6,-35.16,-3.18,,adl
2.604262,0.016,-0.0126,0.1533,0.0016,0.0011,-0.0005,-30.6,-35.16,-3.18,,adl
2.624856,0.016,-0.0126,0.1533,0.0032,0.0085,-0.0005,-30.6,-35.16,-3.18,,adl
2.646783,0.016,-0.0126,0.1533,0.0032,0.0085,-0.0005,-30.06,-34.74,-3.12,,adl
2.64784,0.016,-0.0126,0.1533,0.0016,0.0107,-0.0005,-30.06,-34.74,-3.12,,adl
2.662738,0.016,-0.0126,0.1533,0.0016,0.0107,-0.0005,-30.06,-34.74,-3.12,,adl
2.663793,-0.0207,-0.0019,0.1557,0.0016,0.0107,-0.0005,-30.06,-34.74,-3.12,,adl
2.666591,-0.0207,-0.0019,0.1557,0.0011,0.0043,-0.0005,-30.06,-34.74,-3.12,,adl
2.687036,-0.0207,-0.0019,0.1557,0.0,-0.0048,-0.0011,-30.06,-34.74,-3.12,,adl
2.707805,-0.0207,-0.0019,0.1557,0.0,-0.0048,-0.0011,-30.0,-34.62,-2.82,,adl
2.70877,-0.0207,-0.0019,0.1557,0.0016,-0.008,0.0011,-30.0,-34.62,-2.82,,adl
2.723666,-0.0207,-0.0019,0.1557,0.0016,-0.008,0.0011,-30.0,-34.62,-2.82,,adl
2.724513,-0.0031,-0.019,0.1605,0.0016,-0.008,0.0011,-30.0,-34.62,-2.82,,adl
2.72745,-0.0031,-0.019,0.1605,0.0016,-0.0075,0.0032,-30.0,-34.62,-2.82,,adl
2.748215,-0.0031,-0.019,0.1605,0.0005,-0.0016,0.0048,-30.0,-34.62,-2.82,,adl
2.769312,-0.0031,-0.019,0.1605,0.0005,-0.0016,0.0048,-29.82,-34.44,-2.64,,adl
2.770314,-0.0031,-0.019,0.1605,0.0,0.0043,0.0021,-29.82,-34.44,-2.64,,adl
2.785185,-0.0031,-0.019,0.1605,0.0,0.0043,0.0021,-29.82,-34.44,-2.64,,adl
2.786223,0.022,-0.012,0.1485,0.0,0.0043,0.0021,-29.82,-34.44,-2.64,,adl
2.790528,0.022,-0.012,0.1485,0.0037,0.0053,-0.0005,-29.82,-34.44,-2.64,,adl
2.809597,0.022,-0.012,0.1485,0.0027,0.0032,-0.0027,-29.82,-34.44,-2.64,,adl
2.831975,0.022,-0.012,0.1485,0.0027,0.0032,-0.0027,-30.12,-34.38,-2.58,,adl
2.832982,0.022,-0.012,0.1485,-0.0016,0.0,-0.0037,-30.12,-34.38,-2.58,,adl
2.846742,0.022,-0.012,0.1485,-0.0016,0.0,-0.0037,-30.12,-34.38,-2.58,,adl
2.847826,-0.0027,-0.0197,0.1509,-0.0016,0.0,-0.0037,-30.12,-34.38,-2.58,,adl
2.850729,-0.0027,-0.0197,0.1509,0.0,-0.0021,-0.0005,-30.12,-34.38,-2.58,,adl
2.871265,-0.0027,-0.0197,0.1509,-0.0016,-0.0016,0.0043,-30.12,-34.38,-2.58,,adl
2.892407,-0.0027,-0.0197,0.1509,-0.0016,-0.0016,0.0043,-30.24,-34.74,-2.46,,adl
2.893518,-0.0027,-0.0197,0.1509,0.0021,-0.0032,0.0048,-30.24,-34.74,-2.46,,adl
2.908823,-0.0027,-0.0197,0.1509,0.0021,-0.0032,0.0048,-30.24,-34.74,-2.46,,adl
2.909907,0.003,0.0491,0.1533,0.0021,-0.0032,0.0048,-30.24,-34.74,-2.46,,adl
2.912155,0.003,0.0491,0.1533,0.0043,-0.0064,0.0032,-30.24,-34.74,-2.46,,adl
2.932303,0.003,0.0491,0.1533,0.0021,-0.0021,-0.0021,-30.24,-34.74,-2.46,,adl
2.954567,0.003,0.0491,0.1533,0.0021,-0.0021,-0.0021,-30.18,-34.62,-2.46,,adl
2.955602,0.003,0.0491,0.1533,-0.0027,0.0117,-0.0059,-30.18,-34.62,-2.46,,adl
2.970248,0.003,0.0491,0.1533,-0.0027,0.0117,-0.0059,-30.18,-34.62,-2.46,,adl
2.971481,-0.0059,-0.1079,0.1533,-0.0027,0.0117,-0.0059,-30.18,-34.62,-2.46,,adl
2.974266,-0.0059,-0.1079,0.1533,-0.0043,0.0186,-0.0032,-30.18,-34.62,-2.46,,adl
2.995296,-0.0059,-0.1079,0.1533,-0.0027,0.0096,0.0021,-30.18,-34.62,-2.46,,adl
3.015966,-0.0059,-0.1079,0.1533,-0.0027,0.0096,0.0021,-29.76,-34.56,-2.94,,adl
3.017099,-0.0059,-0.1079,0.1533,-0.0037,-0.0059,0.0027,-29.76,-34.56,-2.94,,adl
3.031804,-0.0059,-0.1079,0.1533,-0.0037,-0.0059,0.0027,-29.76,-34.56,-2.94,,adl
3.032814,-0.0504,0.0729,0.1749,-0.0037,-0.0059,0.0027,-29.76,-34.56,-2.94,,adl
3.035023,-0.0504,0.0729,0.1749,0.0032,-0.0117,0.0032,-29.76,-34.56,-2.94,,adl
3.056629,-0.0504,0.0729,0.1749,0.008,-0.0037,0.0032,-29.76,-34.56,-2.94,,adl
3.077167,-0.0504,0.0729,0.1749,0.008,-0.0037,0.0032,-29.52,-34.74,-2.7,,adl
3.078191,-0.0504,0.0729,0.1749,-0.0011,0.0053,-0.0005,-29.52,-34.74,-2.7,,adl
3.092943,-0.0504,0.0729,0.1749,-0.0011,0.0053,-0.0005,-29.52,-34.74,-2.7,,adl
3.09398,0.0595,-0.0153,0.139,-0.0011,0.0053,-0.0005,-29.52,-34.74,-2.7,,adl
3.096748,0.0595,-0.0153,0.139,-0.008,0.0064,-0.0027,-29.52,-34.74,-2.7,,adl
3.117418,0.0595,-0.0153,0.139,-0.0005,-0.0016,-0.0043,-29.52,-34.74,-2.7,,adl
3.138744,0.0595,-0.0153,0.139,-0.0005,-0.0016,-0.0043,-29.94,-34.56,-2.46,,adl
3.13976,0.0595,-0.0153,0.139,0.0059,-0.0112,-0.0032,-29.94,-34.56,-2.46,,adl
3.154935,0.0595,-0.0153,0.139,0.0059,-0.0112,-0.0032,-29.94,-34.56,-2.46,,adl
3.155971,-0.009,-0.0473,0.1366,0.0059,-0.0112,-0.0032,-29.94,-34.56,-2.46,,adl
3.161783,-0.009,-0.0473,0.1366,0.0064,-0.0085,-0.0005,-29.94,-34.56,-2.46,,adl
3.178888,-0.009,-0.0473,0.1366,0.0064,0.008,0.0016,-29.94,-34.56,-2.46,,adl
3.200714,-0.009,-0.0473,0.1366,0.0064,0.008,0.0016,-30.3,-34.98,-2.64,,adl
3.201807,-0.009,-0.0473,0.1366,0.0021,0.016,0.0032,-30.3,-34.98,-2.64,,adl
3.215957,-0.009,-0.0473,0.1366,0.0021,0.016,0.0032,-30.3,-34.98,-2.64,,adl
3.216932,0.0013,0.012,0.1988,0.0021,0.016,0.0032,-30.3,-34.98,-2.64,,adl
3.221186,0.0013,0.012,0.1988,-0.0005,0.0016,0.0032,-30.3,-34.98,-2.64,,adl
3.240062,0.0013,0.012,0.1988,-0.0021,-0.008,0.0005,-30.3,-34.98,-2.64,,adl
3.26237,0.0013,0.012,0.1988,-0.0021,-0.008,0.0005,-30.42,-35.16,-2.34,,adl
3.263578,0.0013,0.012,0.1988,0.0032,-0.0059,-0.0016,-30.42,-35.16,-2.34,,adl
3.278377,0.0013,0.012,0.1988,0.0032,-0.0059,-0.0016,-30.42,-35.16,-2.34,,adl
3.2796,-0.013,-0.0237,0.1246,0.0032,-0.0059,-0.0016,-30.42,-35.16,-2.34,,adl
3.282611,-0.013,-0.0237,0.1246,0.0043,-0.0016,0.0,-30.42,-35.16,-2.34,,adl
3.302293,-0.013,-0.0237,0.1246,0.0005,-0.0032,0.0,-30.42,-35.16,-2.34,,adl
3.324294,-0.013,-0.0237,0.1246,0.0005,-0.0032,0.0,-29.88,-35.34,-2.46,,adl
3.325655,-0.013,-0.0237,0.1246,-0.0027,-0.0037,-0.0005,-29.88,-35.34,-2.46,,adl
3.338789,-0.013,-0.0237,0.1246,-0.0027,-0.0037,-0.0005,-29.88,-35.34,-2.46,,adl
3.340157,-0.0004,0.019,0.1868,-0.0027,-0.0037,-0.0005,-29.88,-35.34,-2.46,,adl
3.343223,-0.0004,0.019,0.1868,0.0021,0.0011,-0.0011,-29.88,-35.34,-2.46,,adl
3.364599,-0.0004,0.019,0.1868,0.0037,0.0027,-0.0032,-29.88,-35.34,-2.46,,adl
3.386272,-0.0004,0.019,0.1868,0.0037,0.0027,-0.0032,-29.34,-35.28,-2.7,,adl
3.387967,-0.0004,0.019,0.1868,0.0011,0.0005,-0.0016,-29.34,-35.28,-2.7,,adl
3.400658,-0.0004,0.019,0.1868,0.0011,0.0005,-0.0016,-29.34,-35.28,-2.7,,adl
3.402116,0.0239,-0.046,0.1557,0.0011,0.0005,-0.0016,-29.34,-35.28,-2.7,,adl
3.404813,0.0239,-0.046,0.1557,-0.0016,-0.0075,0.0,-29.34,-35.28,-2.7,,adl
3.426608,0.0239,-0.046,0.1557,0.0,-0.0123,0.0011,-29.34,-35.28,-2.7,,adl
3.447588,0.0239,-0.046,0.1557,0.0,-0.0123,0.0011,-29.22,-35.16,-2.22,,adl
3.44915,0.0239,-0.046,0.1557,0.0011,-0.0011,0.0,-29.22,-35.16,-2.22,,adl
3.463578,0.0239,-0.046,0.1557,0.0011,-0.0011,0.0,-29.22,-35.16,-2.22,,adl
3.46493,0.0123,-0.0049,0.1413,0.0011,-0.0011,0.0,-29.22,-35.16,-2.22,,adl
3.467081,0.0123,-0.0049,0.1413,0.0005,0.0123,-0.0011,-29.22,-35.16,-2.22,,adl
3.488013,0.0123,-0.0049,0.1413,0.0,0.0128,0.0,-29.22,-35.16,-2.22,,adl
3.509298,0.0123,-0.0049,0.1413,0.0,0.0128,0.0,-29.52,-34.98,-2.58,,adl
3.510877,0.0123,-0.0049,0.1413,0.0021,0.0043,0.0,-29.52,-34.98,-2.58,,adl
3.525378,0.0123,-0.0049,0.1413,0.0021,0.0043,0.0,-29.52,-34.98,-2.58,,adl
3.527123,-0.0058,0.0138,0.1533,0.0021,0.0043,0.0,-29.52,-34.98,-2.58,,adl
3.527991,-0.0058,0.0138,0.1533,0.0032,-0.0048,0.0011,-29.52,-34.98,-2.58,,adl
3.549321,-0.0058,0.0138,0.1533,0.0005,-0.0096,0.0016,-29.52,-34.98,-2.58,,adl
3.57069,-0.0058,0.0138,0.1533,0.0005,-0.0096,0.0016,-29.88,-34.74,-2.7,,adl
3.572177,-0.0058,0.0138,0.1533,0.0005,-0.0085,0.0027,-29.88,-34.74,-2.7,,adl
3.586657,-0.0058,0.0138,0.1533,0.0005,-0.0085,0.0027,-29.88,-34.74,-2.7,,adl
3.588138,0.0201,-0.0596,0.1605,0.0005,-0.0085,0.0027,-29.88,-34.74,-2.7,,adl
3.592811,0.0201,-0.0596,0.1605,-0.0027,-0.0032,0.0005,-29.88,-34.74,-2.7,,adl
3.611,0.0201,-0.0596,0.1605,-0.0016,0.0043,-0.0016,-29.88,-34.74,-2.7,,adl
3.632241,0.0201,-0.0596,0.1605,-0.0016,0.0043,-0.0016,-30.06,-34.62,-2.58,,adl
3.634207,0.0201,-0.0596,0.1605,0.0011,0.0112,-0.0069,-30.06,-34.62,-2.58,,adl
3.648563,0.0201,-0.0596,0.1605,0.0011,0.0112,-0.0069,-30.06,-34.62,-2.58,,adl
3.65004,-0.0482,-0.0194,0.127,0.0011,0.0112,-0.0069,-30.06,-34.62,-2.58,,adl
3.651048,-0.0482,-0.0194,0.127,0.0037,0.0138,-0.0101,-30.06,-34.62,-2.58,,adl
3.672682,-0.0482,-0.0194,0.127,0.0027,0.0053,-0.008,-30.06,-34.62,-2.58,,adl
3.692728,-0.0482,-0.0194,0.127,0.0027,0.0053,-0.008,-29.82,-34.38,-2.58,,adl
3.6942,-0.0482,-0.0194,0.127,-0.0016,-0.0075,0.0021,-29.82,-34.38,-2.58,,adl
3.70977,-0.0482,-0.0194,0.127,-0.0016,-0.0075,0.0021,-29.82,-34.38,-2.58,,adl
3.711537,-0.042,0.0064,0.1749,-0.0016,-0.0075,0.0021,-29.82,-34.38,-2.58,,adl
3.713165,-0.042,0.0064,0.1749,-0.0048,-0.0197,0.0085,-29.82,-34.38,-2.58,,adl
3.735165,-0.042,0.0064,0.1749,-0.0043,-0.0245,0.0165,-29.82,-34.38,-2.58,,adl
3.755634,-0.042,0.0064,0.1749,-0.0043,-0.0245,0.0165,-29.64,-34.44,-2.52,,adl
3.757246,-0.042,0.0064,0.1749,-0.0016,-0.0218,0.017,-29.64,-34.44,-2.52,,adl
3.771469,-0.042,0.0064,0.1749,-0.0016,-0.0218,0.017,-29.64,-34.44,-2.52,,adl
3.772944,0.1699,0.0149,0.1365,-0.0016,-0.0218,0.017,-29.64,-34.44,-2.52,,adl
3.775178,0.1699,0.0149,0.1365,0.0016,-0.0059,0.0085,-29.64,-34.44,-2.52,,adl
3.795068,0.1699,0.0149,0.1365,0.0011,0.0165,-0.0021,-29.64,-34.44,-2.52,,adl
3.817091,0.1699,0.0149,0.1365,0.0011,0.0165,-0.0021,-29.88,-34.86,-2.22,,adl
3.818558,0.1699,0.0149,0.1365,0.0043,0.0346,-0.008,-29.88,-34.86,-2.22,,adl
3.83122,0.1699,0.0149,0.1365,0.0043,0.0346,-0.008,-29.88,-34.86,-2.22,,adl
3.83183,-0.0111,-0.0597,0.1605,0.0043,0.0346,-0.008,-29.88,-34.86,-2.22,,adl
3.835312,-0.0111,-0.0597,0.1605,0.0021,0.0352,-0.0069,-29.88,-34.86,-2.22,,adl
3.856427,-0.0111,-0.0597,0.1605,-0.0016,0.0218,-0.0043,-29.88,-34.86,-2.22,,adl
3.877705,-0.0111,-0.0597,0.1605,-0.0016,0.0218,-0.0043,-29.64,-34.8,-2.04,,adl
3.879034,-0.0111,-0.0597,0.1605,0.0021,0.0043,0.0005,-29.64,-34.8,-2.04,,adl
3.894637,-0.0111,-0.0597,0.1605,0.0021,0.0043,0.0005,-29.64,-34.8,-2.04,,adl
3.896219,-0.1827,0.0653,0.1749,0.0021,0.0043,0.0005,-29.64,-34.8,-2.04,,adl
3.897881,-0.1827,0.0653,0.1749,0.008,-0.0144,0.0021,-29.64,-34.8,-2.04,,adl
3.918701,-0.1827,0.0653,0.1749,0.0021,-0.016,0.0016,-29.64,-34.8,-2.04,,adl
3.940225,-0.1827,0.0653,0.1749,0.0021,-0.016,0.0016,-29.58,-34.92,-2.16,,adl
3.941697,-0.1827,0.0653,0.1749,-0.0101,-0.0133,0.0,-29.58,-34.92,-2.16,,adl
3.956948,-0.1827,0.0653,0.1749,-0.0101,-0.0133,0.0,-29.58,-34.92,-2.16,,adl
3.958546,0.035,-0.0899,0.1653,-0.0101,-0.0133,0.0,-29.58,-34.92,-2.16,,adl
3.959422,0.035,-0.0899,0.1653,-0.0059,-0.0117,-0.0027,-29.58,-34.92,-2.16,,adl
3.980597,0.035,-0.0899,0.1653,-0.0005,-0.0144,0.0,-29.58,-34.92,-2.16,,adl
4.00158,0.035,-0.0899,0.1653,-0.0005,-0.0144,0.0,-29.46,-34.68,-1.8,,adl
4.003291,0.035,-0.0899,0.1653,0.0059,-0.0138,0.0,-29.46,-34.68,-1.8,,adl
4.017521,0.035,-0.0899,0.1653,0.0059,-0.0138,0.0,-29.46,-34.68,-1.8,,adl
4.019182,0.0665,-0.0074,0.1509,0.0059,-0.0138,0.0,-29.46,-34.68,-1.8,,adl
4.020316,0.0665,-0.0074,0.1509,0.0059,-0.0032,0.0027,-29.46,-34.68,-1.8,,adl
4.042676,0.0665,-0.0074,0.1509,0.0027,0.0123,0.0037,-29.46,-34.68,-1.8,,adl
4.063341,0.0665,-0.0074,0.1509,0.0027,0.0123,0.0037,-29.22,-34.56,-1.86,,adl
4.064906,0.0665,-0.0074,0.1509,0.0016,0.017,0.0021,-29.22,-34.56,-1.86,,adl
4.078984,0.0665,-0.0074,0.1509,0.0016,0.017,0.0021,-29.22,-34.56,-1.86,,adl
4.080407,0.042,0.0075,0.1629,0.0016,0.017,0.0021,-29.22,-34.56,-1.86,,adl
4.084598,0.042,0.0075,0.1629,0.0011,0.0091,-0.0005,-29.22,-34.56,-1.86,,adl
4.103683,0.042,0.0075,0.1629,0.0043,0.0021,0.0,-29.22,-34.56,-1.86,,adl
4.12478,0.042,0.0075,0.1629,0.0043,0.0021,0.0,-29.58,-34.8,-1.8,,adl
4.12639,0.042,0.0075,0.1629,0.0053,0.0016,0.0011,-29.58,-34.8,-1.8,,adl
4.141195,0.042,0.0075,0.1629,0.0053,0.0016,0.0011,-29.58,-34.8,-1.8,,adl
4.143231,-0.0696,-0.0204,0.1749,0.0053,0.0016,0.0011,-29.58,-34.8,-1.8,,adl
4.144044,-0.0696,-0.0204,0.1749,0.0037,0.0016,0.0027,-29.58,-34.8,-1.8,,adl
4.165134,-0.0696,-0.0204,0.1749,0.0005,-0.0016,0.0032,-29.58,-34.8,-1.8,,adl
4.186525,-0.0696,-0.0204,0.1749,0.0005,-0.0016,0.0032,-29.52,-34.86,-1.92,,adl
4.188021,-0.0696,-0.0204,0.1749,0.0,-0.0021,0.0027,-29.52,-34.86,-1.92,,adl
4.201596,-0.0696,-0.0204,0.1749,0.0,-0.0021,0.0027,-29.52,-34.86,-1.92,,adl
4.203273,-0.042,0.0239,0.1342,0.0,-0.0021,0.0027,-29.52,-34.86,-1.92,,adl
4.205554,-0.042,0.0239,0.1342,0.0037,0.0011,-0.0005,-29.52,-34.86,-1.92,,adl
4.226808,-0.042,0.0239,0.1342,0.0011,0.0,0.0,-29.52,-34.86,-1.92,,adl
4.248316,-0.042,0.0239,0.1342,-0.0016,-0.0123,-0.0005,-29.52,-34.86,-1.92,,adl
4.249807,-0.042,0.0239,0.1342,-0.0016,-0.0123,-0.0005,-29.7,-35.1,-1.98,,adl
4.263887,-0.042,0.0239,0.1342,-0.0016,-0.0123,-0.0005,-29.7,-35.1,-1.98,,adl
4.265287,0.0276,-0.0408,0.1844,-0.0016,-0.0123,-0.0005,-29.7,-35.1,-1.98,,adl
4.266384,0.0276,-0.0408,0.1844,-0.0048,-0.017,-0.0005,-29.7,-35.1,-1.98,,adl
4.288282,0.0276,-0.0408,0.1844,-0.0011,-0.0112,-0.0032,-29.7,-35.1,-1.98,,adl
4.309681,0.0276,-0.0408,0.1844,-0.0011,-0.0112,-0.0032,-29.82,-35.34,-2.04,,adl
4.311419,0.0276,-0.0408,0.1844,0.0032,0.0053,-0.0032,-29.82,-35.34,-2.04,,adl
4.324373,0.0276,-0.0408,0.1844,0.0032,0.0053,-0.0032,-29.82,-35.34,-2.04,,adl
4.325849,0.025,-0.004,0.1605,0.0032,0.0053,-0.0032,-29.82,-35.34,-2.04,,adl
4.32903,0.025,-0.004,0.1605,0.0037,0.0144,0.0,-29.82,-35.34,-2.04,,adl
4.34987,0.025,-0.004,0.1605,0.0021,0.0101,0.0027,-29.82,-35.34,-2.04,,adl
4.371403,0.025,-0.004,0.1605,0.0021,0.0101,0.0027,-29.7,-35.58,-1.98,,adl
4.372943,0.025,-0.004,0.1605,0.0011,0.0021,0.0021,-29.7,-35.58,-1.98,,adl
4.386102,0.025,-0.004,0.1605,0.0011,0.0021,0.0021,-29.7,-35.58,-1.98,,adl
4.387533,0.0154,-0.0215,0.1461,0.0011,0.0021,0.0021,-29.7,-35.58,-1.98,,adl
4.39068,0.0154,-0.0215,0.1461,0.0,-0.0037,0.0016,-29.7,-35.58,-1.98,,adl
4.410566,0.0154,-0.0215,0.1461,0.0027,-0.0032,-0.0011,-29.7,-35.58,-1.98,,adl
4.432842,0.0154,-0.0215,0.1461,0.0027,-0.0032,-0.0011,-29.88,-35.82,-2.1,,adl
4.434259,0.0154,-0.0215,0.1461,0.0,0.0021,-0.0021,-29.88,-35.82,-2.1,,adl
4.450343,0.0154,-0.0215,0.1461,0.0,0.0021,-0.0021,-29.88,-35.82,-2.1,,adl
4.451924,-0.0355,-0.0121,0.1653,0.0,0.0021,-0.0021,-29.88,-35.82,-2.1,,adl
4.452996,-0.0355,-0.0121,0.1653,0.0005,0.0069,0.0011,-29.88,-35.82,-2.1,,adl
4.472821,-0.0355,-0.0121,0.1653,0.0021,0.0043,0.0011,-29.88,-35.82,-2.1,,adl
4.494021,-0.0355,-0.0121,0.1653,0.0021,0.0043,0.0011,-30.0,-35.82,-2.34,,adl
4.495509,-0.0355,-0.0121,0.1653,0.0005,-0.0005,0.0,-30.0,-35.82,-2.34,,adl
4.509455,-0.0355,-0.0121,0.1653,0.0005,-0.0005,0.0,-30.0,-35.82,-2.34,,adl
4.511119,-0.0021,-0.0078,0.1509,0.0005,-0.0005,0.0,-30.0,-35.82,-2.34,,adl
4.513596,-0.0021,-0.0078,0.1509,0.0027,-0.0032,0.0,-30.0,-35.82,-2.34,,adl
4.534797,-0.0021,-0.0078,0.1509,-0.0011,-0.0064,-0.0021,-30.0,-35.82,-2.34,,adl
4.556237,-0.0021,-0.0078,0.1509,-0.0011,-0.0064,-0.0021,-29.88,-35.82,-2.58,,adl
4.557915,-0.0021,-0.0078,0.1509,-0.0032,-0.0069,0.0011,-29.88,-35.82,-2.58,,adl
4.570373,-0.0021,-0.0078,0.1509,-0.0032,-0.0069,0.0011,-29.88,-35.82,-2.58,,adl
4.571955,-0.0031,0.0117,0.1677,-0.0032,-0.0069,0.0011,-29.88,-35.82,-2.58,,adl
4.575226,-0.0031,0.0117,0.1677,0.0021,-0.0064,0.0027,-29.88,-35.82,-2.58,,adl
4.596046,-0.0031,0.0117,0.1677,0.0027,-0.0059,0.0021,-29.88,-35.82,-2.58,,adl
4.616546,-0.0031,0.0117,0.1677,0.0027,-0.0059,0.0021,-29.82,-35.34,-2.88,,adl
4.617934,-0.0031,0.0117,0.1677,-0.0027,0.0021,-0.0016,-29.82,-35.34,-2.88,,adl
4.634834,-0.0031,0.0117,0.1677,-0.0027,0.0021,-0.0016,-29.82,-35.34,-2.88,,adl
4.636304,0.0501,-0.0919,0.1389,-0.0027,0.0021,-0.0016,-29.82,-35.34,-2.88,,adl
4.637261,0.0501,-0.0919,0.1389,-0.0048,0.0154,-0.0048,-29.82,-35.34,-2.88,,adl
4.660654,0.0501,-0.0919,0.1389,-0.0021,0.016,-0.0021,-29.82,-35.34,-2.88,,adl
4.678969,0.0501,-0.0919,0.1389,-0.0021,0.016,-0.0021,-30.3,-35.46,-2.82,,adl
4.68059,0.0501,-0.0919,0.1389,-0.0037,0.0053,0.0037,-30.3,-35.46,-2.82,,adl
4.695001,0.0501,-0.0919,0.1389,-0.0037,0.0053,0.0037,-30.3,-35.46,-2.82,,adl
4.696603,-0.0614,0.07,0.1533,-0.0037,0.0053,0.0037,-30.3,-35.46,-2.82,,adl
4.700458,-0.0614,0.07,0.1533,-0.0032,-0.0069,0.0027,-30.3,-35.46,-2.82,,adl
4.71969,-0.0614,0.07,0.1533,0.0043,-0.0085,0.0032,-30.3,-35.46,-2.82,,adl
4.740543,-0.0614,0.07,0.1533,0.0043,-0.0085,0.0032,-29.88,-35.34,-2.7,,adl
4.742183,-0.0614,0.07,0.1533,0.0069,0.0016,0.0005,-29.88,-35.34,-2.7,,adl
4.757057,-0.0614,0.07,0.1533,0.0069,0.0016,0.0005,-29.88,-35.34,-2.7,,adl
4.758702,0.0266,0.0315,0.1342,0.0069,0.0016,0.0005,-29.88,-35.34,-2.7,,adl
4.759789,0.0266,0.0315,0.1342,-0.0021,0.0053,-0.0043,-29.88,-35.34,-2.7,,adl
4.781004,0.0266,0.0315,0.1342,-0.008,0.0021,-0.0037,-29.88,-35.34,-2.7,,adl
4.801664,0.0266,0.0315,0.1342,-0.008,0.0021,-0.0037,-30.0,-35.22,-2.34,,adl
4.803304,0.0266,0.0315,0.1342,0.0011,-0.0117,-0.0027,-30.0,-35.22,-2.34,,adl
4.817269,0.0266,0.0315,0.1342,0.0011,-0.0117,-0.0027,-30.0,-35.22,-2.34,,adl
4.818827,0.0063,-0.0777,0.139,0.0011,-0.0117,-0.0027,-30.0,-35.22,-2.34,,adl
4.820948,0.0063,-0.0777,0.139,0.0048,-0.0154,0.0005,-30.0,-35.22,-2.34,,adl
4.84185,0.0063,-0.0777,0.139,0.0069,-0.0005,-0.0011,-30.0,-35.22,-2.34,,adl
4.862397,0.0063,-0.0777,0.139,0.0069,-0.0005,-0.0011,-30.36,-35.46,-2.46,,adl
4.863911,0.0063,-0.0777,0.139,0.0048,0.017,0.0005,-30.36,-35.46,-2.46,,adl
4.879439,0.0063,-0.0777,0.139,0.0048,0.017,0.0005,-30.36,-35.46,-2.46,,adl
4.881094,-0.0127,0.0291,0.1725,0.0048,0.017,0.0005,-30.36,-35.46,-2.46,,adl
4.88369,-0.0127,0.0291,0.1725,0.0016,0.0144,0.0037,-30.36,-35.46,-2.46,,adl
4.903279,-0.0127,0.0291,0.1725,-0.0016,-0.0016,0.0032,-30.36,-35.46,-2.46,,adl
4.92488,-0.0127,0.0291,0.1725,-0.0016,-0.0016,0.0032,-29.82,-34.8,-1.98,,adl
4.92625,-0.0127,0.0291,0.1725,-0.0021,-0.0112,0.0016,-29.82,-34.8,-1.98,,adl
4.940849,-0.0127,0.0291,0.1725,-0.0021,-0.0112,0.0016,-29.82,-34.8,-1.98,,adl
4.942249,-0.0145,-0.0489,0.1222,-0.0021,-0.0112,0.0016,-29.82,-34.8,-1.98,,adl
4.943726,-0.0145,-0.0489,0.1222,0.0021,-0.0075,0.0011,-29.82,-34.8,-1.98,,adl
4.965451,-0.0145,-0.0489,0.1222,0.0011,-0.0016,0.0027,-29.82,-34.8,-1.98,,adl
4.986847,-0.0145,-0.0489,0.1222,0.0011,-0.0016,0.0027,-30.12,-34.74,-2.1,,adl
4.988356,-0.0145,-0.0489,0.1222,0.0016,-0.0021,0.0016,-30.12,-34.74,-2.1,,adl
5.002793,-0.0145,-0.0489,0.1222,0.0016,-0.0021,0.0016,-30.12,-34.74,-2.1,,adl
5.004193,-0.0141,0.0361,0.1892,0.0016,-0.0021,0.0016,-30.12,-34.74,-2.1,,adl
5.006785,-0.0141,0.0361,0.1892,-0.0016,0.0005,-0.0005,-30.12,-34.74,-2.1,,adl
5.027256,-0.0141,0.0361,0.1892,0.0016,0.0027,-0.0032,-30.12,-34.74,-2.1,,adl
5.049086,-0.0141,0.0361,0.1892,0.0016,0.0027,-0.0032,-30.48,-34.44,-2.16,,adl
5.050777,-0.0141,0.0361,0.1892,0.0027,0.0037,-0.0016,-30.48,-34.44,-2.16,,adl
5.064572,-0.0141,0.0361,0.1892,0.0027,0.0037,-0.0016,-30.48,-34.44,-2.16,,adl
5.065607,0.0088,-0.0242,0.1318,0.0027,0.0037,-0.0016,-30.48,-34.44,-2.16,,adl
5.06705,0.0088,-0.0242,0.1318,-0.0005,-0.0032,-0.0011,-30.48,-34.44,-2.16,,adl
5.088515,0.0088,-0.0242,0.1318,-0.0027,-0.0117,-0.0027,-30.48,-34.44,-2.16,,adl
5.109046,0.0088,-0.0242,0.1318,-0.0027,-0.0117,-0.0027,-30.36,-34.44,-1.92,,adl
5.110642,0.0088,-0.0242,0.1318,0.0,-0.0133,-0.0005,-30.36,-34.44,-1.92,,adl
5.125444,0.0088,-0.0242,0.1318,0.0,-0.0133,-0.0005,-30.36,-34.44,-1.92,,adl
5.127392,0.0055,-0.0044,0.1605,0.0,-0.0133,-0.0005,-30.36,-34.44,-1.92,,adl
5.12949,0.0055,-0.0044,0.1605,0.0027,0.0016,-0.0005,-30.36,-34.44,-1.92,,adl
5.150802,0.0055,-0.0044,0.1605,0.0016,0.016,-0.0021,-30.36,-34.44,-1.92,,adl
5.171298,0.0055,-0.0044,0.1605,0.0016,0.016,-0.0021,-30.66,-34.5,-1.98,,adl
5.172994,0.0055,-0.0044,0.1605,0.0,0.0133,-0.0005,-30.66,-34.5,-1.98,,adl
5.186813,0.0055,-0.0044,0.1605,0.0,0.0133,-0.0005,-30.66,-34.5,-1.98,,adl
5.188157,-0.005,-0.0243,0.1581,0.0,0.0133,-0.0005,-30.66,-34.5,-1.98,,adl
5.191047,-0.005,-0.0243,0.1581,0.0,0.0,0.0005,-30.66,-34.5,-1.98,,adl
5.212021,-0.005,-0.0243,0.1581,-0.0005,-0.0123,0.0027,-30.66,-34.5,-1.98,,adl
5.233528,-0.005,-0.0243,0.1581,-0.0005,-0.0123,0.0027,-30.72,-34.56,-1.8,,adl
5.235379,-0.005,-0.0243,0.1581,0.0021,-0.0091,0.0021,-30.72,-34.56,-1.8,,adl
5.251145,-0.005,-0.0243,0.1581,0.0021,-0.0091,0.0021,-30.72,-34.56,-1.8,,adl
5.252616,-0.0117,0.0113,0.1389,0.0021,-0.0091,0.0021,-30.72,-34.56,-1.8,,adl
5.25368,-0.0117,0.0113,0.1389,-0.0016,0.0011,-0.0005,-30.72,-34.56,-1.8,,adl
5.27333,-0.0117,0.0113,0.1389,0.0,0.0037,-0.0021,-30.72,-34.56,-1.8,,adl
5.294635,-0.0117,0.0113,0.1389,0.0,0.0037,-0.0021,-30.24,-34.5,-1.92,,adl
5.296156,-0.0117,0.0113,0.1389,-0.0005,0.0016,-0.0021,-30.24,-34.5,-1.92,,adl
5.310271,-0.0117,0.0113,0.1389,-0.0005,0.0016,-0.0021,-30.24,-34.5,-1.92,,adl
5.311824,0.0039,-0.0193,0.1533,-0.0005,0.0016,-0.0021,-30.24,-34.5,-1.92,,adl
5.314235,0.0039,-0.0193,0.1533,0.0011,-0.0005,-0.0011,-30.24,-34.5,-1.92,,adl
5.335141,0.0039,-0.0193,0.1533,0.0021,0.0016,-0.0016,-30.24,-34.5,-1.92,,adl
5.356808,0.0039,-0.0193,0.1533,0.0021,0.0016,-0.0016,-30.0,-34.5,-2.22,,adl
5.358353,0.0039,-0.0193,0.1533,0.0016,0.0011,0.0021,-30.0,-34.5,-2.22,,adl
5.372276,0.0039,-0.0193,0.1533,0.0016,0.0011,0.0021,-30.0,-34.5,-2.22,,adl
5.373719,0.0209,-0.0034,0.1581,0.0016,0.0011,0.0021,-30.0,-34.5,-2.22,,adl
5.374987,0.0209,-0.0034,0.1581,0.0011,-0.0059,0.0027,-30.0,-34.5,-2.22,,adl
5.396598,0.0209,-0.0034,0.1581,-0.0032,-0.0059,0.0016,-30.0,-34.5,-2.22,,adl
5.41734,0.0209,-0.0034,0.1581,-0.0032,-0.0059,0.0016,-29.94,-34.8,-2.46,,adl
5.419016,0.0209,-0.0034,0.1581,-0.0027,0.0069,-0.0021,-29.94,-34.8,-2.46,,adl
5.433117,0.0209,-0.0034,0.1581,-0.0027,0.0069,-0.0021,-29.94,-34.8,-2.46,,adl
5.43369,-0.0158,-0.0602,0.1557,-0.0027,0.0069,-0.0021,-29.94,-34.8,-2.46,,adl
5.437374,-0.0158,-0.0602,0.1557,-0.0016,0.0154,-0.0016,-29.94,-34.8,-2.46,,adl
5.458235,-0.0158,-0.0602,0.1557,-0.0016,0.0123,0.0005,-29.94,-34.8,-2.46,,adl
5.479416,-0.0158,-0.0602,0.1557,-0.0016,0.0123,0.0005,-29.94,-34.86,-2.28,,adl
5.480923,-0.0158,-0.0602,0.1557,-0.0048,-0.0011,0.0027,-29.94,-34.86,-2.28,,adl
5.495342,-0.0158,-0.0602,0.1557,-0.0048,-0.0011,0.0027,-29.94,-34.86,-2.28,,adl
5.496403,-0.0408,0.0488,0.1701,-0.0048,-0.0011,0.0027,-29.94,-34.86,-2.28,,adl
5.500499,-0.0408,0.0488,0.1701,0.0,-0.0101,0.0037,-29.94,-34.86,-2.28,,adl
5.519207,-0.0408,0.0488,0.1701,0.0075,-0.0069,0.0032,-29.94,-34.86,-2.28,,adl
5.541231,-0.0408,0.0488,0.1701,0.0075,-0.0069,0.0032,-30.06,-34.86,-1.92,,adl
5.542789,-0.0408,0.0488,0.1701,0.0032,-0.0005,-0.0011,-30.06,-34.86,-1.92,,adl
5.5567,-0.0408,0.0488,0.1701,0.0032,-0.0005,-0.0011,-30.06,-34.86,-1.92,,adl
5.558272,0.044,-0.0203,0.1653,0.0032,-0.0005,-0.0011,-30.06,-34.86,-1.92,,adl
5.560889,0.044,-0.0203,0.1653,-0.0064,0.0016,-0.0032,-30.06,-34.86,-1.92,,adl
5.581071,0.044,-0.0203,0.1653,-0.0021,0.0037,-0.0032,-30.06,-34.86,-1.92,,adl
5.602597,0.044,-0.0203,0.1653,-0.0021,0.0037,-0.0032,-30.06,-34.86,-1.44,,adl
5.604075,0.044,-0.0203,0.1653,0.0037,0.0037,-0.0011,-30.06,-34.86,-1.44,,adl
5.618559,0.044,-0.0203,0.1653,0.0037,0.0037,-0.0011,-30.06,-34.86,-1.44,,adl
5.620007,-0.0187,-0.0558,0.139,0.0037,0.0037,-0.0011,-30.06,-34.86,-1.44,,adl
5.622294,-0.0187,-0.0558,0.139,0.0064,0.0011,0.0005,-30.06,-34.86,-1.44,,adl
5.643297,-0.0187,-0.0558,0.139,0.0043,0.0016,0.0016,-30.06,-34.86,-1.44,,adl
5.664072,-0.0187,-0.0558,0.139,0.0043,0.0016,0.0016,-29.88,-34.8,-1.92,,adl
5.665685,-0.0187,-0.0558,0.139,0.0021,0.0059,0.0037,-29.88,-34.8,-1.92,,adl
5.680182,-0.0187,-0.0558,0.139,0.0021,0.0059,0.0037,-29.88,-34.8,-1.92,,adl
5.681775,-0.0239,0.0349,0.1701,0.0021,0.0059,0.0037,-29.88,-34.8,-1.92,,adl
5.683034,-0.0239,0.0349,0.1701,0.0011,0.0016,0.0027,-29.88,-34.8,-1.92,,adl
5.704351,-0.0239,0.0349,0.1701,-0.0005,-0.0027,0.0021,-29.88,-34.8,-1.92,,adl
5.725488,-0.0239,0.0349,0.1701,-0.0005,-0.0027,0.0021,-30.12,-34.98,-2.46,,adl
5.727345,-0.0239,0.0349,0.1701,0.0016,-0.0048,-0.0011,-30.12,-34.98,-2.46,,adl
5.741852,-0.0239,0.0349,0.1701,0.0016,-0.0048,-0.0011,-30.12,-34.98,-2.46,,adl
5.743483,-0.0242,-0.0342,0.1414,0.0016,-0.0048,-0.0011,-30.12,-34.98,-2.46,,adl
5.744571,-0.0242,-0.0342,0.1414,0.0032,-0.0043,0.0005,-30.12,-34.98,-2.46,,adl
5.76615,-0.0242,-0.0342,0.1414,0.0016,0.0,0.0032,-30.12,-34.98,-2.46,,adl
5.786971,-0.0242,-0.0342,0.1414,0.0016,0.0,0.0032,-30.0,-35.04,-2.64,,adl
5.788486,-0.0242,-0.0342,0.1414,-0.0005,-0.0021,0.0037,-30.0,-35.04,-2.64,,adl
5.801929,-0.0242,-0.0342,0.1414,-0.0005,-0.0021,0.0037,-30.0,-35.04,-2.64,,adl
5.803494,0.0294,0.0318,0.1725,-0.0005,-0.0021,0.0037,-30.0,-35.04,-2.64,,adl
5.806617,0.0294,0.0318,0.1725,0.0011,0.0,0.0016,-30.0,-35.04,-2.64,,adl
5.827495,0.0294,0.0318,0.1725,0.0043,0.0027,-0.0027,-30.0,-35.04,-2.64,,adl
5.849291,0.0294,0.0318,0.1725,0.0043,0.0027,-0.0027,-30.06,-35.04,-2.64,,adl
5.851118,0.0294,0.0318,0.1725,0.0021,0.0064,-0.0037,-30.06,-35.04,-2.64,,adl
5.864862,0.0294,0.0318,0.1725,0.0021,0.0064,-0.0037,-30.06,-35.04,-2.64,,adl
5.865784,0.0095,-0.034,0.1581,0.0021,0.0064,-0.0037,-30.06,-35.04,-2.64,,adl
5.869701,0.0095,-0.034,0.1581,0.0005,0.0021,-0.0043,-30.06,-35.04,-2.64,,adl
5.889137,0.0095,-0.034,0.1581,-0.0016,-0.0037,-0.0016,-30.06,-35.04,-2.64,,adl
5.91035,0.0095,-0.034,0.1581,-0.0016,-0.0037,-0.0016,-30.12,-35.28,-2.22,,adl
5.911923,0.0095,-0.034,0.1581,0.0011,-0.0032,-0.0011,-30.12,-35.28,-2.22,,adl
5.926071,0.0095,-0.034,0.1581,0.0011,-0.0032,-0.0011,-30.12,-35.28,-2.22,,adl
5.927636,-0.013,-0.0145,0.1485,0.0011,-0.0032,-0.0011,-30.12,-35.28,-2.22,,adl
5.92991,-0.013,-0.0145,0.1485,0.0021,0.0043,0.0,-30.12,-35.28,-2.22,,adl
5.95106,-0.013,-0.0145,0.1485,0.0005,0.008,0.0021,-30.12,-35.28,-2.22,,adl
5.972203,-0.013,-0.0145,0.1485,0.0005,0.008,0.0021,-29.76,-35.22,-1.5,,adl
5.973709,-0.013,-0.0145,0.1485,-0.0021,0.0027,0.0021,-29.76,-35.22,-1.5,,adl
5.987182,-0.013,-0.0145,0.1485,-0.0021,0.0027,0.0021,-29.76,-35.22,-1.5,,adl
5.988718,-0.0004,-0.0143,0.1366,-0.0021,0.0027,0.0021,-29.76,-35.22,-1.5,,adl
5.992143,-0.0004,-0.0143,0.1366,0.0011,-0.0021,0.0,-29.76,-35.22,-1.5,,adl
6.011697,-0.0004,-0.0143,0.1366,-0.0005,-0.008,0.0011,-29.76,-35.22,-1.5,,adl
6.033496,-0.0004,-0.0143,0.1366,-0.0005,-0.008,0.0011,-29.88,-35.52,-1.32,,adl
6.035347,-0.0004,-0.0143,0.1366,0.0,-0.0064,0.0005,-29.88,-35.52,-1.32,,adl
6.048343,-0.0004,-0.0143,0.1366,0.0,-0.0064,0.0005,-29.88,-35.52,-1.32,,adl
6.049255,-0.0036,-0.021,0.1533,0.0,-0.0064,0.0005,-29.88,-35.52,-1.32,,adl
6.052993,-0.0036,-0.021,0.1533,0.0005,-0.0016,0.0005,-29.88,-35.52,-1.32,,adl
6.074138,-0.0036,-0.021,0.1533,-0.0005,0.0043,0.0016,-29.88,-35.52,-1.32,,adl
6.094035,-0.0036,-0.021,0.1533,-0.0005,0.0043,0.0016,-29.64,-35.64,-1.5,,adl
6.095608,-0.0036,-0.021,0.1533,0.0016,0.0075,0.0005,-29.64,-35.64,-1.5,,adl
6.109719,-0.0036,-0.021,0.1533,0.0016,0.0075,0.0005,-29.64,-35.64,-1.5,,adl
6.111314,-0.0135,-0.0044,0.1701,0.0016,0.0075,0.0005,-29.64,-35.64,-1.5,,adl
6.115034,-0.0135,-0.0044,0.1701,0.0,0.0021,0.0,-29.64,-35.64,-1.5,,adl
6.135597,-0.0135,-0.0044,0.1701,0.0021,-0.0043,0.0005,-29.64,-35.64,-1.5,,adl
6.156873,-0.0135,-0.0044,0.1701,0.0021,-0.0043,0.0005,-29.82,-35.04,-1.32,,adl
6.158335,-0.0135,-0.0044,0.1701,0.0027,-0.0043,0.0,-29.82,-35.04,-1.32,,adl
6.172566,-0.0135,-0.0044,0.1701,0.0027,-0.0043,0.0,-29.82,-35.04,-1.32,,adl
6.174039,0.0325,0.0556,0.1629,0.0027,-0.0043,0.0,-29.82,-35.04,-1.32,,adl
6.176598,0.0325,0.0556,0.1629,0.0032,-0.008,0.0016,-29.82,-35.04,-1.32,,adl
6.197283,0.0325,0.0556,0.1629,-0.0005,-0.0037,-0.0016,-29.82,-35.04,-1.32,,adl
6.217661,0.0325,0.0556,0.1629,-0.0005,-0.0037,-0.0016,-29.76,-35.22,-1.62,,adl
6.219328,0.0325,0.0556,0.1629,-0.0037,0.0096,-0.0037,-29.76,-35.22,-1.62,,adl
6.234584,0.0325,0.0556,0.1629,-0.0037,0.0096,-0.0037,-29.76,-35.22,-1.62,,adl
6.236054,-0.0066,-0.1295,0.1414,-0.0037,0.0096,-0.0037,-29.76,-35.22,-1.62,,adl
6.237303,-0.0066,-0.1295,0.1414,-0.0016,0.0176,-0.0016,-29.76,-35.22,-1.62,,adl
6.258281,-0.0066,-0.1295,0.1414,-0.0043,0.0112,0.0021,-29.76,-35.22,-1.62,,adl
6.279834,-0.0066,-0.1295,0.1414,-0.0043,0.0112,0.0021,-30.0,-34.92,-2.04,,adl
6.281547,-0.0066,-0.1295,0.1414,-0.0032,-0.0011,0.0016,-30.0,-34.92,-2.04,,adl
6.295861,-0.0066,-0.1295,0.1414,-0.0032,-0.0011,0.0016,-30.0,-34.92,-2.04,,adl
6.29699,-0.0618,0.0587,0.1749,-0.0032,-0.0011,0.0016,-30.0,-34.92,-2.04,,adl
6.301027,-0.0618,0.0587,0.1749,0.0037,-0.0075,0.0027,-30.0,-34.92,-2.04,,adl
6.31924,-0.0618,0.0587,0.1749,0.0059,-0.0016,0.0005,-30.0,-34.92,-2.04,,adl
6.341377,-0.0618,0.0587,0.1749,0.0059,-0.0016,0.0005,-30.24,-34.5,-2.28,,adl
6.343082,-0.0618,0.0587,0.1749,-0.0037,0.0005,-0.0016,-30.24,-34.5,-2.28,,adl
6.357344,-0.0618,0.0587,0.1749,-0.0037,0.0005,-0.0016,-30.24,-34.5,-2.28,,adl
6.359068,0.0323,-0.0143,0.1557,-0.0037,0.0005,-0.0016,-30.24,-34.5,-2.28,,adl
6.360095,0.0323,-0.0143,0.1557,-0.0037,-0.0021,-0.0027,-30.24,-34.5,-2.28,,adl
6.382394,0.0323,-0.0143,0.1557,0.0016,-0.0085,-0.0005,-30.24,-34.5,-2.28,,adl
6.402381,0.0323,-0.0143,0.1557,0.0016,-0.0085,-0.0005,-30.36,-34.5,-2.4,,adl
6.403903,0.0323,-0.0143,0.1557,0.0027,-0.0133,0.0016,-30.36,-34.5,-2.4,,adl
6.418755,0.0323,-0.0143,0.1557,0.0027,-0.0133,0.0016,-30.36,-34.5,-2.4,,adl
6.420264,0.0247,-0.0095,0.139,0.0027,-0.0133,0.0016,-30.36,-34.5,-2.4,,adl
6.422852,0.0247,-0.0095,0.139,0.0064,-0.0016,0.0021,-30.36,-34.5,-2.4,,adl
6.442413,0.0247,-0.0095,0.139,0.0064,0.0154,0.0011,-30.36,-34.5,-2.4,,adl
6.464814,0.0247,-0.0095,0.139,0.0064,0.0154,0.0011,-30.72,-34.5,-2.94,,adl
6.466402,0.0247,-0.0095,0.139,0.0011,0.0181,0.0,-30.72,-34.5,-2.94,,adl
6.480762,0.0247,-0.0095,0.139,0.0011,0.0181,0.0,-30.72,-34.5,-2.94,,adl
6.481735,-0.0048,-0.0145,0.1701,0.0011,0.0181,0.0,-30.72,-34.5,-2.94,,adl
6.485914,-0.0048,-0.0145,0.1701,0.0027,0.0027,0.0011,-30.72,-34.5,-2.94,,adl
6.504092,-0.0048,-0.0145,0.1701,0.0043,-0.0048,-0.0016,-30.72,-34.5,-2.94,,adl
6.52606,-0.0048,-0.0145,0.1701,0.0043,-0.0048,-0.0016,-30.84,-34.68,-2.76,,adl
6.527613,-0.0048,-0.0145,0.1701,0.0043,-0.0032,0.0,-30.84,-34.68,-2.76,,adl
6.541707,-0.0048,-0.0145,0.1701,0.0043,-0.0032,0.0,-30.84,-34.68,-2.76,,adl
6.543328,-0.0635,-0.041,0.1414,0.0043,-0.0032,0.0,-30.84,-34.68,-2.76,,adl
6.545743,-0.0635,-0.041,0.1414,0.0,-0.0032,0.0021,-30.84,-34.68,-2.76,,adl
6.566835,-0.0635,-0.041,0.1414,-0.0021,-0.0043,0.0032,-30.84,-34.68,-2.76,,adl
6.587809,-0.0635,-0.041,0.1414,-0.0021,-0.0043,0.0032,-30.9,-34.92,-2.52,,adl
6.589363,-0.0635,-0.041,0.1414,-0.0011,-0.0053,-0.0005,-30.9,-34.92,-2.52,,adl
6.605227,-0.0635,-0.041,0.1414,-0.0011,-0.0053,-0.0005,-30.9,-34.92,-2.52,,adl
6.609897,-0.0122,0.0707,0.1653,-0.0011,-0.0053,-0.0005,-30.9,-34.92,-2.52,,adl
6.611201,-0.0122,0.0707,0.1653,0.0027,-0.0059,-0.0021,-30.9,-34.92,-2.52,,adl
6.626628,-0.0122,0.0707,0.1653,0.0005,-0.0053,-0.0016,-30.9,-34.92,-2.52,,adl
6.649389,-0.0122,0.0707,0.1653,0.0005,-0.0053,-0.0016,-30.9,-35.46,-2.46,,adl
6.651124,-0.0122,0.0707,0.1653,0.0,-0.0064,0.0,-30.9,-35.46,-2.46,,adl
6.664636,-0.0122,0.0707,0.1653,0.0,-0.0064,0.0,-30.9,-35.46,-2.46,,adl
6.665524,0.0577,-0.0514,0.1533,0.0,-0.0064,0.0,-30.9,-35.46,-2.46,,adl
6.669381,0.0577,-0.0514,0.1533,-0.0016,-0.0096,0.0011,-30.9,-35.46,-2.46,,adl
6.68968,0.0577,-0.0514,0.1533,0.0021,-0.0107,0.0005,-30.9,-35.46,-2.46,,adl
6.710348,0.0577,-0.0514,0.1533,0.0021,-0.0107,0.0005,-30.3,-35.1,-1.56,,adl
6.712323,0.0577,-0.0514,0.1533,0.0043,-0.0005,-0.0021,-30.3,-35.1,-1.56,,adl
6.726763,0.0577,-0.0514,0.1533,0.0043,-0.0005,-0.0021,-30.3,-35.1,-1.56,,adl
6.728297,0.0262,-0.011,0.1605,0.0043,-0.0005,-0.0021,-30.3,-35.1,-1.56,,adl
6.729864,0.0262,-0.011,0.1605,0.0048,0.016,-0.0021,-30.3,-35.1,-1.56,,adl
6.751135,0.0262,-0.011,0.1605,0.0048,0.0218,-0.0027,-30.3,-35.1,-1.56,,adl
6.772441,0.0262,-0.011,0.1605,0.0048,0.0218,-0.0027,-30.66,-35.46,-1.44,,adl
6.773911,0.0262,-0.011,0.1605,-0.0011,0.0138,-0.0005,-30.66,-35.46,-1.44,,adl
6.788252,0.0262,-0.011,0.1605,-0.0011,0.0138,-0.0005,-30.66,-35.46,-1.44,,adl
6.789717,-0.0398,-0.0264,0.1462,-0.0011,0.0138,-0.0005,-30.66,-35.46,-1.44,,adl
6.792638,-0.0398,-0.0264,0.1462,0.0011,-0.0011,0.0011,-30.66,-35.46,-1.44,,adl
6.812761,-0.0398,-0.0264,0.1462,0.0,-0.008,0.0,-30.66,-35.46,-1.44,,adl
6.834772,-0.0398,-0.0264,0.1462,0.0,-0.008,0.0,-30.54,-35.28,-1.2,,adl
6.83638,-0.0398,-0.0264,0.1462,-0.0011,-0.0096,0.0016,-30.54,-35.28,-1.2,,adl
6.851459,-0.0398,-0.0264,0.1462,-0.0011,-0.0096,0.0016,-30.54,-35.28,-1.2,,adl
6.852901,-0.0535,-0.0018,0.1509,-0.0011,-0.0096,0.0016,-30.54,-35.28,-1.2,,adl
6.85405,-0.0535,-0.0018,0.1509,0.0005,-0.0053,0.0021,-30.54,-35.28,-1.2,,adl
6.874648,-0.0535,-0.0018,0.1509,-0.0005,-0.0043,0.0005,-30.54,-35.28,-1.2,,adl
6.895046,-0.0535,-0.0018,0.1509,-0.0005,-0.0043,0.0005,-30.3,-34.98,-1.5,,adl
6.896413,-0.0535,-0.0018,0.1509,-0.0011,-0.0027,-0.0016,-30.3,-34.98,-1.5,,adl
6.911028,-0.0535,-0.0018,0.1509,-0.0011,-0.0027,-0.0016,-30.3,-34.98,-1.5,,adl
6.912569,-0.0005,0.008,0.1557,-0.0011,-0.0027,-0.0016,-30.3,-34.98,-1.5,,adl
6.917157,-0.0005,0.008,0.1557,0.0011,-0.0043,-0.0011,-30.3,-34.98,-1.5,,adl
6.936152,-0.0005,0.008,0.1557,0.0027,-0.008,-0.0021,-30.3,-34.98,-1.5,,adl
6.957588,-0.0005,0.008,0.1557,0.0027,-0.008,-0.0021,-30.9,-34.8,-1.92,,adl
6.959317,-0.0005,0.008,0.1557,0.0011,-0.0075,-0.0027,-30.9,-34.8,-1.92,,adl
6.973442,-0.0005,0.008,0.1557,0.0011,-0.0075,-0.0027,-30.9,-34.8,-1.92,,adl
6.975143,0.066,-0.028,0.1485,0.0011,-0.0075,-0.0027,-30.9,-34.8,-1.92,,adl
6.977873,0.066,-0.028,0.1485,0.0,-0.0037,0.0,-30.9,-34.8,-1.92,,adl
6.996114,0.066,-0.028,0.1485,0.0005,-0.0005,0.0011,-30.9,-34.8,-1.92,,adl
7.017553,0.066,-0.028,0.1485,0.0005,-0.0005,0.0011,-30.06,-34.14,-1.92,,adl
7.01922,0.066,-0.028,0.1485,0.0032,0.0043,0.0016,-30.06,-34.14,-1.92,,adl
7.033077,0.066,-0.028,0.1485,0.0032,0.0043,0.0016,-30.06,-34.14,-1.92,,adl
7.034363,0.0331,-0.0182,0.1461,0.0032,0.0043,0.0016,-30.06,-34.14,-1.92,,adl
7.037641,0.0331,-0.0182,0.1461,0.0016,0.0085,-0.0005,-30.06,-34.14,-1.92,,adl
7.059119,0.0331,-0.0182,0.1461,-0.0011,0.0186,-0.0027,-30.06,-34.14,-1.92,,adl
7.079628,0.0331,-0.0182,0.1461,-0.0011,0.0186,-0.0027,-30.06,-34.32,-2.28,,adl
7.081164,0.0331,-0.0182,0.1461,-0.0016,0.0192,0.0,-30.06,-34.32,-2.28,,adl
7.096494,0.0331,-0.0182,0.1461,-0.0016,0.0192,0.0,-30.06,-34.32,-2.28,,adl
7.09763,-0.0832,-0.0078,0.1629,-0.0016,0.0192,0.0,-30.06,-34.32,-2.28,,adl
7.101605,-0.0832,-0.0078,0.1629,-0.0048,0.0075,0.0043,-30.06,-34.32,-2.28,,adl
7.121074,-0.0832,-0.0078,0.1629,-0.0043,-0.008,0.0021,-30.06,-34.32,-2.28,,adl
7.141845,-0.0832,-0.0078,0.1629,-0.0043,-0.008,0.0021,-29.82,-34.5,-2.22,,adl
7.143449,-0.0832,-0.0078,0.1629,0.0048,-0.017,0.0037,-29.82,-34.5,-2.22,,adl
7.158006,-0.0832,-0.0078,0.1629,0.0048,-0.017,0.0037,-29.82,-34.5,-2.22,,adl
7.159562,0.0139,0.0641,0.1366,0.0048,-0.017,0.0037,-29.82,-34.5,-2.22,,adl
7.160759,0.0139,0.0641,0.1366,0.0059,-0.0123,0.0005,-29.82,-34.5,-2.22,,adl
7.182427,0.0139,0.0641,0.1366,-0.0032,-0.0021,-0.0043,-29.82,-34.5,-2.22,,adl
7.203503,0.0139,0.0641,0.1366,-0.0032,-0.0021,-0.0043,-29.76,-35.16,-2.1,,adl
7.205087,0.0139,0.0641,0.1366,-0.0053,0.0021,-0.008,-29.76,-35.16,-2.1,,adl
7.219221,0.0139,0.0641,0.1366,-0.0053,0.0021,-0.008,-29.76,-35.16,-2.1,,adl
7.220933,0.0456,-0.1087,0.1701,-0.0053,0.0021,-0.008,-29.76,-35.16,-2.1,,adl
7.223106,0.0456,-0.1087,0.1701,0.0021,-0.0016,-0.0096,-29.76,-35.16,-2.1,,adl
7.244179,0.0456,-0.1087,0.1701,0.0048,-0.0021,-0.008,-29.76,-35.16,-2.1,,adl
7.264706,0.0456,-0.1087,0.1701,0.0048,-0.0021,-0.008,-30.06,-35.16,-2.28,,adl
7.266247,0.0456,-0.1087,0.1701,0.0059,0.0016,-0.0005,-30.06,-35.16,-2.28,,adl
7.280519,0.0456,-0.1087,0.1701,0.0059,0.0016,-0.0005,-30.06,-35.16,-2.28,,adl
7.281427,-0.0513,-0.0539,0.1462,0.0059,0.0016,-0.0005,-30.06,-35.16,-2.28,,adl
7.285469,-0.0513,-0.0539,0.1462,0.0,0.0101,0.0037,-30.06,-35.16,-2.28,,adl
7.304612,-0.0513,-0.0539,0.1462,-0.0016,0.0059,0.0075,-30.06,-35.16,-2.28,,adl
7.326423,-0.0513,-0.0539,0.1462,-0.0016,0.0059,0.0075,-30.0,-35.16,-2.1,,adl
7.328066,-0.0513,-0.0539,0.1462,-0.0016,-0.0069,0.008,-30.0,-35.16,-2.1,,adl
7.34277,-0.0513,-0.0539,0.1462,-0.0016,-0.0069,0.008,-30.0,-35.16,-2.1,,adl
7.344274,0.0008,0.0377,0.1246,-0.0016,-0.0069,0.008,-30.0,-35.16,-2.1,,adl
7.345118,0.0008,0.0377,0.1246,0.0005,-0.008,0.0021,-30.0,-35.16,-2.1,,adl
7.367173,0.0008,0.0377,0.1246,0.0043,-0.0069,0.0027,-30.0,-35.16,-2.1,,adl
7.388405,0.0008,0.0377,0.1246,0.0043,-0.0069,0.0027,-30.0,-34.74,-1.8,,adl
7.389807,0.0008,0.0377,0.1246,-0.0005,-0.0059,0.0048,-30.0,-34.74,-1.8,,adl
7.404218,0.0008,0.0377,0.1246,-0.0005,-0.0059,0.0048,-30.0,-34.74,-1.8,,adl
7.405705,0.0322,0.0104,0.1725,-0.0005,-0.0059,0.0048,-30.0,-34.74,-1.8,,adl
7.407431,0.0322,0.0104,0.1725,-0.0011,-0.0011,0.0032,-30.0,-34.74,-1.8,,adl
7.428431,0.0322,0.0104,0.1725,-0.0005,0.0032,0.0037,-30.0,-34.74,-1.8,,adl
7.449801,0.0322,0.0104,0.1725,-0.0005,0.0032,0.0037,-29.7,-34.5,-2.04,,adl
7.451575,0.0322,0.0104,0.1725,0.0048,0.0016,0.0048,-29.7,-34.5,-2.04,,adl
7.467382,0.0322,0.0104,0.1725,0.0048,0.0016,0.0048,-29.7,-34.5,-2.04,,adl
7.468742,0.0479,0.014,0.139,0.0048,0.0016,0.0048,-29.7,-34.5,-2.04,,adl
7.469604,0.0479,0.014,0.139,0.0043,0.0085,0.0016,-29.7,-34.5,-2.04,,adl
7.490645,0.0479,0.014,0.139,0.0011,0.0101,-0.0032,-29.7,-34.5,-2.04,,adl
7.51062,0.0479,0.014,0.139,0.0011,0.0101,-0.0032,-29.52,-34.8,-2.04,,adl
7.512217,0.0479,0.014,0.139,0.0021,0.0165,-0.0059,-29.52,-34.8,-2.04,,adl
7.527061,0.0479,0.014,0.139,0.0021,0.0165,-0.0059,-29.52,-34.8,-2.04,,adl
7.528728,-0.0733,-0.0394,0.1653,0.0021,0.0165,-0.0059,-29.52,-34.8,-2.04,,adl
7.531375,-0.0733,-0.0394,0.1653,0.0043,0.0085,-0.0027,-29.52,-34.8,-2.04,,adl
7.55182,-0.0733,-0.0394,0.1653,0.0011,-0.0011,0.0016,-29.52,-34.8,-2.04,,adl
7.572943,-0.0733,-0.0394,0.1653,0.0011,-0.0011,0.0016,-29.58,-34.86,-2.28,,adl
7.574363,-0.0733,-0.0394,0.1653,-0.0011,-0.0037,0.0011,-29.58,-34.86,-2.28,,adl
7.588919,-0.0733,-0.0394,0.1653,-0.0011,-0.0037,0.0011,-29.58,-34.86,-2.28,,adl
7.590424,-0.0773,-0.0193,0.1725,-0.0011,-0.0037,0.0011,-29.58,-34.86,-2.28,,adl
7.591806,-0.0773,-0.0193,0.1725,-0.0027,-0.0027,0.0037,-29.58,-34.86,-2.28,,adl
7.611848,-0.0773,-0.0193,0.1725,-0.0005,-0.0085,0.0011,-29.58,-34.86,-2.28,,adl
7.63347,-0.0773,-0.0193,0.1725,-0.0005,-0.0085,0.0011,-29.52,-34.98,-2.52,,adl
7.63404,-0.0773,-0.0193,0.1725,-0.0005,-0.017,0.0032,-29.52,-34.98,-2.52,,adl
7.648786,-0.0773,-0.0193,0.1725,-0.0005,-0.017,0.0032,-29.52,-34.98,-2.52,,adl
7.649258,0.0606,0.0316,0.1438,-0.0005,-0.017,0.0032,-29.52,-34.98,-2.52,,adl
7.652967,0.0606,0.0316,0.1438,0.0005,-0.0149,0.0021,-29.52,-34.98,-2.52,,adl
7.673379,0.0606,0.0316,0.1438,0.0,-0.0064,0.0005,-29.52,-34.98,-2.52,,adl
7.694765,0.0606,0.0316,0.1438,0.0,-0.0064,0.0005,-29.58,-35.1,-2.52,,adl
7.695276,0.0606,0.0316,0.1438,0.0,-0.0053,-0.0011,-29.58,-35.1,-2.52,,adl
7.710406,0.0606,0.0316,0.1438,0.0,-0.0053,-0.0011,-29.58,-35.1,-2.52,,adl
7.710997,0.0934,-0.0297,0.1797,0.0,-0.0053,-0.0011,-29.58,-35.1,-2.52,,adl
7.71479,0.0934,-0.0297,0.1797,0.0005,0.0032,-0.0043,-29.58,-35.1,-2.52,,adl
7.735278,0.0934,-0.0297,0.1797,0.0016,0.0138,-0.0037,-29.58,-35.1,-2.52,,adl
7.75644,0.0934,-0.0297,0.1797,0.0016,0.0138,-0.0037,-29.34,-35.16,-2.7,,adl
7.756982,0.0934,-0.0297,0.1797,0.0032,0.0186,-0.0011,-29.34,-35.16,-2.7,,adl
7.771786,0.0934,-0.0297,0.1797,0.0032,0.0186,-0.0011,-29.34,-35.16,-2.7,,adl
7.772271,-0.0358,0.0028,0.1486,0.0032,0.0186,-0.0011,-29.34,-35.16,-2.7,,adl
7.775886,-0.0358,0.0028,0.1486,0.0037,0.0069,0.0021,-29.34,-35.16,-2.7,,adl
7.797051,-0.0358,0.0028,0.1486,0.0021,0.0021,0.0037,-29.34,-35.16,-2.7,,adl
7.817871,-0.0358,0.0028,0.1486,0.0021,0.0021,0.0037,-29.34,-35.1,-2.76,,adl
7.818343,-0.0358,0.0028,0.1486,0.0016,0.0016,0.0037,-29.34,-35.1,-2.76,,adl
7.833424,-0.0358,0.0028,0.1486,0.0016,0.0016,0.0037,-29.34,-35.1,-2.76,,adl
7.833885,-0.0426,0.0342,0.1581,0.0016,0.0016,0.0037,-29.34,-35.1,-2.76,,adl
7.837351,-0.0426,0.0342,0.1581,0.0021,-0.0037,0.0032,-29.34,-35.1,-2.76,,adl
7.858182,-0.0426,0.0342,0.1581,-0.0005,-0.0085,0.0021,-29.34,-35.1,-2.76,,adl
7.879735,-0.0426,0.0342,0.1581,-0.0005,-0.0085,0.0021,-29.4,-35.58,-2.94,,adl
7.880373,-0.0426,0.0342,0.1581,-0.0037,-0.0005,0.0016,-29.4,-35.58,-2.94,,adl
7.895969,-0.0426,0.0342,0.1581,-0.0037,-0.0005,0.0016,-29.4,-35.58,-2.94,,adl
7.896409,-0.0221,-0.078,0.1653,-0.0037,-0.0005,0.0016,-29.4,-35.58,-2.94,,adl
7.899334,-0.0221,-0.078,0.1653,-0.0021,0.0096,0.0011,-29.4,-35.58,-2.94,,adl
7.919821,-0.0221,-0.078,0.1653,-0.0027,0.0069,0.0016,-29.4,-35.58,-2.94,,adl
7.940956,-0.0221,-0.078,0.1653,-0.0027,0.0069,0.0016,-29.4,-35.4,-3.18,,adl
7.941533,-0.0221,-0.078,0.1653,-0.0053,-0.0011,-0.0011,-29.4,-35.4,-3.18,,adl
7.957273,-0.0221,-0.078,0.1653,-0.0053,-0.0011,-0.0011,-29.4,-35.4,-3.18,,adl
7.957885,-0.0135,0.0714,0.1677,-0.0053,-0.0011,-0.0011,-29.4,-35.4,-3.18,,adl
7.960625,-0.0135,0.0714,0.1677,0.0043,-0.0043,0.0005,-29.4,-35.4,-3.18,,adl
7.981265,-0.0135,0.0714,0.1677,0.0053,0.0,-0.0011,-29.4,-35.4,-3.18,,adl
8.002934,-0.0135,0.0714,0.1677,0.0053,0.0,-0.0011,-29.64,-35.46,-2.88,,adl
8.003528,-0.0135,0.0714,0.1677,-0.0027,-0.0016,-0.0043,-29.64,-35.46,-2.88,,adl
8.017774,-0.0135,0.0714,0.1677,-0.0027,-0.0016,-0.0043,-29.64,-35.46,-2.88,,adl
8.018229,0.0447,-0.0163,0.1629,-0.0027,-0.0016,-0.0043,-29.64,-35.46,-2.88,,adl
8.022051,0.0447,-0.0163,0.1629,-0.0048,-0.0027,-0.0064,-29.64,-35.46,-2.88,,adl
8.042877,0.0447,-0.0163,0.1629,0.0005,-0.0032,-0.0037,-29.64,-35.46,-2.88,,adl
8.064367,0.0447,-0.0163,0.1629,0.0005,-0.0032,-0.0037,-29.52,-35.7,-2.82,,adl
8.064845,0.0447,-0.0163,0.1629,0.0053,-0.0027,-0.0021,-29.52,-35.7,-2.82,,adl
8.081154,0.0447,-0.0163,0.1629,0.0053,-0.0027,-0.0021,-29.52,-35.7,-2.82,,adl
8.081732,-0.0052,-0.058,0.151,0.0053,-0.0027,-0.0021,-29.52,-35.7,-2.82,,adl
8.084583,-0.0052,-0.058,0.151,0.0059,0.0027,0.0016,-29.52,-35.7,-2.82,,adl
8.106095,-0.0052,-0.058,0.151,0.0037,0.0138,0.0037,-29.52,-35.7,-2.82,,adl
8.12679,-0.0052,-0.058,0.151,0.0037,0.0138,0.0037,-29.52,-35.4,-2.58,,adl
8.128341,-0.0052,-0.058,0.151,0.0011,0.0075,0.0064,-29.52,-35.4,-2.58,,adl
8.142704,-0.0052,-0.058,0.151,0.0011,0.0075,0.0064,-29.52,-35.4,-2.58,,adl
8.144219,0.0068,0.0356,0.1701,0.0011,0.0075,0.0064,-29.52,-35.4,-2.58,,adl
8.14628,0.0068,0.0356,0.1701,-0.0027,-0.008,0.0075,-29.52,-35.4,-2.58,,adl
8.167143,0.0068,0.0356,0.1701,0.0005,-0.0085,0.0005,-29.52,-35.4,-2.58,,adl
8.188608,0.0068,0.0356,0.1701,0.0043,-0.0021,-0.0005,-29.52,-35.4,-2.58,,adl
8.190037,0.0068,0.0356,0.1701,0.0043,-0.0021,-0.0005,-29.52,-35.46,-2.34,,adl
8.204607,0.0068,0.0356,0.1701,0.0043,-0.0021,-0.0005,-29.52,-35.46,-2.34,,adl
8.206114,-0.0232,-0.0032,0.1629,0.0043,-0.0021,-0.0005,-29.52,-35.46,-2.34,,adl
8.208478,-0.0232,-0.0032,0.1629,0.0032,0.0037,-0.0011,-29.52,-35.46,-2.34,,adl
8.229127,-0.0232,-0.0032,0.1629,0.0011,0.0037,-0.0021,-29.52,-35.46,-2.34,,adl
8.250945,-0.0232,-0.0032,0.1629,0.0011,0.0037,-0.0021,-29.64,-35.22,-2.22,,adl
8.252421,-0.0232,-0.0032,0.1629,-0.0005,-0.0011,-0.0016,-29.64,-35.22,-2.22,,adl
8.267686,-0.0232,-0.0032,0.1629,-0.0005,-0.0011,-0.0016,-29.64,-35.22,-2.22,,adl
8.269129,-0.0282,0.0405,0.1653,-0.0005,-0.0011,-0.0016,-29.64,-35.22,-2.22,,adl
8.269992,-0.0282,0.0405,0.1653,0.0011,-0.0059,-0.0005,-29.64,-35.22,-2.22,,adl
8.29084,-0.0282,0.0405,0.1653,0.0016,-0.0048,-0.0011,-29.64,-35.22,-2.22,,adl
8.312646,-0.0282,0.0405,0.1653,0.0016,-0.0048,-0.0011,-29.58,-34.86,-1.68,,adl
8.314341,-0.0282,0.0405,0.1653,0.0,-0.0053,-0.0011,-29.58,-34.86,-1.68,,adl
8.327665,-0.0282,0.0405,0.1653,0.0,-0.0053,-0.0011,-29.58,-34.86,-1.68,,adl
8.328561,0.0307,-0.0364,0.1581,0.0,-0.0053,-0.0011,-29.58,-34.86,-1.68,,adl
8.331436,0.0307,-0.0364,0.1581,-0.0021,-0.0059,-0.0011,-29.58,-34.86,-1.68,,adl
8.351722,0.0307,-0.0364,0.1581,0.0,-0.0053,0.0,-29.58,-34.86,-1.68,,adl
8.373105,0.0307,-0.0364,0.1581,0.0,-0.0053,0.0,-29.64,-34.56,-1.56,,adl
8.374627,0.0307,-0.0364,0.1581,0.0032,0.0005,-0.0016,-29.64,-34.56,-1.56,,adl
8.389082,0.0307,-0.0364,0.1581,0.0032,0.0005,-0.0016,-29.64,-34.56,-1.56,,adl
8.390757,0.0069,-0.0149,0.1438,0.0032,0.0005,-0.0016,-29.64,-34.56,-1.56,,adl
8.39237,0.0069,-0.0149,0.1438,0.0048,0.0117,-0.0016,-29.64,-34.56,-1.56,,adl
8.414697,0.0069,-0.0149,0.1438,0.0011,0.0117,0.0005,-29.64,-34.56,-1.56,,adl
8.433974,0.0069,-0.0149,0.1438,0.0011,0.0117,0.0005,-29.82,-34.74,-1.56,,adl
8.435472,0.0069,-0.0149,0.1438,-0.0005,0.0048,0.0016,-29.82,-34.74,-1.56,,adl
8.450999,0.0069,-0.0149,0.1438,-0.0005,0.0048,0.0016,-29.82,-34.74,-1.56,,adl
8.45238,-0.028,-0.0085,0.1581,-0.0005,0.0048,0.0016,-29.82,-34.74,-1.56,,adl
8.454042,-0.028,-0.0085,0.1581,-0.0011,-0.0011,0.0027,-29.82,-34.74,-1.56,,adl
8.47475,-0.028,-0.0085,0.1581,0.0011,-0.0048,0.0016,-29.82,-34.74,-1.56,,adl
8.496556,-0.028,-0.0085,0.1581,0.0011,-0.0048,0.0016,-29.94,-34.86,-1.92,,adl
8.498112,-0.028,-0.0085,0.1581,0.0011,-0.0075,0.0027,-29.94,-34.86,-1.92,,adl
8.512386,-0.028,-0.0085,0.1581,0.0011,-0.0075,0.0027,-29.94,-34.86,-1.92,,adl
8.513494,0.0028,0.0032,0.1605,0.0011,-0.0075,0.0027,-29.94,-34.86,-1.92,,adl
8.517475,0.0028,0.0032,0.1605,0.0,-0.0048,0.0011,-29.94,-34.86,-1.92,,adl
8.537,0.0028,0.0032,0.1605,-0.0005,0.0027,0.0021,-29.94,-34.86,-1.92,,adl
8.557439,0.0028,0.0032,0.1605,0.0027,0.0059,0.0005,-29.94,-34.86,-1.92,,adl
8.559027,0.0028,0.0032,0.1605,0.0027,0.0059,0.0005,-30.6,-34.92,-2.22,,adl
8.573915,0.0028,0.0032,0.1605,0.0027,0.0059,0.0005,-30.6,-34.92,-2.22,,adl
8.575453,0.0177,-0.0208,0.1557,0.0027,0.0059,0.0005,-30.6,-34.92,-2.22,,adl
8.577071,0.0177,-0.0208,0.1557,0.0037,0.0048,0.0005,-30.6,-34.92,-2.22,,adl
8.598355,0.0177,-0.0208,0.1557,0.0027,-0.0011,-0.0011,-30.6,-34.92,-2.22,,adl
8.619549,0.0177,-0.0208,0.1557,0.0027,-0.0011,-0.0011,-30.84,-35.7,-2.22,,adl
8.621038,0.0177,-0.0208,0.1557,0.0005,-0.0016,0.0,-30.84,-35.7,-2.22,,adl
8.635817,0.0177,-0.0208,0.1557,0.0005,-0.0016,0.0,-30.84,-35.7,-2.22,,adl
8.637311,-0.0177,-0.0147,0.1653,0.0005,-0.0016,0.0,-30.84,-35.7,-2.22,,adl
8.638401,-0.0177,-0.0147,0.1653,0.0011,0.0011,-0.0011,-30.84,-35.7,-2.22,,adl
8.659667,-0.0177,-0.0147,0.1653,0.0005,0.0016,0.0,-30.84,-35.7,-2.22,,adl
8.681917,-0.0177,-0.0147,0.1653,0.0005,0.0016,0.0,-31.02,-35.4,-1.98,,adl
8.683585,-0.0177,-0.0147,0.1653,0.0016,-0.0011,0.0011,-31.02,-35.4,-1.98,,adl
8.697547,-0.0177,-0.0147,0.1653,0.0016,-0.0011,0.0011,-31.02,-35.4,-1.98,,adl
8.698574,-0.0006,0.0014,0.1581,0.0016,-0.0011,0.0011,-31.02,-35.4,-1.98,,adl
8.70265,-0.0006,0.0014,0.1581,0.0032,-0.0032,0.0048,-31.02,-35.4,-1.98,,adl
8.720576,-0.0006,0.0014,0.1581,0.0043,-0.0043,0.0032,-31.02,-35.4,-1.98,,adl
8.742937,-0.0006,0.0014,0.1581,0.0043,-0.0043,0.0032,-30.84,-34.92,-1.5,,adl
8.744556,-0.0006,0.0014,0.1581,0.0005,0.0011,-0.0021,-30.84,-34.92,-1.5,,adl
8.757388,-0.0006,0.0014,0.1581,0.0005,0.0011,-0.0021,-30.84,-34.92,-1.5,,adl
8.759383,0.0212,-0.0757,0.1462,0.0005,0.0011,-0.0021,-30.84,-34.92,-1.5,,adl
8.762524,0.0212,-0.0757,0.1462,-0.0037,0.0075,-0.0048,-30.84,-34.92,-1.5,,adl
8.783351,0.0212,-0.0757,0.1462,-0.0043,0.0123,-0.0027,-30.84,-34.92,-1.5,,adl
8.803457,0.0212,-0.0757,0.1462,-0.0043,0.0123,-0.0027,-30.36,-35.04,-1.14,,adl
8.80502,0.0212,-0.0757,0.1462,-0.0053,0.0048,0.0032,-30.36,-35.04,-1.14,,adl
8.820439,0.0212,-0.0757,0.1462,-0.0053,0.0048,0.0032,-30.36,-35.04,-1.14,,adl
8.821895,-0.0704,0.0301,0.1701,-0.0053,0.0048,0.0032,-30.36,-35.04,-1.14,,adl
8.82325,-0.0704,0.0301,0.1701,-0.0011,-0.0016,0.0043,-30.36,-35.04,-1.14,,adl
8.844839,-0.0704,0.0301,0.1701,0.0075,-0.0048,0.0037,-30.36,-35.04,-1.14,,adl
8.866137,-0.0704,0.0301,0.1701,0.0075,-0.0048,0.0037,-30.3,-34.68,-1.44,,adl
8.867976,-0.0704,0.0301,0.1701,0.0043,-0.0032,0.0,-30.3,-34.68,-1.44,,adl
8.881261,-0.0704,0.0301,0.1701,0.0043,-0.0032,0.0,-30.3,-34.68,-1.44,,adl
8.882165,0.063,0.0527,0.115,0.0043,-0.0032,0.0,-30.3,-34.68,-1.44,,adl
8.885652,0.063,0.0527,0.115,-0.0069,-0.0027,-0.0032,-30.3,-34.68,-1.44,,adl
8.906406,0.063,0.0527,0.115,-0.0059,-0.0016,-0.0043,-30.3,-34.68,-1.44,,adl
8.927029,0.063,0.0527,0.115,-0.0059,-0.0016,-0.0043,-30.36,-34.68,-1.74,,adl
8.928688,0.063,0.0527,0.115,0.0011,-0.0043,-0.0053,-30.36,-34.68,-1.74,,adl
8.943545,0.063,0.0527,0.115,0.0011,-0.0043,-0.0053,-30.36,-34.68,-1.74,,adl
8.945095,0.0147,-0.0864,0.139,0.0011,-0.0043,-0.0053,-30.36,-34.68,-1.74,,adl
8.946156,0.0147,-0.0864,0.139,0.0053,-0.0059,-0.0016,-30.36,-34.68,-1.74,,adl
8.967611,0.0147,-0.0864,0.139,0.0085,-0.0005,-0.0011,-30.36,-34.68,-1.74,,adl
8.989375,0.0147,-0.0864,0.139,0.0085,-0.0005,-0.0011,-30.24,-35.22,-2.22,,adl
8.991151,0.0147,-0.0864,0.139,0.0048,0.0149,0.0021,-30.24,-35.22,-2.22,,adl
9.004968,0.0147,-0.0864,0.139,0.0048,0.0149,0.0021,-30.24,-35.22,-2.22,,adl
9.006553,-0.0171,0.0272,0.1941,0.0048,0.0149,0.0021,-30.24,-35.22,-2.22,,adl
9.007909,-0.0171,0.0272,0.1941,-0.0016,0.0096,0.0059,-30.24,-35.22,-2.22,,adl
9.027933,-0.0171,0.0272,0.1941,-0.0016,-0.0037,0.0037,-30.24,-35.22,-2.22,,adl
9.050558,-0.0171,0.0272,0.1941,-0.0016,-0.0037,0.0037,-30.0,-35.28,-2.46,,adl
9.052079,-0.0171,0.0272,0.1941,0.0005,-0.0101,0.0011,-30.0,-35.28,-2.46,,adl
9.067242,-0.0171,0.0272,0.1941,0.0005,-0.0101,0.0011,-30.0,-35.28,-2.46,,adl
9.068612,-0.0107,-0.0366,0.0935,0.0005,-0.0101,0.0011,-30.0,-35.28,-2.46,,adl
9.069637,-0.0107,-0.0366,0.0935,0.0043,-0.0048,-0.0016,-30.0,-35.28,-2.46,,adl
9.09103,-0.0107,-0.0366,0.0935,0.0005,-0.0005,0.0021,-30.0,-35.28,-2.46,,adl
9.111693,-0.0107,-0.0366,0.0935,0.0005,-0.0005,0.0021,-30.12,-35.1,-2.46,,adl
9.113199,-0.0107,-0.0366,0.0935,-0.0027,-0.0016,0.0037,-30.12,-35.1,-2.46,,adl
9.128378,-0.0107,-0.0366,0.0935,-0.0027,-0.0016,0.0037,-30.12,-35.1,-2.46,,adl
9.129913,-0.0097,0.018,0.1988,-0.0027,-0.0016,0.0037,-30.12,-35.1,-2.46,,adl
9.131329,-0.0097,0.018,0.1988,0.0005,-0.0016,0.0,-30.12,-35.1,-2.46,,adl
9.15286,-0.0097,0.018,0.1988,0.0043,0.0005,-0.0037,-30.12,-35.1,-2.46,,adl
9.173176,-0.0097,0.018,0.1988,0.0043,0.0005,-0.0037,-29.94,-35.16,-2.52,,adl
9.174566,-0.0097,0.018,0.1988,0.0043,0.0064,-0.0048,-29.94,-35.16,-2.52,,adl
9.189792,-0.0097,0.018,0.1988,0.0043,0.0064,-0.0048,-29.94,-35.16,-2.52,,adl
9.191428,0.0081,-0.0195,0.1414,0.0043,0.0064,-0.0048,-29.94,-35.16,-2.52,,adl
9.192373,0.0081,-0.0195,0.1414,0.0,-0.0005,-0.0032,-29.94,-35.16,-2.52,,adl
9.214241,0.0081,-0.0195,0.1414,-0.0037,-0.0091,-0.0027,-29.94,-35.16,-2.52,,adl
9.234783,0.0081,-0.0195,0.1414,-0.0037,-0.0091,-0.0027,-30.36,-35.04,-2.28,,adl
9.236217,0.0081,-0.0195,0.1414,0.0027,-0.0117,-0.0027,-30.36,-35.04,-2.28,,adl
9.251105,0.0081,-0.0195,0.1414,0.0027,-0.0117,-0.0027,-30.36,-35.04,-2.28,,adl
9.252505,0.0156,-0.0259,0.1437,0.0027,-0.0117,-0.0027,-30.36,-35.04,-2.28,,adl
9.255307,0.0156,-0.0259,0.1437,0.0043,0.0005,-0.0032,-30.36,-35.04,-2.28,,adl
9.275507,0.0156,-0.0259,0.1437,0.0032,0.0107,-0.0021,-30.36,-35.04,-2.28,,adl
9.295576,0.0156,-0.0259,0.1437,0.0032,0.0107,-0.0021,-30.12,-34.86,-2.76,,adl
9.29612,0.0156,-0.0259,0.1437,0.0005,0.0101,0.0021,-30.12,-34.86,-2.76,,adl
9.313963,0.0156,-0.0259,0.1437,0.0005,0.0101,0.0021,-30.12,-34.86,-2.76,,adl
9.3156,-0.0089,-0.0174,0.1533,0.0005,0.0101,0.0021,-30.12,-34.86,-2.76,,adl
9.31584,-0.0089,-0.0174,0.1533,0.0,0.0021,0.0032,-30.12,-34.86,-2.76,,adl
9.336335,-0.0089,-0.0174,0.1533,0.0005,-0.0043,0.0021,-30.12,-34.86,-2.76,,adl
9.357509,-0.0089,-0.0174,0.1533,0.0005,-0.0043,0.0021,-29.82,-35.1,-2.82,,adl
9.358052,-0.0089,-0.0174,0.1533,0.0032,-0.0064,0.0021,-29.82,-35.1,-2.82,,adl
9.373307,-0.0089,-0.0174,0.1533,0.0032,-0.0064,0.0021,-29.82,-35.1,-2.82,,adl
9.374181,-0.0058,0.0082,0.1438,0.0032,-0.0064,0.0021,-29.82,-35.1,-2.82,,adl
9.376749,-0.0058,0.0082,0.1438,0.0,-0.0037,0.0011,-29.82,-35.1,-2.82,,adl
9.398132,-0.0058,0.0082,0.1438,-0.0032,-0.0005,0.0,-29.82,-35.1,-2.82,,adl
9.420191,-0.0058,0.0082,0.1438,-0.0032,-0.0005,0.0,-29.46,-34.74,-2.52,,adl
9.421494,-0.0058,0.0082,0.1438,-0.0011,0.0053,-0.0021,-29.46,-34.74,-2.52,,adl
9.436293,-0.0058,0.0082,0.1438,-0.0011,0.0053,-0.0021,-29.46,-34.74,-2.52,,adl
9.437599,-0.0032,-0.0171,0.1509,-0.0011,0.0053,-0.0021,-29.46,-34.74,-2.52,,adl
9.44021,-0.0032,-0.0171,0.1509,0.0005,0.0048,-0.0037,-29.46,-34.74,-2.52,,adl
9.459463,-0.0032,-0.0171,0.1509,0.0011,0.0011,-0.0016,-29.46,-34.74,-2.52,,adl
9.481995,-0.0032,-0.0171,0.1509,0.0011,0.0011,-0.0016,-29.28,-34.68,-2.82,,adl
9.483776,-0.0032,-0.0171,0.1509,0.0005,-0.0032,-0.0005,-29.28,-34.68,-2.82,,adl
9.497481,-0.0032,-0.0171,0.1509,0.0005,-0.0032,-0.0005,-29.28,-34.68,-2.82,,adl
9.498567,-0.0002,-0.008,0.1342,0.0005,-0.0032,-0.0005,-29.28,-34.68,-2.82,,adl
9.502063,-0.0002,-0.008,0.1342,-0.0016,-0.0064,0.0011,-29.28,-34.68,-2.82,,adl
9.522278,-0.0002,-0.008,0.1342,-0.0011,-0.0069,0.0021,-29.28,-34.68,-2.82,,adl
9.543177,-0.0002,-0.008,0.1342,-0.0011,-0.0069,0.0021,-29.7,-34.74,-2.52,,adl
9.544795,-0.0002,-0.008,0.1342,0.0005,-0.0037,0.0005,-29.7,-34.74,-2.52,,adl
9.559413,-0.0002,-0.008,0.1342,0.0005,-0.0037,0.0005,-29.7,-34.74,-2.52,,adl
9.561168,0.0248,0.0257,0.1581,0.0005,-0.0037,0.0005,-29.7,-34.74,-2.52,,adl
9.562235,0.0248,0.0257,0.1581,0.0021,-0.0011,0.0005,-29.7,-34.74,-2.52,,adl
9.582374,0.0248,0.0257,0.1581,0.0016,0.0011,-0.0011,-29.7,-34.74,-2.52,,adl
9.604197,0.0248,0.0257,0.1581,0.0016,0.0011,-0.0011,-29.64,-34.68,-2.34,,adl
9.605778,0.0248,0.0257,0.1581,-0.0021,0.0064,-0.0016,-29.64,-34.68,-2.34,,adl
9.620909,0.0248,0.0257,0.1581,-0.0021,0.0064,-0.0016,-29.64,-34.68,-2.34,,adl
9.622812,-0.0008,-0.0863,0.139,-0.0021,0.0064,-0.0016,-29.64,-34.68,-2.34,,adl
9.624297,-0.0008,-0.0863,0.139,-0.0037,0.008,-0.0011,-29.64,-34.68,-2.34,,adl
9.64564,-0.0008,-0.0863,0.139,-0.0032,0.0075,0.0016,-29.64,-34.68,-2.34,,adl
9.666946,-0.0008,-0.0863,0.139,-0.0032,0.0075,0.0016,-30.3,-35.1,-1.98,,adl
9.668686,-0.0008,-0.0863,0.139,-0.0037,0.0027,0.0037,-30.3,-35.1,-1.98,,adl
9.68121,-0.0008,-0.0863,0.139,-0.0037,0.0027,0.0037,-30.3,-35.1,-1.98,,adl
9.682115,-0.051,0.0705,0.1893,-0.0037,0.0027,0.0037,-30.3,-35.1,-1.98,,adl
9.685296,-0.051,0.0705,0.1893,-0.0005,-0.0032,0.0048,-30.3,-35.1,-1.98,,adl
9.706686,-0.051,0.0705,0.1893,0.0069,-0.0064,0.0016,-30.3,-35.1,-1.98,,adl
9.72834,-0.051,0.0705,0.1893,0.0069,-0.0064,0.0016,-30.24,-35.04,-1.56,,adl
9.730067,-0.051,0.0705,0.1893,0.0016,-0.0021,-0.0011,-30.24,-35.04,-1.56,,adl
9.743825,-0.051,0.0705,0.1893,0.0016,-0.0021,-0.0011,-30.24,-35.04,-1.56,,adl
9.745418,0.0398,-0.0055,0.1438,0.0016,-0.0021,-0.0011,-30.24,-35.04,-1.56,,adl
9.747108,0.0398,-0.0055,0.1438,-0.0037,0.0021,-0.0037,-30.24,-35.04,-1.56,,adl
9.768674,0.0398,-0.0055,0.1438,-0.0011,0.0053,-0.0016,-30.24,-35.04,-1.56,,adl
9.78902,0.0398,-0.0055,0.1438,-0.0011,0.0053,-0.0016,-30.3,-35.16,-1.2,,adl
9.790948,0.0398,-0.0055,0.1438,0.0032,-0.0011,-0.0016,-30.3,-35.16,-1.2,,adl
9.805457,0.0398,-0.0055,0.1438,0.0032,-0.0011,-0.0016,-30.3,-35.16,-1.2,,adl
9.807186,-0.0232,-0.0541,0.1414,0.0032,-0.0011,-0.0016,-30.3,-35.16,-1.2,,adl
9.808334,-0.0232,-0.0541,0.1414,0.0048,-0.0091,0.0,-30.3,-35.16,-1.2,,adl
9.830651,-0.0232,-0.0541,0.1414,0.0048,0.0032,0.0021,-30.3,-35.16,-1.2,,adl
9.851029,-0.0232,-0.0541,0.1414,0.0048,0.0032,0.0021,-30.48,-35.1,-1.2,,adl
9.852448,-0.0232,-0.0541,0.1414,0.0048,0.0176,0.0027,-30.48,-35.1,-1.2,,adl
9.867601,-0.0232,-0.0541,0.1414,0.0048,0.0176,0.0027,-30.48,-35.1,-1.2,,adl
9.869092,-0.0087,0.003,0.1773,0.0048,0.0176,0.0027,-30.48,-35.1,-1.2,,adl
9.870109,-0.0087,0.003,0.1773,0.0016,0.0085,0.0053,-30.48,-35.1,-1.2,,adl
9.891335,-0.0087,0.003,0.1773,0.0011,-0.0165,0.0037,-30.48,-35.1,-1.2,,adl
9.912087,-0.0087,0.003,0.1773,0.0011,-0.0165,0.0037,-29.94,-34.92,-1.38,,adl
9.913695,-0.0087,0.003,0.1773,-0.0005,-0.0176,0.0011,-29.94,-34.92,-1.38,,adl
9.92798,-0.0087,0.003,0.1773,-0.0005,-0.0176,0.0011,-29.94,-34.92,-1.38,,adl
9.929561,0.0005,-0.0188,0.127,-0.0005,-0.0176,0.0011,-29.94,-34.92,-1.38,,adl
9.932598,0.0005,-0.0188,0.127,0.0032,-0.0027,0.0005,-29.94,-34.92,-1.38,,adl
9.952294,0.0005,-0.0188,0.127,0.0048,0.0091,0.0016,-29.94,-34.92,-1.38,,adl
9.97468,0.0005,-0.0188,0.127,0.0048,0.0091,0.0016,-29.64,-34.8,-1.86,,adl
9.976215,0.0005,-0.0188,0.127,0.0027,0.0069,0.0005,-29.64,-34.8,-1.86,,adl
9.990089,0.0005,-0.0188,0.127,0.0027,0.0069,0.0005,-29.64,-34.8,-1.86,,adl
9.991566,-0.0016,0.003,0.1533,0.0027,0.0069,0.0005,-29.64,-34.8,-1.86,,adl
9.993838,-0.0016,0.003,0.1533,0.0011,-0.0037,-0.0032,-29.64,-34.8,-1.86,,adl
10.015079,-0.0016,0.003,0.1533,0.0037,-0.0021,0.0005,-29.64,-34.8,-1.86,,adl
10.036141,-0.0016,0.003,0.1533,0.0037,-0.0021,0.0005,-29.88,-34.92,-1.92,,adl
10.037634,-0.0016,0.003,0.1533,0.0,-0.0016,0.0021,-29.88,-34.92,-1.92,,adl
10.052318,-0.0016,0.003,0.1533,0.0,-0.0016,0.0021,-29.88,-34.92,-1.92,,adl
10.053776,0.0017,0.0559,0.1749,0.0,-0.0016,0.0021,-29.88,-34.92,-1.92,,adl
10.055053,0.0017,0.0559,0.1749,-0.0037,-0.0037,0.016,-29.88,-34.92,-1.92,,adl
10.076537,0.0017,0.0559,0.1749,0.6237,1.4972,-0.383,-29.88,-34.92,-1.92,,adl
10.09605,0.0017,0.0559,0.1749,0.6237,1.4972,-0.383,-30.12,-35.16,-2.28,,adl
10.096785,0.0017,0.0559,0.1749,0.2551,0.9854,-0.3025,-30.12,-35.16,-2.28,,adl
10.113457,0.0017,0.0559,0.1749,0.2551,0.9854,-0.3025,-30.12,-35.16,-2.28,,adl
10.114022,-0.2835,0.3411,-0.0005,0.2551,0.9854,-0.3025,-30.12,-35.16,-2.28,,adl
10.116242,-0.2835,0.3411,-0.0005,-0.4298,-0.84,-0.1097,-30.12,-35.16,-2.28,,adl
10.136892,-0.2835,0.3411,-0.0005,-0.5928,-1.9516,0.0186,-30.12,-35.16,-2.28,,adl
10.157758,-0.2835,0.3411,-0.0005,-0.5928,-1.9516,0.0186,-30.06,-35.28,-2.7,,adl
10.158553,-0.2835,0.3411,-0.0005,-0.2615,-1.3289,0.1598,-30.06,-35.28,-2.7,,adl
10.174223,-0.2835,0.3411,-0.0005,-0.2615,-1.3289,0.1598,-30.06,-35.28,-2.7,,adl
10.175159,0.4169,-0.3185,-0.6872,-0.2615,-1.3289,0.1598,-30.06,-35.28,-2.7,,adl
10.177737,0.4169,-0.3185,-0.6872,0.1779,0.3787,0.0075,-30.06,-35.28,-2.7,,adl
10.198778,0.4169,-0.3185,-0.6872,0.2658,1.2144,-0.0756,-30.06,-35.28,-2.7,,adl
10.219693,0.4169,-0.3185,-0.6872,0.2658,1.2144,-0.0756,-29.94,-35.58,-2.22,,adl
10.220556,0.4169,-0.3185,-0.6872,0.1071,0.8309,-0.0522,-29.94,-35.58,-2.22,,adl
10.235546,0.4169,-0.3185,-0.6872,0.1071,0.8309,-0.0522,-29.94,-35.58,-2.22,,adl
10.236434,-0.3689,0.1022,0.8927,0.1071,0.8309,-0.0522,-29.94,-35.58,-2.22,,adl
10.239384,-0.3689,0.1022,0.8927,-0.0985,-0.2871,0.0197,-29.94,-35.58,-2.22,,adl
10.260372,-0.3689,0.1022,0.8927,-0.1236,-0.6818,0.0405,-29.94,-35.58,-2.22,,adl
10.281444,-0.3689,0.1022,0.8927,-0.1236,-0.6818,0.0405,-29.22,-35.16,-2.7,,adl
10.282306,-0.3689,0.1022,0.8927,-0.0346,-0.3542,0.0261,-29.22,-35.16,-2.7,,adl
10.297943,-0.3689,0.1022,0.8927,-0.0346,-0.3542,0.0261,-29.22,-35.16,-2.7,,adl
10.299119,0.1223,0.0002,-0.2104,-0.0346,-0.3542,0.0261,-29.22,-35.16,-2.7,,adl
10.301067,0.1223,0.0002,-0.2104,0.0479,0.1475,-0.0101,-29.22,-35.16,-2.7,,adl
10.321962,0.1223,0.0002,-0.2104,0.0495,0.2999,-0.0154,-29.22,-35.16,-2.7,,adl
10.343145,0.1223,0.0002,-0.2104,0.0495,0.2999,-0.0154,-29.04,-35.28,-2.4,,adl
10.344055,0.1223,0.0002,-0.2104,0.0091,0.1917,0.0032,-29.04,-35.28,-2.4,,adl
10.359087,0.1223,0.0002,-0.2104,0.0091,0.1917,0.0032,-29.04,-35.28,-2.4,,adl
10.360018,-0.1721,0.0312,0.3641,0.0091,0.1917,0.0032,-29.04,-35.28,-2.4,,adl
10.362647,-0.1721,0.0312,0.3641,-0.0186,-0.0005,0.0053,-29.04,-35.28,-2.4,,adl
10.383292,-0.1721,0.0312,0.3641,-0.0224,-0.1475,-0.0005,-29.04,-35.28,-2.4,,adl
10.404397,-0.1721,0.0312,0.3641,-0.0224,-0.1475,-0.0005,-29.22,-35.34,-2.34,,adl
10.405321,-0.1721,0.0312,0.3641,-0.0107,-0.1784,-0.0037,-29.22,-35.34,-2.34,,adl
10.420401,-0.1721,0.0312,0.3641,-0.0107,-0.1784,-0.0037,-29.22,-35.34,-2.34,,adl
10.42126,0.1141,-0.0231,0.1078,-0.0107,-0.1784,-0.0037,-29.22,-35.34,-2.34,,adl
10.424158,0.1141,-0.0231,0.1078,0.0059,-0.0868,-0.0043,-29.22,-35.34,-2.34,,adl
10.445205,0.1141,-0.0231,0.1078,0.0144,0.1198,-0.0037,-29.22,-35.34,-2.34,,adl
10.466244,0.1141,-0.0231,0.1078,0.0144,0.1198,-0.0037,-29.4,-35.1,-2.7,,adl
10.46723,0.1141,-0.0231,0.1078,0.0117,0.1939,-0.0149,-29.4,-35.1,-2.7,,adl
10.481915,0.1141,-0.0231,0.1078,0.0117,0.1939,-0.0149,-29.4,-35.1,-2.7,,adl
10.482962,-0.1769,-0.0744,0.2324,0.0117,0.1939,-0.0149,-29.4,-35.1,-2.7,,adl
10.485886,-0.1769,-0.0744,0.2324,0.0,0.065,-0.0144,-29.4,-35.1,-2.7,,adl
10.506747,-0.1769,-0.0744,0.2324,-0.0261,-0.1262,-0.0027,-29.4,-35.1,-2.7,,adl
10.527747,-0.1769,-0.0744,0.2324,-0.033,-0.1284,0.0091,-29.4,-35.1,-2.7,,adl
10.528657,-0.1769,-0.0744,0.2324,-0.033,-0.1284,0.0091,-29.52,-35.22,-2.52,,adl
10.543976,-0.1769,-0.0744,0.2324,-0.033,-0.1284,0.0091,-29.52,-35.22,-2.52,,adl
10.544885,-0.0086,0.0284,0.17,-0.033,-0.1284,0.0091,-29.52,-35.22,-2.52,,adl
10.548067,-0.0086,0.0284,0.17,-0.0048,0.0117,0.0059,-29.52,-35.22,-2.52,,adl
10.568337,-0.0086,0.0284,0.17,0.0272,0.0927,-0.0037,-29.52,-35.22,-2.52,,adl
10.589451,-0.0086,0.0284,0.17,0.0272,0.0927,-0.0037,-29.1,-35.04,-2.22,,adl
10.590347,-0.0086,0.0284,0.17,0.0144,0.0123,-0.0085,-29.1,-35.04,-2.22,,adl
10.605207,-0.0086,0.0284,0.17,0.0144,0.0123,-0.0085,-29.1,-35.04,-2.22,,adl
10.60614,0.0046,0.1061,0.1345,0.0144,0.0123,-0.0085,-29.1,-35.04,-2.22,,adl
10.608642,0.0046,0.1061,0.1345,-0.0234,-0.0788,-0.0101,-29.1,-35.04,-2.22,,adl
10.629854,0.0046,0.1061,0.1345,-0.0293,-0.0501,-0.0027,-29.1,-35.04,-2.22,,adl
10.651006,0.0046,0.1061,0.1345,-0.0293,-0.0501,-0.0027,-29.34,-34.92,-2.04,,adl
10.651894,0.0046,0.1061,0.1345,0.0,0.0698,0.0085,-29.34,-34.92,-2.04,,adl
10.667216,0.0046,0.1061,0.1345,0.0,0.0698,0.0085,-29.34,-34.92,-2.04,,adl
10.66814,0.126,-0.1566,0.1343,0.0,0.0698,0.0085,-29.34,-34.92,-2.04,,adl
10.670759,0.126,-0.1566,0.1343,0.1097,0.2738,0.016,-29.34,-34.92,-2.04,,adl
10.691447,0.126,-0.1566,0.1343,0.5113,1.2623,-0.1023,-29.34,-34.92,-2.04,,adl
10.711968,0.126,-0.1566,0.1343,0.5113,1.2623,-0.1023,-29.58,-35.1,-1.92,,adl
10.712672,0.126,-0.1566,0.1343,0.0953,0.6221,0.0005,-29.58,-35.1,-1.92,,adl
10.728239,0.126,-0.1566,0.1343,0.0953,0.6221,0.0005,-29.58,-35.1,-1.92,,adl
10.72894,-0.275,-0.0364,0.3219,0.0953,0.6221,0.0005,-29.58,-35.1,-1.92,,adl
10.732074,-0.275,-0.0364,0.3219,-0.3031,-0.6408,-0.0266,-29.58,-35.1,-1.92,,adl
10.752775,-0.275,-0.0364,0.3219,-0.4469,-1.4887,0.0266,-29.58,-35.1,-1.92,,adl
10.77384,-0.275,-0.0364,0.3219,-0.4469,-1.4887,0.0266,-29.82,-35.16,-1.98,,adl
10.774612,-0.275,-0.0364,0.3219,-0.3089,-1.2943,0.1119,-29.82,-35.16,-1.98,,adl
10.790233,-0.275,-0.0364,0.3219,-0.3089,-1.2943,0.1119,-29.82,-35.16,-1.98,,adl
10.790959,0.3106,-0.3483,-0.3734,-0.3089,-1.2943,0.1119,-29.82,-35.16,-1.98,,adl
