time,ax,ay,az,wx,wy,wz,Bx,By,Bz,Unnamed: 10,label
0.020281,0.0,0.0,0.0,-0.5374,-1.0072,-0.1992,0.0,0.0,0.0,,adl
0.0392,0.0,0.0,0.0,-0.5374,-1.0072,-0.1992,32.76,-32.22,-3.9,,adl
0.039946,0.0,0.0,0.0,-0.5374,-1.0072,-0.1992,32.76,-32.22,-3.9,,adl
0.054676,0.0,0.0,0.0,-0.5374,-1.0072,-0.1992,32.76,-32.22,-3.9,,adl
0.058888,0.0,0.0,0.0,-0.5374,-1.0072,-0.1992,32.76,-32.22,-3.9,,adl
0.079541,0.0,0.0,0.0,0.2567,0.4037,0.0501,32.76,-32.22,-3.9,,adl
0.100959,0.0,0.0,0.0,0.2567,0.4037,0.0501,16.86,-16.8,-22.26,,adl
0.101833,0.0,0.0,0.0,0.1475,0.0469,0.0463,16.86,-16.8,-22.26,,adl
0.116581,0.0,0.0,0.0,0.1475,0.0469,0.0463,16.86,-16.8,-22.26,,adl
0.117266,-0.0551,-0.1574,0.0129,0.1475,0.0469,0.0463,16.86,-16.8,-22.26,,adl
0.120816,-0.0551,-0.1574,0.0129,0.0032,-0.0383,0.0037,16.86,-16.8,-22.26,,adl
0.141,-0.0551,-0.1574,0.0129,-0.073,-0.032,-0.008,16.86,-16.8,-22.26,,adl
0.162099,-0.0551,-0.1574,0.0129,-0.073,-0.032,-0.008,8.94,-8.82,-31.5,,adl
0.163084,-0.0551,-0.1574,0.0129,-0.1087,-0.0666,-0.0117,8.94,-8.82,-31.5,,adl
0.177976,-0.0551,-0.1574,0.0129,-0.1087,-0.0666,-0.0117,8.94,-8.82,-31.5,,adl
0.178676,0.16,-0.0688,-0.1078,-0.1087,-0.0666,-0.0117,8.94,-8.82,-31.5,,adl
0.182424,0.16,-0.0688,-0.1078,-0.0767,-0.0953,-0.0027,8.94,-8.82,-31.5,,adl
0.202971,0.16,-0.0688,-0.1078,0.0144,-0.0442,0.024,8.94,-8.82,-31.5,,adl
0.224166,0.16,-0.0688,-0.1078,0.0144,-0.0442,0.024,0.66,-0.72,-40.62,,adl
0.225075,0.16,-0.0688,-0.1078,0.0884,0.0778,0.024,0.66,-0.72,-40.62,,adl
0.240311,0.16,-0.0688,-0.1078,0.0884,0.0778,0.024,0.66,-0.72,-40.62,,adl
0.241043,0.0879,-0.1107,0.0587,0.0884,0.0778,0.024,0.66,-0.72,-40.62,,adl
0.24431,0.0879,-0.1107,0.0587,0.0703,0.0719,0.0107,0.66,-0.72,-40.62,,adl
0.263948,0.0879,-0.1107,0.0587,-0.0128,-0.025,-0.0048,0.66,-0.72,-40.62,,adl
0.285569,0.0879,-0.1107,0.0587,-0.0128,-0.025,-0.0048,0.42,-0.54,-40.44,,adl
0.286367,0.0879,-0.1107,0.0587,-0.0756,-0.0511,-0.0101,0.42,-0.54,-40.44,,adl
0.301031,0.0879,-0.1107,0.0587,-0.0756,-0.0511,-0.0101,0.42,-0.54,-40.44,,adl
0.301565,-0.0106,-0.0678,-0.0441,-0.0756,-0.0511,-0.0101,0.42,-0.54,-40.44,,adl
0.305086,-0.0106,-0.0678,-0.0441,-0.0485,-0.0229,0.0107,0.42,-0.54,-40.44,,adl
0.32596,-0.0106,-0.0678,-0.0441,0.0144,-0.0043,0.0202,0.42,-0.54,-40.44,,adl
0.346962,-0.0106,-0.0678,-0.0441,0.0144,-0.0043,0.0202,0.3,-0.78,-40.62,,adl
0.347749,-0.0106,-0.0678,-0.0441,0.057,0.0011,0.0165,0.3,-0.78,-40.62,,adl
0.362539,-0.0106,-0.0678,-0.0441,0.057,0.0011,0.0165,0.3,-0.78,-40.62,,adl
0.363095,0.2317,0.3849,0.0552,0.057,0.0011,0.0165,0.3,-0.78,-40.62,,adl
0.366656,0.2317,0.3849,0.0552,0.0575,0.017,0.0117,0.3,-0.78,-40.62,,adl
0.38763,0.2317,0.3849,0.0552,0.0314,0.1007,0.0149,0.3,-0.78,-40.62,,adl
0.408707,0.2317,0.3849,0.0552,0.0314,0.1007,0.0149,0.3,-0.66,-40.8,,adl
0.409471,0.2317,0.3849,0.0552,0.0123,0.1076,0.0144,0.3,-0.66,-40.8,,adl
0.424378,0.2317,0.3849,0.0552,0.0123,0.1076,0.0144,0.3,-0.66,-40.8,,adl
0.425077,-0.1381,-0.2486,-0.0201,0.0123,0.1076,0.0144,0.3,-0.66,-40.8,,adl
0.428879,-0.1381,-0.2486,-0.0201,0.0037,0.0011,-0.0048,0.3,-0.66,-40.8,,adl
0.448985,-0.1381,-0.2486,-0.0201,-0.0064,-0.0245,0.0043,0.3,-0.66,-40.8,,adl
0.470252,-0.1381,-0.2486,-0.0201,-0.0064,-0.0245,0.0043,0.48,-0.78,-41.22,,adl
0.471071,-0.1381,-0.2486,-0.0201,0.008,0.0133,-0.0005,0.48,-0.78,-41.22,,adl
0.486872,-0.1381,-0.2486,-0.0201,0.008,0.0133,-0.0005,0.48,-0.78,-41.22,,adl
0.487785,0.0155,-0.1477,0.1189,0.008,0.0133,-0.0005,0.48,-0.78,-41.22,,adl
0.490792,0.0155,-0.1477,0.1189,0.0426,0.0655,0.0133,0.48,-0.78,-41.22,,adl
0.510878,0.0155,-0.1477,0.1189,0.0565,0.049,0.016,0.48,-0.78,-41.22,,adl
0.532736,0.0155,-0.1477,0.1189,0.0565,0.049,0.016,0.9,-0.72,-41.04,,adl
0.533978,0.0155,-0.1477,0.1189,0.0314,0.016,0.0165,0.9,-0.72,-41.04,,adl
0.548943,0.0155,-0.1477,0.1189,0.0314,0.016,0.0165,0.9,-0.72,-41.04,,adl
0.550009,-0.0697,-0.0877,0.0386,0.0314,0.016,0.0165,0.9,-0.72,-41.04,,adl
0.551972,-0.0697,-0.0877,0.0386,-0.0069,0.0075,0.0091,0.9,-0.72,-41.04,,adl
0.572425,-0.0697,-0.0877,0.0386,-0.0021,-0.0053,0.0112,0.9,-0.72,-41.04,,adl
0.593623,-0.0697,-0.0877,0.0386,-0.0021,-0.0053,0.0112,1.2,-0.84,-40.62,,adl
0.594896,-0.0697,-0.0877,0.0386,0.0256,0.0,0.0107,1.2,-0.84,-40.62,,adl
0.609623,-0.0697,-0.0877,0.0386,0.0256,0.0,0.0107,1.2,-0.84,-40.62,,adl
0.610777,0.0242,-0.068,0.0041,0.0256,0.0,0.0107,1.2,-0.84,-40.62,,adl
0.613364,0.0242,-0.068,0.0041,0.0314,0.0245,0.0,1.2,-0.84,-40.62,,adl
0.63351,0.0242,-0.068,0.0041,0.0069,0.0261,-0.0027,1.2,-0.84,-40.62,,adl
0.655407,0.0242,-0.068,0.0041,0.0069,0.0261,-0.0027,1.26,-0.66,-40.44,,adl
0.656408,0.0242,-0.068,0.0041,-0.0128,0.0144,0.0005,1.26,-0.66,-40.44,,adl
0.670222,0.0242,-0.068,0.0041,-0.0128,0.0144,0.0005,1.26,-0.66,-40.44,,adl
0.671271,-0.0233,-0.0682,-0.0184,-0.0128,0.0144,0.0005,1.26,-0.66,-40.44,,adl
0.674676,-0.0233,-0.0682,-0.0184,-0.0069,-0.0053,0.0037,1.26,-0.66,-40.44,,adl
0.695614,-0.0233,-0.0682,-0.0184,0.0085,-0.0075,0.0085,1.26,-0.66,-40.44,,adl
0.716778,-0.0233,-0.0682,-0.0184,0.0085,-0.0075,0.0085,1.2,-0.78,-40.44,,adl
0.717834,-0.0233,-0.0682,-0.0184,0.0011,0.0213,0.0021,1.2,-0.78,-40.44,,adl
0.732914,-0.0233,-0.0682,-0.0184,0.0011,0.0213,0.0021,1.2,-0.78,-40.44,,adl
0.734002,-0.0159,-0.1001,-0.0299,0.0011,0.0213,0.0021,1.2,-0.78,-40.44,,adl
0.736613,-0.0159,-0.1001,-0.0299,-0.0149,0.0442,0.0021,1.2,-0.78,-40.44,,adl
0.757191,-0.0159,-0.1001,-0.0299,-0.0037,0.0218,-0.0021,1.2,-0.78,-40.44,,adl
0.778249,-0.0159,-0.1001,-0.0299,-0.0037,0.0218,-0.0021,1.32,-1.2,-41.04,,adl
0.779494,-0.0159,-0.1001,-0.0299,0.0197,0.0133,-0.0101,1.32,-1.2,-41.04,,adl
0.794899,-0.0159,-0.1001,-0.0299,0.0197,0.0133,-0.0101,1.32,-1.2,-41.04,,adl
0.796554,-0.0898,-0.0161,-0.0057,0.0197,0.0133,-0.0101,1.32,-1.2,-41.04,,adl
0.798984,-0.0898,-0.0161,-0.0057,0.0298,0.0357,-0.0069,1.32,-1.2,-41.04,,adl
0.819587,-0.0898,-0.0161,-0.0057,0.0293,0.0368,0.0016,1.32,-1.2,-41.04,,adl
0.841008,-0.0898,-0.0161,-0.0057,0.0293,0.0368,0.0016,0.84,-1.26,-41.1,,adl
0.842903,-0.0898,-0.0161,-0.0057,0.0186,0.0224,0.0075,0.84,-1.26,-41.1,,adl
0.856041,-0.0898,-0.0161,-0.0057,0.0186,0.0224,0.0075,0.84,-1.26,-41.1,,adl
0.857419,-0.0749,-0.0686,-0.0109,0.0186,0.0224,0.0075,0.84,-1.26,-41.1,,adl
0.861472,-0.0749,-0.0686,-0.0109,0.0069,0.0192,0.008,0.84,-1.26,-41.1,,adl
0.880275,-0.0749,-0.0686,-0.0109,0.0016,0.0144,0.0037,0.84,-1.26,-41.1,,adl
0.901623,-0.0749,-0.0686,-0.0109,0.0016,0.0144,0.0037,0.6,-1.5,-40.56,,adl
0.902576,-0.0749,-0.0686,-0.0109,0.0043,0.0245,-0.0043,0.6,-1.5,-40.56,,adl
0.917354,-0.0749,-0.0686,-0.0109,0.0043,0.0245,-0.0043,0.6,-1.5,-40.56,,adl
0.918397,0.1071,-0.0904,-0.0833,0.0043,0.0245,-0.0043,0.6,-1.5,-40.56,,adl
0.921376,0.1071,-0.0904,-0.0833,0.0123,0.0309,-0.0107,0.6,-1.5,-40.56,,adl
0.941935,0.1071,-0.0904,-0.0833,0.0234,0.0511,-0.0128,0.6,-1.5,-40.56,,adl
0.963112,0.1071,-0.0904,-0.0833,0.0234,0.0511,-0.0128,1.02,-1.2,-40.32,,adl
0.964288,0.1071,-0.0904,-0.0833,0.016,0.065,-0.0133,1.02,-1.2,-40.32,,adl
0.978565,0.1071,-0.0904,-0.0833,0.016,0.065,-0.0133,1.02,-1.2,-40.32,,adl
0.979458,-0.1287,-0.0295,0.0474,0.016,0.065,-0.0133,1.02,-1.2,-40.32,,adl
0.982566,-0.1287,-0.0295,0.0474,0.0016,0.0378,-0.0064,1.02,-1.2,-40.32,,adl
1.003783,-0.1287,-0.0295,0.0474,-0.0048,0.0037,-0.0016,1.02,-1.2,-40.32,,adl
1.024782,-0.1287,-0.0295,0.0474,-0.0048,0.0037,-0.0016,0.72,-0.96,-40.14,,adl
1.027482,-0.1287,-0.0295,0.0474,-0.0021,0.0144,-0.0005,0.72,-0.96,-40.14,,adl
1.040411,-0.1287,-0.0295,0.0474,-0.0021,0.0144,-0.0005,0.72,-0.96,-40.14,,adl
1.042792,-0.068,-0.0558,0.0203,-0.0021,0.0144,-0.0005,0.72,-0.96,-40.14,,adl
1.044578,-0.068,-0.0558,0.0203,-0.0075,0.0399,-0.0005,0.72,-0.96,-40.14,,adl
1.066822,-0.068,-0.0558,0.0203,0.0021,0.0149,-0.0011,0.72,-0.96,-40.14,,adl
1.086337,-0.068,-0.0558,0.0203,0.0021,0.0149,-0.0011,1.2,-0.9,-40.38,,adl
1.088069,-0.068,-0.0558,0.0203,0.0192,-0.0091,-0.0011,1.2,-0.9,-40.38,,adl
1.102205,-0.068,-0.0558,0.0203,0.0192,-0.0091,-0.0011,1.2,-0.9,-40.38,,adl
1.103393,0.0657,-0.0533,0.0224,0.0192,-0.0091,-0.0011,1.2,-0.9,-40.38,,adl
1.106672,0.0657,-0.0533,0.0224,0.0234,0.0325,-0.0037,1.2,-0.9,-40.38,,adl
1.12681,0.0657,-0.0533,0.0224,0.016,0.0314,-0.0043,1.2,-0.9,-40.38,,adl
1.148637,0.0657,-0.0533,0.0224,0.016,0.0314,-0.0043,1.14,-1.08,-40.62,,adl
1.149632,0.0657,-0.0533,0.0224,0.016,0.016,-0.0064,1.14,-1.08,-40.62,,adl
1.163505,0.0657,-0.0533,0.0224,0.016,0.016,-0.0064,1.14,-1.08,-40.62,,adl
1.164422,0.0238,-0.1219,-0.0771,0.016,0.016,-0.0064,1.14,-1.08,-40.62,,adl
1.168134,0.0238,-0.1219,-0.0771,0.0186,0.0426,-0.0053,1.14,-1.08,-40.62,,adl
1.1882,0.0238,-0.1219,-0.0771,0.0352,0.0352,0.0011,1.14,-1.08,-40.62,,adl
1.20975,0.0238,-0.1219,-0.0771,0.0352,0.0352,0.0011,1.08,-1.14,-40.2,,adl
1.210686,0.0238,-0.1219,-0.0771,0.0474,0.0453,0.0048,1.08,-1.14,-40.2,,adl
1.225314,0.0238,-0.1219,-0.0771,0.0474,0.0453,0.0048,1.08,-1.14,-40.2,,adl
1.226281,-0.0534,-0.0467,0.076,0.0474,0.0453,0.0048,1.08,-1.14,-40.2,,adl
1.229332,-0.0534,-0.0467,0.076,0.0378,0.0724,0.0037,1.08,-1.14,-40.2,,adl
1.249769,-0.0534,-0.0467,0.076,0.0266,0.0543,-0.0016,1.08,-1.14,-40.2,,adl
1.271325,-0.0534,-0.0467,0.076,0.0266,0.0543,-0.0016,1.26,-1.14,-40.26,,adl
1.272454,-0.0534,-0.0467,0.076,0.0266,0.0383,-0.0053,1.26,-1.14,-40.26,,adl
1.28628,-0.0534,-0.0467,0.076,0.0266,0.0383,-0.0053,1.26,-1.14,-40.26,,adl
1.287255,0.0622,0.0052,0.0295,0.0266,0.0383,-0.0053,1.26,-1.14,-40.26,,adl
1.291041,0.0622,0.0052,0.0295,0.0394,0.0522,-0.008,1.26,-1.14,-40.26,,adl
1.31198,0.0622,0.0052,0.0295,0.0415,0.0495,-0.0101,1.26,-1.14,-40.26,,adl
1.332723,0.0622,0.0052,0.0295,0.0415,0.0495,-0.0101,1.14,-0.96,-40.08,,adl
1.33402,0.0622,0.0052,0.0295,0.0234,0.0272,-0.0048,1.14,-0.96,-40.08,,adl
1.348639,0.0622,0.0052,0.0295,0.0234,0.0272,-0.0048,1.14,-0.96,-40.08,,adl
1.349589,-0.0079,-0.0188,0.0355,0.0234,0.0272,-0.0048,1.14,-0.96,-40.08,,adl
1.352517,-0.0079,-0.0188,0.0355,0.0064,0.008,-0.008,1.14,-0.96,-40.08,,adl
1.373994,-0.0079,-0.0188,0.0355,0.0005,0.0186,-0.0048,1.14,-0.96,-40.08,,adl
1.394135,-0.0079,-0.0188,0.0355,0.0005,0.0186,-0.0048,1.62,-1.14,-40.68,,adl
1.395541,-0.0079,-0.0188,0.0355,0.0048,0.0277,-0.0123,1.62,-1.14,-40.68,,adl
1.409717,-0.0079,-0.0188,0.0355,0.0048,0.0277,-0.0123,1.62,-1.14,-40.68,,adl
1.410831,0.0345,-0.1075,0.0612,0.0048,0.0277,-0.0123,1.62,-1.14,-40.68,,adl
1.414317,0.0345,-0.1075,0.0612,0.0128,0.0218,-0.0112,1.62,-1.14,-40.68,,adl
1.435151,0.0345,-0.1075,0.0612,0.025,0.0298,-0.0037,1.62,-1.14,-40.68,,adl
1.456096,0.0345,-0.1075,0.0612,0.025,0.0298,-0.0037,1.2,-1.5,-40.62,,adl
1.456932,0.0345,-0.1075,0.0612,0.033,0.0485,-0.0037,1.2,-1.5,-40.62,,adl
1.471641,0.0345,-0.1075,0.0612,0.033,0.0485,-0.0037,1.2,-1.5,-40.62,,adl
1.472598,-0.0322,0.0073,0.059,0.033,0.0485,-0.0037,1.2,-1.5,-40.62,,adl
1.477055,-0.0322,0.0073,0.059,0.0224,0.0559,-0.008,1.2,-1.5,-40.62,,adl
1.495828,-0.0322,0.0073,0.059,0.0117,0.0373,-0.0085,1.2,-1.5,-40.62,,adl
1.517314,-0.0322,0.0073,0.059,0.0117,0.0373,-0.0085,1.68,-1.44,-40.5,,adl
1.519059,-0.0322,0.0073,0.059,0.0069,0.024,-0.0091,1.68,-1.44,-40.5,,adl
1.532693,-0.0322,0.0073,0.059,0.0069,0.024,-0.0091,1.68,-1.44,-40.5,,adl
1.533875,-0.1224,-0.034,0.064,0.0069,0.024,-0.0091,1.68,-1.44,-40.5,,adl
1.536711,-0.1224,-0.034,0.064,0.0,0.0037,-0.0096,1.68,-1.44,-40.5,,adl
1.557854,-0.1224,-0.034,0.064,-0.0101,-0.0154,-0.0053,1.68,-1.44,-40.5,,adl
1.579214,-0.1224,-0.034,0.064,-0.0101,-0.0154,-0.0053,1.74,-1.8,-40.44,,adl
1.580423,-0.1224,-0.034,0.064,-0.0202,-0.0154,-0.0048,1.74,-1.8,-40.44,,adl
1.59485,-0.1224,-0.034,0.064,-0.0202,-0.0154,-0.0048,1.74,-1.8,-40.44,,adl
1.595883,0.0737,-0.0634,0.0491,-0.0202,-0.0154,-0.0048,1.74,-1.8,-40.44,,adl
1.599425,0.0737,-0.0634,0.0491,-0.017,-0.0032,-0.0101,1.74,-1.8,-40.44,,adl
1.619621,0.0737,-0.0634,0.0491,-0.0085,0.0149,-0.0186,1.74,-1.8,-40.44,,adl
1.641001,0.0737,-0.0634,0.0491,-0.0085,0.0149,-0.0186,1.32,-1.5,-40.44,,adl
1.642097,0.0737,-0.0634,0.0491,-0.0091,0.0213,-0.0186,1.32,-1.5,-40.44,,adl
1.656594,0.0737,-0.0634,0.0491,-0.0091,0.0213,-0.0186,1.32,-1.5,-40.44,,adl
1.65773,0.0039,-0.1173,0.0575,-0.0091,0.0213,-0.0186,1.32,-1.5,-40.44,,adl
1.660604,0.0039,-0.1173,0.0575,-0.0208,0.0021,-0.0128,1.32,-1.5,-40.44,,adl
1.681239,0.0039,-0.1173,0.0575,-0.0282,-0.0064,-0.0112,1.32,-1.5,-40.44,,adl
1.702952,0.0039,-0.1173,0.0575,-0.0282,-0.0064,-0.0112,1.8,-1.08,-40.68,,adl
1.704171,0.0039,-0.1173,0.0575,-0.024,0.0149,-0.0107,1.8,-1.08,-40.68,,adl
1.717926,0.0039,-0.1173,0.0575,-0.024,0.0149,-0.0107,1.8,-1.08,-40.68,,adl
1.719102,0.0871,-0.039,0.0192,-0.024,0.0149,-0.0107,1.8,-1.08,-40.68,,adl
1.721649,0.0871,-0.039,0.0192,-0.0165,0.0208,-0.0133,1.8,-1.08,-40.68,,adl
1.742364,0.0871,-0.039,0.0192,-0.0064,0.0117,-0.0117,1.8,-1.08,-40.68,,adl
1.764297,0.0871,-0.039,0.0192,-0.0064,0.0117,-0.0117,1.92,-1.2,-40.86,,adl
1.765533,0.0871,-0.039,0.0192,-0.0123,0.0133,-0.0176,1.92,-1.2,-40.86,,adl
1.779572,0.0871,-0.039,0.0192,-0.0123,0.0133,-0.0176,1.92,-1.2,-40.86,,adl
1.780549,-0.1285,-0.0922,0.0552,-0.0123,0.0133,-0.0176,1.92,-1.2,-40.86,,adl
1.783817,-0.1285,-0.0922,0.0552,-0.0266,-0.0032,-0.0128,1.92,-1.2,-40.86,,adl
1.804326,-0.1285,-0.0922,0.0552,-0.0336,-0.024,-0.0037,1.92,-1.2,-40.86,,adl
1.825409,-0.1285,-0.0922,0.0552,-0.0336,-0.024,-0.0037,2.16,-1.2,-40.92,,adl
1.826373,-0.1285,-0.0922,0.0552,-0.0272,-0.024,-0.0043,2.16,-1.2,-40.92,,adl
1.841192,-0.1285,-0.0922,0.0552,-0.0272,-0.024,-0.0043,2.16,-1.2,-40.92,,adl
1.842149,-0.1398,-0.058,0.0162,-0.0272,-0.024,-0.0043,2.16,-1.2,-40.92,,adl
1.845385,-0.1398,-0.058,0.0162,-0.0208,-0.0261,-0.0005,2.16,-1.2,-40.92,,adl
1.865708,-0.1398,-0.058,0.0162,-0.0229,-0.0586,-0.0005,2.16,-1.2,-40.92,,adl
1.88752,-0.1398,-0.058,0.0162,-0.0229,-0.0586,-0.0005,2.7,-1.2,-40.74,,adl
1.889172,-0.1398,-0.058,0.0162,-0.0415,-0.0698,-0.0016,2.7,-1.2,-40.74,,adl
1.9018,-0.1398,-0.058,0.0162,-0.0415,-0.0698,-0.0016,2.7,-1.2,-40.74,,adl
1.902104,0.0657,-0.0973,-0.0245,-0.0415,-0.0698,-0.0016,2.7,-1.2,-40.74,,adl
1.906943,0.0657,-0.0973,-0.0245,-0.0676,-0.0911,-0.0037,2.7,-1.2,-40.74,,adl
1.928229,0.0657,-0.0973,-0.0245,-0.0746,-0.1039,-0.0064,2.7,-1.2,-40.74,,adl
1.948606,0.0657,-0.0973,-0.0245,-0.0746,-0.1039,-0.0064,2.58,-1.2,-40.56,,adl
1.949625,0.0657,-0.0973,-0.0245,-0.0666,-0.0858,-0.0133,2.58,-1.2,-40.56,,adl
1.964813,0.0657,-0.0973,-0.0245,-0.0666,-0.0858,-0.0133,2.58,-1.2,-40.56,,adl
1.965889,0.0527,-0.157,-0.0341,-0.0666,-0.0858,-0.0133,2.58,-1.2,-40.56,,adl
1.96916,0.0527,-0.157,-0.0341,-0.0511,-0.0724,-0.0101,2.58,-1.2,-40.56,,adl
1.989161,0.0527,-0.157,-0.0341,-0.0426,-0.0687,-0.0053,2.58,-1.2,-40.56,,adl
2.010359,0.0527,-0.157,-0.0341,-0.0426,-0.0687,-0.0053,2.04,-0.9,-40.26,,adl
2.011525,0.0527,-0.157,-0.0341,-0.0426,-0.074,-0.0037,2.04,-0.9,-40.26,,adl
2.026166,0.0527,-0.157,-0.0341,-0.0426,-0.074,-0.0037,2.04,-0.9,-40.26,,adl
2.027327,0.1133,-0.0169,0.2062,-0.0426,-0.074,-0.0037,2.04,-0.9,-40.26,,adl
2.029728,0.1133,-0.0169,0.2062,-0.0602,-0.0794,-0.0069,2.04,-0.9,-40.26,,adl
2.050408,0.1133,-0.0169,0.2062,-0.0719,-0.1012,-0.0085,2.04,-0.9,-40.26,,adl
2.072035,0.1133,-0.0169,0.2062,-0.0719,-0.1012,-0.0085,1.32,-0.84,-39.72,,adl
2.073048,0.1133,-0.0169,0.2062,-0.0735,-0.1417,-0.0032,1.32,-0.84,-39.72,,adl
2.08764,0.1133,-0.0169,0.2062,-0.0735,-0.1417,-0.0032,1.32,-0.84,-39.72,,adl
2.088578,0.1488,-0.1851,0.1155,-0.0735,-0.1417,-0.0032,1.32,-0.84,-39.72,,adl
2.091555,0.1488,-0.1851,0.1155,-0.0714,-0.1609,0.0011,1.32,-0.84,-39.72,,adl
2.11223,0.1488,-0.1851,0.1155,-0.0676,-0.1465,-0.0133,1.32,-0.84,-39.72,,adl
2.13346,0.1488,-0.1851,0.1155,-0.0676,-0.1465,-0.0133,1.2,-0.66,-39.66,,adl
2.134822,0.1488,-0.1851,0.1155,-0.0437,-0.1007,-0.0011,1.2,-0.66,-39.66,,adl
2.148624,0.1488,-0.1851,0.1155,-0.0437,-0.1007,-0.0011,1.2,-0.66,-39.66,,adl
2.149552,0.054,-0.2093,0.1727,-0.0437,-0.1007,-0.0011,1.2,-0.66,-39.66,,adl
2.153145,0.054,-0.2093,0.1727,-0.0261,-0.0527,0.0101,1.2,-0.66,-39.66,,adl
2.17354,0.054,-0.2093,0.1727,-0.0256,-0.0314,0.0091,1.2,-0.66,-39.66,,adl
2.194885,0.054,-0.2093,0.1727,-0.0256,-0.0314,0.0091,0.9,-0.66,-39.6,,adl
2.19589,0.054,-0.2093,0.1727,-0.0533,-0.0346,0.0043,0.9,-0.66,-39.6,,adl
2.210155,0.054,-0.2093,0.1727,-0.0533,-0.0346,0.0043,0.9,-0.66,-39.6,,adl
2.21112,0.0324,-0.0162,0.0669,-0.0533,-0.0346,0.0043,0.9,-0.66,-39.6,,adl
2.214602,0.0324,-0.0162,0.0669,-0.1294,-0.0772,0.0037,0.9,-0.66,-39.6,,adl
2.235155,0.0324,-0.0162,0.0669,-0.204,-0.1523,-0.0032,0.9,-0.66,-39.6,,adl
2.257151,0.0324,-0.0162,0.0669,-0.204,-0.1523,-0.0032,0.54,-0.78,-39.6,,adl
2.258202,0.0324,-0.0162,0.0669,-0.2557,-0.2194,-0.0133,0.54,-0.78,-39.6,,adl
2.272889,0.0324,-0.0162,0.0669,-0.2557,-0.2194,-0.0133,0.54,-0.78,-39.6,,adl
2.273907,0.0721,-0.0249,0.4237,-0.2557,-0.2194,-0.0133,0.54,-0.78,-39.6,,adl
2.276857,0.0721,-0.0249,0.4237,-0.278,-0.2732,-0.0123,0.54,-0.78,-39.6,,adl
2.296862,0.0721,-0.0249,0.4237,-0.302,-0.286,0.0005,0.54,-0.78,-39.6,,adl
2.317669,0.0721,-0.0249,0.4237,-0.302,-0.286,0.0005,0.48,-0.12,-39.78,,adl
2.318946,0.0721,-0.0249,0.4237,-0.3196,-0.2748,0.0064,0.48,-0.12,-39.78,,adl
2.333869,0.0721,-0.0249,0.4237,-0.3196,-0.2748,0.0064,0.48,-0.12,-39.78,,adl
2.334974,-0.024,0.0779,0.2356,-0.3196,-0.2748,0.0064,0.48,-0.12,-39.78,,adl
2.337593,-0.024,0.0779,0.2356,-0.3137,-0.2455,0.0133,0.48,-0.12,-39.78,,adl
2.358151,-0.024,0.0779,0.2356,-0.2892,-0.2077,0.0266,0.48,-0.12,-39.78,,adl
2.379902,-0.024,0.0779,0.2356,-0.2892,-0.2077,0.0266,0.18,0.0,-40.08,,adl
2.380988,-0.024,0.0779,0.2356,-0.2764,-0.1747,0.0554,0.18,0.0,-40.08,,adl
2.396161,-0.024,0.0779,0.2356,-0.2764,-0.1747,0.0554,0.18,0.0,-40.08,,adl
2.397229,-0.1675,0.11,-0.0531,-0.2764,-0.1747,0.0554,0.18,0.0,-40.08,,adl
2.400629,-0.1675,0.11,-0.0531,-0.2802,-0.1688,0.0895,0.18,0.0,-40.08,,adl
2.419652,-0.1675,0.11,-0.0531,-0.3004,-0.1731,0.1198,0.18,0.0,-40.08,,adl
2.441147,-0.1675,0.11,-0.0531,-0.3004,-0.1731,0.1198,-0.06,0.54,-39.96,,adl
2.44264,-0.1675,0.11,-0.0531,-0.3521,-0.1598,0.1326,-0.06,0.54,-39.96,,adl
2.457425,-0.1675,0.11,-0.0531,-0.3521,-0.1598,0.1326,-0.06,0.54,-39.96,,adl
2.458412,0.0399,-0.139,-0.1356,-0.3521,-0.1598,0.1326,-0.06,0.54,-39.96,,adl
2.461034,0.0399,-0.139,-0.1356,-0.3915,-0.2056,0.1305,-0.06,0.54,-39.96,,adl
2.482328,0.0399,-0.139,-0.1356,-0.3894,-0.261,0.1305,-0.06,0.54,-39.96,,adl
2.503919,0.0399,-0.139,-0.1356,-0.3894,-0.261,0.1305,-0.6,1.38,-39.96,,adl
2.505235,0.0399,-0.139,-0.1356,-0.3691,-0.2296,0.1395,-0.6,1.38,-39.96,,adl
2.518647,0.0399,-0.139,-0.1356,-0.3691,-0.2296,0.1395,-0.6,1.38,-39.96,,adl
2.519712,0.1564,-0.0507,-0.1665,-0.3691,-0.2296,0.1395,-0.6,1.38,-39.96,,adl
2.52222,0.1564,-0.0507,-0.1665,-0.3473,-0.1465,0.1443,-0.6,1.38,-39.96,,adl
2.543581,0.1564,-0.0507,-0.1665,-0.3292,-0.0868,0.1614,-0.6,1.38,-39.96,,adl
2.565043,0.1564,-0.0507,-0.1665,-0.3148,-0.0463,0.18,-0.6,1.38,-39.96,,adl
2.566323,0.1564,-0.0507,-0.1665,-0.3148,-0.0463,0.18,-1.08,2.1,-39.9,,adl
2.581228,0.1564,-0.0507,-0.1665,-0.3148,-0.0463,0.18,-1.08,2.1,-39.9,,adl
2.582339,0.1213,0.1358,-0.2433,-0.3148,-0.0463,0.18,-1.08,2.1,-39.9,,adl
2.584149,0.1213,0.1358,-0.2433,-0.2786,-0.0511,0.1806,-1.08,2.1,-39.9,,adl
2.605232,0.1213,0.1358,-0.2433,-0.2168,-0.0788,0.1811,-1.08,2.1,-39.9,,adl
2.625433,0.1213,0.1358,-0.2433,-0.2168,-0.0788,0.1811,-1.98,3.18,-39.12,,adl
2.62667,0.1213,0.1358,-0.2433,-0.187,-0.0991,0.1822,-1.98,3.18,-39.12,,adl
2.641238,0.1213,0.1358,-0.2433,-0.187,-0.0991,0.1822,-1.98,3.18,-39.12,,adl
2.642271,-0.1912,0.0003,-0.5713,-0.187,-0.0991,0.1822,-1.98,3.18,-39.12,,adl
2.645454,-0.1912,0.0003,-0.5713,-0.2104,-0.074,0.1752,-1.98,3.18,-39.12,,adl
2.666172,-0.1912,0.0003,-0.5713,-0.2407,-0.0858,0.1758,-1.98,3.18,-39.12,,adl
2.687333,-0.1912,0.0003,-0.5713,-0.2407,-0.0858,0.1758,-1.98,3.96,-39.3,,adl
2.688571,-0.1912,0.0003,-0.5713,-0.2386,-0.1539,0.1694,-1.98,3.96,-39.3,,adl
2.703726,-0.1912,0.0003,-0.5713,-0.2386,-0.1539,0.1694,-1.98,3.96,-39.3,,adl
2.704732,0.0401,0.0403,-0.5906,-0.2386,-0.1539,0.1694,-1.98,3.96,-39.3,,adl
2.707995,0.0401,0.0403,-0.5906,-0.1992,-0.1273,0.1811,-1.98,3.96,-39.3,,adl
2.728052,0.0401,0.0403,-0.5906,-0.1518,0.0394,0.1917,-1.98,3.96,-39.3,,adl
2.749328,0.0401,0.0403,-0.5906,-0.1518,0.0394,0.1917,-1.74,4.56,-39.18,,adl
2.750799,0.0401,0.0403,-0.5906,-0.0778,0.1816,0.1859,-1.74,4.56,-39.18,,adl
2.765631,0.0401,0.0403,-0.5906,-0.0778,0.1816,0.1859,-1.74,4.56,-39.18,,adl
2.766719,0.1147,-0.0005,-0.251,-0.0778,0.1816,0.1859,-1.74,4.56,-39.18,,adl
2.768693,0.1147,-0.0005,-0.251,0.0005,0.2898,0.1667,-1.74,4.56,-39.18,,adl
2.789346,0.1147,-0.0005,-0.251,0.0522,0.3521,0.1625,-1.74,4.56,-39.18,,adl
2.810903,0.1147,-0.0005,-0.251,0.0522,0.3521,0.1625,-1.92,5.04,-38.94,,adl
2.812475,0.1147,-0.0005,-0.251,0.0735,0.4714,0.1337,-1.92,5.04,-38.94,,adl
2.826141,0.1147,-0.0005,-0.251,0.0735,0.4714,0.1337,-1.92,5.04,-38.94,,adl
2.827357,-0.4151,-0.1942,-0.2343,0.0735,0.4714,0.1337,-1.92,5.04,-38.94,,adl
2.830119,-0.4151,-0.1942,-0.2343,0.049,0.5518,0.0751,-1.92,5.04,-38.94,,adl
2.851019,-0.4151,-0.1942,-0.2343,0.0123,0.6099,0.0746,-1.92,5.04,-38.94,,adl
2.872079,-0.4151,-0.1942,-0.2343,0.0123,0.6099,0.0746,-1.2,5.4,-38.94,,adl
2.873241,-0.4151,-0.1942,-0.2343,0.0144,0.6056,0.0895,-1.2,5.4,-38.94,,adl
2.888149,-0.4151,-0.1942,-0.2343,0.0144,0.6056,0.0895,-1.2,5.4,-38.94,,adl
2.889228,-0.2337,0.0804,0.104,0.0144,0.6056,0.0895,-1.2,5.4,-38.94,,adl
2.892303,-0.2337,0.0804,0.104,0.0218,0.5758,0.0629,-1.2,5.4,-38.94,,adl
2.912848,-0.2337,0.0804,0.104,0.0085,0.5225,0.0618,-1.2,5.4,-38.94,,adl
2.933531,-0.2337,0.0804,0.104,0.0085,0.5225,0.0618,-0.96,5.52,-38.76,,adl
2.935003,-0.2337,0.0804,0.104,0.0698,0.5683,0.0756,-0.96,5.52,-38.76,,adl
2.949451,-0.2337,0.0804,0.104,0.0698,0.5683,0.0756,-0.96,5.52,-38.76,,adl
2.95043,-0.2922,0.1731,0.363,0.0698,0.5683,0.0756,-0.96,5.52,-38.76,,adl
2.953453,-0.2922,0.1731,0.363,0.1577,0.7127,0.0921,-0.96,5.52,-38.76,,adl
2.97409,-0.2922,0.1731,0.363,0.179,0.7505,0.0682,-0.96,5.52,-38.76,,adl
2.995361,-0.2922,0.1731,0.363,0.179,0.7505,0.0682,-0.18,5.88,-38.58,,adl
2.996524,-0.2922,0.1731,0.363,0.0985,0.6679,0.0341,-0.18,5.88,-38.58,,adl
3.011226,-0.2922,0.1731,0.363,0.0985,0.6679,0.0341,-0.18,5.88,-38.58,,adl
3.012155,-0.1243,0.1634,0.0867,0.0985,0.6679,0.0341,-0.18,5.88,-38.58,,adl
3.015981,-0.1243,0.1634,0.0867,0.0021,0.531,-0.0085,-0.18,5.88,-38.58,,adl
3.035594,-0.1243,0.1634,0.0867,-0.057,0.4432,-0.0405,-0.18,5.88,-38.58,,adl
3.057155,-0.1243,0.1634,0.0867,-0.057,0.4432,-0.0405,1.68,6.3,-39.06,,adl
3.058103,-0.1243,0.1634,0.0867,-0.1033,0.4506,-0.0613,1.68,6.3,-39.06,,adl
3.07373,-0.1243,0.1634,0.0867,-0.1033,0.4506,-0.0613,1.68,6.3,-39.06,,adl
3.074712,0.0138,0.1315,-0.0854,-0.1033,0.4506,-0.0613,1.68,6.3,-39.06,,adl
3.076919,0.0138,0.1315,-0.0854,-0.1433,0.4554,-0.0932,1.68,6.3,-39.06,,adl
3.097784,0.0138,0.1315,-0.0854,-0.1071,0.425,-0.1135,1.68,6.3,-39.06,,adl
3.118907,0.0138,0.1315,-0.0854,-0.1071,0.425,-0.1135,2.88,6.24,-38.82,,adl
3.119985,0.0138,0.1315,-0.0854,-0.0666,0.4788,-0.1364,2.88,6.24,-38.82,,adl
3.134042,0.0138,0.1315,-0.0854,-0.0666,0.4788,-0.1364,2.88,6.24,-38.82,,adl
3.135301,0.1879,0.0379,0.0183,-0.0666,0.4788,-0.1364,2.88,6.24,-38.82,,adl
3.137889,0.1879,0.0379,0.0183,-0.0708,0.5396,-0.1593,2.88,6.24,-38.82,,adl
3.159429,0.1879,0.0379,0.0183,-0.1055,0.5561,-0.1683,2.88,6.24,-38.82,,adl
3.180353,0.1879,0.0379,0.0183,-0.1055,0.5561,-0.1683,4.32,6.72,-39.0,,adl
3.181566,0.1879,0.0379,0.0183,-0.1678,0.5289,-0.1731,4.32,6.72,-39.0,,adl
3.196258,0.1879,0.0379,0.0183,-0.1678,0.5289,-0.1731,4.32,6.72,-39.0,,adl
3.197286,-0.7282,-0.155,0.5604,-0.1678,0.5289,-0.1731,4.32,6.72,-39.0,,adl
3.200888,-0.7282,-0.155,0.5604,-0.2205,0.4719,-0.1454,4.32,6.72,-39.0,,adl
3.221049,-0.7282,-0.155,0.5604,-0.2743,0.4128,-0.0852,4.32,6.72,-39.0,,adl
3.241834,-0.7282,-0.155,0.5604,-0.2743,0.4128,-0.0852,5.94,7.2,-39.06,,adl
3.243317,-0.7282,-0.155,0.5604,-0.2807,0.3883,-0.0405,5.94,7.2,-39.06,,adl
3.257963,-0.7282,-0.155,0.5604,-0.2807,0.3883,-0.0405,5.94,7.2,-39.06,,adl
3.259262,-1.2697,-0.0061,0.6765,-0.2807,0.3883,-0.0405,5.94,7.2,-39.06,,adl
3.262331,-1.2697,-0.0061,0.6765,-0.1795,0.319,-0.0298,5.94,7.2,-39.06,,adl
3.282356,-1.2697,-0.0061,0.6765,0.0655,0.2658,-0.0154,5.94,7.2,-39.06,,adl
3.303341,-1.2697,-0.0061,0.6765,0.0655,0.2658,-0.0154,7.02,7.56,-38.64,,adl
3.305216,-1.2697,-0.0061,0.6765,0.3798,0.3936,0.0804,7.02,7.56,-38.64,,adl
3.319561,-1.2697,-0.0061,0.6765,0.3798,0.3936,0.0804,7.02,7.56,-38.64,,adl
3.321119,-1.7177,-1.4169,0.6112,0.3798,0.3936,0.0804,7.02,7.56,-38.64,,adl
3.324194,-1.7177,-1.4169,0.6112,0.5774,0.6541,0.1758,7.02,7.56,-38.64,,adl
3.34441,-1.7177,-1.4169,0.6112,0.8368,0.7116,0.2296,7.02,7.56,-38.64,,adl
3.365736,-1.7177,-1.4169,0.6112,0.8368,0.7116,0.2296,7.74,7.8,-38.58,,adl
3.367473,-1.7177,-1.4169,0.6112,1.1755,0.563,0.3164,7.74,7.8,-38.58,,adl
3.380693,-1.7177,-1.4169,0.6112,1.1755,0.563,0.3164,7.74,7.8,-38.58,,adl
3.382034,-0.3644,-0.8771,2.1599,1.1755,0.563,0.3164,7.74,7.8,-38.58,,adl
3.384973,-0.3644,-0.8771,2.1599,1.5548,0.7111,0.3856,7.74,7.8,-38.58,,adl
3.406838,-0.3644,-0.8771,2.1599,2.0384,0.8501,0.351,7.74,7.8,-38.58,,adl
3.427088,-0.3644,-0.8771,2.1599,2.0384,0.8501,0.351,8.82,7.56,-38.46,,adl
3.429049,-0.3644,-0.8771,2.1599,2.4288,0.5475,0.2807,8.82,7.56,-38.46,,adl
3.442835,-0.3644,-0.8771,2.1599,2.4288,0.5475,0.2807,8.82,7.56,-38.46,,adl
3.444419,1.9677,0.4956,0.6231,2.4288,0.5475,0.2807,8.82,7.56,-38.46,,adl
3.446235,1.9677,0.4956,0.6231,2.4826,0.0453,0.2754,8.82,7.56,-38.46,,adl
3.467576,1.9677,0.4956,0.6231,2.2211,-0.3537,0.2407,8.82,7.56,-38.46,,adl
3.48915,1.9677,0.4956,0.6231,2.2211,-0.3537,0.2407,9.42,6.06,-38.52,,adl
3.491034,1.9677,0.4956,0.6231,1.7225,-0.5113,0.2301,9.42,6.06,-38.52,,adl
3.505003,1.9677,0.4956,0.6231,1.7225,-0.5113,0.2301,9.42,6.06,-38.52,,adl
3.506399,0.8626,-1.9666,-3.7013,1.7225,-0.5113,0.2301,9.42,6.06,-38.52,,adl
3.508843,0.8626,-1.9666,-3.7013,1.0525,-0.5246,0.31,9.42,6.06,-38.52,,adl
3.529237,0.8626,-1.9666,-3.7013,0.7356,-0.5699,0.4969,9.42,6.06,-38.52,,adl
3.55056,0.8626,-1.9666,-3.7013,0.7356,-0.5699,0.4969,9.66,2.16,-38.94,,adl
3.55236,0.8626,-1.9666,-3.7013,0.8458,-0.7057,0.7883,9.66,2.16,-38.94,,adl
3.565625,0.8626,-1.9666,-3.7013,0.8458,-0.7057,0.7883,9.66,2.16,-38.94,,adl
3.567293,-0.65,-2.3142,-2.2605,0.8458,-0.7057,0.7883,9.66,2.16,-38.94,,adl
3.570185,-0.65,-2.3142,-2.2605,0.7675,-0.8325,0.8666,9.66,2.16,-38.94,,adl
3.591299,-0.65,-2.3142,-2.2605,0.4964,-1.1255,0.7111,9.66,2.16,-38.94,,adl
3.612127,-0.65,-2.3142,-2.2605,0.4964,-1.1255,0.7111,9.9,-1.68,-39.66,,adl
3.613837,-0.65,-2.3142,-2.2605,0.3286,-1.5579,0.5529,9.9,-1.68,-39.66,,adl
3.62798,-0.65,-2.3142,-2.2605,0.3286,-1.5579,0.5529,9.9,-1.68,-39.66,,adl
3.629493,1.5757,0.0221,-1.8642,0.3286,-1.5579,0.5529,9.9,-1.68,-39.66,,adl
3.631155,1.5757,0.0221,-1.8642,0.1039,-1.6197,0.3601,9.9,-1.68,-39.66,,adl
3.651729,1.5757,0.0221,-1.8642,-0.0543,-1.2336,0.1161,9.9,-1.68,-39.66,,adl
3.673786,1.5757,0.0221,-1.8642,-0.0543,-1.2336,0.1161,8.88,-6.0,-39.96,,adl
3.675599,1.5757,0.0221,-1.8642,-0.0138,-1.0131,-0.0639,8.88,-6.0,-39.96,,adl
3.689663,1.5757,0.0221,-1.8642,-0.0138,-1.0131,-0.0639,8.88,-6.0,-39.96,,adl
3.691311,2.7846,-0.0822,-1.1467,-0.0138,-1.0131,-0.0639,8.88,-6.0,-39.96,,adl
3.693859,2.7846,-0.0822,-1.1467,0.1422,-1.012,-0.2173,8.88,-6.0,-39.96,,adl
3.713795,2.7846,-0.0822,-1.1467,0.3127,-1.0285,-0.3808,8.88,-6.0,-39.96,,adl
3.735489,2.7846,-0.0822,-1.1467,0.3127,-1.0285,-0.3808,7.26,-9.72,-40.8,,adl
3.737238,2.7846,-0.0822,-1.1467,0.3665,-0.808,-0.4703,7.26,-9.72,-40.8,,adl
3.750355,2.7846,-0.0822,-1.1467,0.3665,-0.808,-0.4703,7.26,-9.72,-40.8,,adl
3.751864,3.0076,1.0031,-1.4429,0.3665,-0.808,-0.4703,7.26,-9.72,-40.8,,adl
3.754944,3.0076,1.0031,-1.4429,0.3121,-0.4027,-0.4378,7.26,-9.72,-40.8,,adl
3.775596,3.0076,1.0031,-1.4429,0.1768,0.1087,-0.2908,7.26,-9.72,-40.8,,adl
3.79646,3.0076,1.0031,-1.4429,0.1768,0.1087,-0.2908,5.28,-11.46,-41.04,,adl
3.797974,3.0076,1.0031,-1.4429,0.0096,0.5348,-0.1598,5.28,-11.46,-41.04,,adl
3.812697,3.0076,1.0031,-1.4429,0.0096,0.5348,-0.1598,5.28,-11.46,-41.04,,adl
3.81412,0.2784,0.0965,-0.2283,0.0096,0.5348,-0.1598,5.28,-11.46,-41.04,,adl
3.818595,0.2784,0.0965,-0.2283,-0.0799,0.6083,0.0368,5.28,-11.46,-41.04,,adl
3.837282,0.2784,0.0965,-0.2283,-0.1534,0.587,0.4048,5.28,-11.46,-41.04,,adl
3.8584,0.2784,0.0965,-0.2283,-0.1534,0.587,0.4048,2.94,-13.02,-40.92,,adl
3.860131,0.2784,0.0965,-0.2283,-0.3164,0.6855,0.62,2.94,-13.02,-40.92,,adl
3.873986,0.2784,0.0965,-0.2283,-0.3164,0.6855,0.62,2.94,-13.02,-40.92,,adl
3.875488,-1.728,0.5299,1.367,-0.3164,0.6855,0.62,2.94,-13.02,-40.92,,adl
3.876984,-1.728,0.5299,1.367,-0.384,0.7468,0.5305,2.94,-13.02,-40.92,,adl
3.898754,-1.728,0.5299,1.367,-0.2477,0.5001,0.4133,2.94,-13.02,-40.92,,adl
3.919791,-1.728,0.5299,1.367,-0.2477,0.5001,0.4133,1.86,-13.8,-40.86,,adl
3.92135,-1.728,0.5299,1.367,-0.1214,0.0639,0.3409,1.86,-13.8,-40.86,,adl
3.935818,-1.728,0.5299,1.367,-0.1214,0.0639,0.3409,1.86,-13.8,-40.86,,adl
3.937352,-2.8829,-0.9515,3.5363,-0.1214,0.0639,0.3409,1.86,-13.8,-40.86,,adl
3.939082,-2.8829,-0.9515,3.5363,-0.1475,-0.2115,0.4479,1.86,-13.8,-40.86,,adl
3.959536,-2.8829,-0.9515,3.5363,-0.0543,-0.8666,0.6381,1.86,-13.8,-40.86,,adl
3.981536,-2.8829,-0.9515,3.5363,-0.0543,-0.8666,0.6381,1.74,-14.28,-39.66,,adl
3.983423,-2.8829,-0.9515,3.5363,-0.0874,-1.3236,0.523,1.74,-14.28,-39.66,,adl
3.997612,-2.8829,-0.9515,3.5363,-0.0874,-1.3236,0.523,1.74,-14.28,-39.66,,adl
3.999285,2.0338,-3.163,-8.3568,-0.0874,-1.3236,0.523,1.74,-14.28,-39.66,,adl
4.000761,2.0338,-3.163,-8.3568,-1.7007,-1.0839,-0.2514,1.74,-14.28,-39.66,,adl
4.022362,2.0338,-3.163,-8.3568,-2.6626,-0.0911,-0.637,1.74,-14.28,-39.66,,adl
4.04324,2.0338,-3.163,-8.3568,-2.6626,-0.0911,-0.637,1.14,-14.22,-39.6,,adl
4.045236,2.0338,-3.163,-8.3568,-0.7883,-0.8778,0.1369,1.14,-14.22,-39.6,,adl
4.058396,2.0338,-3.163,-8.3568,-0.7883,-0.8778,0.1369,1.14,-14.22,-39.6,,adl
4.059844,4.0608,-1.6369,-4.2144,-0.7883,-0.8778,0.1369,1.14,-14.22,-39.6,,adl
4.062881,4.0608,-1.6369,-4.2144,-0.5236,-1.3103,-0.2056,1.14,-14.22,-39.6,,adl
4.083852,4.0608,-1.6369,-4.2144,-0.7963,-0.6599,-0.7691,1.14,-14.22,-39.6,,adl
4.104458,4.0608,-1.6369,-4.2144,-0.7963,-0.6599,-0.7691,1.14,-13.02,-40.08,,adl
4.1058,4.0608,-1.6369,-4.2144,-0.4362,0.1859,-1.2586,1.14,-13.02,-40.08,,adl
4.120096,4.0608,-1.6369,-4.2144,-0.4362,0.1859,-1.2586,1.14,-13.02,-40.08,,adl
4.121506,4.5232,0.115,-0.7084,-0.4362,0.1859,-1.2586,1.14,-13.02,-40.08,,adl
4.125914,4.5232,0.115,-0.7084,-0.5976,1.3923,-1.2229,1.14,-13.02,-40.08,,adl
4.145424,4.5232,0.115,-0.7084,-1.101,1.6506,-0.7452,1.14,-13.02,-40.08,,adl
4.165413,4.5232,0.115,-0.7084,-1.101,1.6506,-0.7452,-0.24,-11.58,-40.08,,adl
4.167125,4.5232,0.115,-0.7084,-1.4413,1.1281,-0.0256,-0.24,-11.58,-40.08,,adl
4.181948,4.5232,0.115,-0.7084,-1.4413,1.1281,-0.0256,-0.24,-11.58,-40.08,,adl
4.183433,-0.4039,0.0447,-2.8487,-1.4413,1.1281,-0.0256,-0.24,-11.58,-40.08,,adl
4.185801,-0.4039,0.0447,-2.8487,-1.6011,0.539,0.6679,-0.24,-11.58,-40.08,,adl
4.206009,-0.4039,0.0447,-2.8487,-1.3257,0.2839,0.988,-0.24,-11.58,-40.08,,adl
4.227282,-0.4039,0.0447,-2.8487,-1.3257,0.2839,0.988,-1.14,-9.36,-40.68,,adl
4.229062,-0.4039,0.0447,-2.8487,-0.7436,0.2674,0.5992,-1.14,-9.36,-40.68,,adl
4.243603,-0.4039,0.0447,-2.8487,-0.7436,0.2674,0.5992,-1.14,-9.36,-40.68,,adl
4.245183,0.2354,-1.1782,-1.7169,-0.7436,0.2674,0.5992,-1.14,-9.36,-40.68,,adl
4.246708,0.2354,-1.1782,-1.7169,-0.2344,0.5348,-0.3233,-1.14,-9.36,-40.68,,adl
4.267314,0.2354,-1.1782,-1.7169,-0.0101,0.8591,-0.612,-1.14,-9.36,-40.68,,adl
4.289363,0.2354,-1.1782,-1.7169,-0.0101,0.8591,-0.612,-0.72,-6.6,-40.2,,adl
4.291195,0.2354,-1.1782,-1.7169,0.0597,1.3044,-0.1182,-0.72,-6.6,-40.2,,adl
4.30533,0.2354,-1.1782,-1.7169,0.0597,1.3044,-0.1182,-0.72,-6.6,-40.2,,adl
4.306902,-0.5497,1.1796,0.2987,0.0597,1.3044,-0.1182,-0.72,-6.6,-40.2,,adl
4.308469,-0.5497,1.1796,0.2987,-0.0149,1.339,0.1981,-0.72,-6.6,-40.2,,adl
4.329809,-0.5497,1.1796,0.2987,-0.1449,0.6019,0.1848,-0.72,-6.6,-40.2,,adl
4.351129,-0.5497,1.1796,0.2987,-0.1449,0.6019,0.1848,0.3,-4.38,-39.54,,adl
4.352835,-0.5497,1.1796,0.2987,-0.3659,0.0751,0.1124,0.3,-4.38,-39.54,,adl
4.368713,-0.5497,1.1796,0.2987,-0.3659,0.0751,0.1124,0.3,-4.38,-39.54,,adl
4.369664,0.1703,-0.2932,-0.845,-0.3659,0.0751,0.1124,0.3,-4.38,-39.54,,adl
4.370704,0.1703,-0.2932,-0.845,-0.6216,-0.0687,0.0277,0.3,-4.38,-39.54,,adl
4.391275,0.1703,-0.2932,-0.845,-0.8037,-0.1044,-0.1065,0.3,-4.38,-39.54,,adl
4.41274,0.1703,-0.2932,-0.845,-0.8037,-0.1044,-0.1065,2.82,-2.16,-39.84,,adl
4.414054,0.1703,-0.2932,-0.845,-0.8448,-0.2194,-0.2796,2.82,-2.16,-39.84,,adl
4.42813,0.1703,-0.2932,-0.845,-0.8448,-0.2194,-0.2796,2.82,-2.16,-39.84,,adl
4.429643,0.5134,0.5775,-0.1305,-0.8448,-0.2194,-0.2796,2.82,-2.16,-39.84,,adl
4.433799,0.5134,0.5775,-0.1305,-0.7755,-0.3675,-0.3835,2.82,-2.16,-39.84,,adl
4.453076,0.5134,0.5775,-0.1305,-0.6919,-0.3984,-0.3521,2.82,-2.16,-39.84,,adl
4.474201,0.5134,0.5775,-0.1305,-0.6919,-0.3984,-0.3521,4.32,-0.54,-39.66,,adl
4.475809,0.5134,0.5775,-0.1305,-0.6242,-0.2051,-0.3047,4.32,-0.54,-39.66,,adl
4.489391,0.5134,0.5775,-0.1305,-0.6242,-0.2051,-0.3047,4.32,-0.54,-39.66,,adl
4.491,0.0655,-0.2218,-0.0062,-0.6242,-0.2051,-0.3047,4.32,-0.54,-39.66,,adl
4.493792,0.0655,-0.2218,-0.0062,-0.5763,0.0272,-0.3212,4.32,-0.54,-39.66,,adl
4.514642,0.0655,-0.2218,-0.0062,-0.5076,0.2887,-0.3025,4.32,-0.54,-39.66,,adl
4.535097,0.0655,-0.2218,-0.0062,-0.5076,0.2887,-0.3025,4.86,0.54,-39.9,,adl
4.536597,0.0655,-0.2218,-0.0062,-0.3212,0.5965,-0.1513,4.86,0.54,-39.9,,adl
4.550999,0.0655,-0.2218,-0.0062,-0.3212,0.5965,-0.1513,4.86,0.54,-39.9,,adl
4.552419,-2.4379,-0.1939,1.7474,-0.3212,0.5965,-0.1513,4.86,0.54,-39.9,,adl
4.555378,-2.4379,-0.1939,1.7474,0.0224,0.7942,0.0266,4.86,0.54,-39.9,,adl
4.576288,-2.4379,-0.1939,1.7474,0.3659,0.7718,0.0511,4.86,0.54,-39.9,,adl
4.597444,-2.4379,-0.1939,1.7474,0.3659,0.7718,0.0511,5.22,1.74,-39.72,,adl
4.59921,-2.4379,-0.1939,1.7474,0.5651,0.555,0.0474,5.22,1.74,-39.72,,adl
4.612976,-2.4379,-0.1939,1.7474,0.5651,0.555,0.0474,5.22,1.74,-39.72,,adl
4.613993,-1.4639,-0.1338,1.2359,0.5651,0.555,0.0474,5.22,1.74,-39.72,,adl
4.61837,-1.4639,-0.1338,1.2359,0.6999,0.5236,0.1204,5.22,1.74,-39.72,,adl
4.637963,-1.4639,-0.1338,1.2359,0.9502,0.53,0.1832,5.22,1.74,-39.72,,adl
4.659682,-1.4639,-0.1338,1.2359,0.9502,0.53,0.1832,5.52,2.94,-38.88,,adl
4.661368,-1.4639,-0.1338,1.2359,1.2959,0.5433,0.3308,5.52,2.94,-38.88,,adl
4.674112,-1.4639,-0.1338,1.2359,1.2959,0.5433,0.3308,5.52,2.94,-38.88,,adl
4.675714,-2.8665,-1.0692,0.989,1.2959,0.5433,0.3308,5.52,2.94,-38.88,,adl
4.678594,-2.8665,-1.0692,0.989,1.5153,0.6818,0.4139,5.52,2.94,-38.88,,adl
4.699383,-2.8665,-1.0692,0.989,1.6448,0.4021,0.2658,5.52,2.94,-38.88,,adl
4.721005,-2.8665,-1.0692,0.989,1.6448,0.4021,0.2658,6.42,3.36,-38.94,,adl
4.722794,-2.8665,-1.0692,0.989,1.6496,-0.2929,0.1912,6.42,3.36,-38.94,,adl
4.737568,-2.8665,-1.0692,0.989,1.6496,-0.2929,0.1912,6.42,3.36,-38.94,,adl
4.739246,-0.6746,-2.4359,0.93,1.6496,-0.2929,0.1912,6.42,3.36,-38.94,,adl
4.740495,-0.6746,-2.4359,0.93,1.7113,-0.7127,0.2647,6.42,3.36,-38.94,,adl
4.760952,-0.6746,-2.4359,0.93,2.1859,-1.0381,0.155,6.42,3.36,-38.94,,adl
4.782273,-0.6746,-2.4359,0.93,2.1859,-1.0381,0.155,7.44,2.22,-39.12,,adl
4.784216,-0.6746,-2.4359,0.93,1.9351,-1.1382,0.1475,7.44,2.22,-39.12,,adl
4.798265,-0.6746,-2.4359,0.93,1.9351,-1.1382,0.1475,7.44,2.22,-39.12,,adl
4.799394,1.6749,1.1452,-4.0575,1.9351,-1.1382,0.1475,7.44,2.22,-39.12,,adl
4.803564,1.6749,1.1452,-4.0575,1.2741,-1.0061,0.2509,7.44,2.22,-39.12,,adl
4.822851,1.6749,1.1452,-4.0575,0.4405,-0.7286,0.3238,7.44,2.22,-39.12,,adl
4.842586,1.6749,1.1452,-4.0575,0.4405,-0.7286,0.3238,7.56,-0.84,-40.08,,adl
4.843295,1.6749,1.1452,-4.0575,-0.4059,-0.5981,0.4192,7.56,-0.84,-40.08,,adl
4.857702,1.6749,1.1452,-4.0575,-0.4059,-0.5981,0.4192,7.56,-0.84,-40.08,,adl
4.858199,-0.5807,-3.5394,-2.3191,-0.4059,-0.5981,0.4192,7.56,-0.84,-40.08,,adl
4.862018,-0.5807,-3.5394,-2.3191,-0.5167,-0.9044,0.5838,7.56,-0.84,-40.08,,adl
4.883181,-0.5807,-3.5394,-2.3191,0.7595,-1.3689,0.8991,7.56,-0.84,-40.08,,adl
4.904027,-0.5807,-3.5394,-2.3191,0.7595,-1.3689,0.8991,6.12,-4.5,-40.92,,adl
4.90469,-0.5807,-3.5394,-2.3191,0.9854,-1.5723,0.6685,6.12,-4.5,-40.92,,adl
4.920661,-0.5807,-3.5394,-2.3191,0.9854,-1.5723,0.6685,6.12,-4.5,-40.92,,adl
4.92117,1.8841,0.6423,-2.5703,0.9854,-1.5723,0.6685,6.12,-4.5,-40.92,,adl
4.923615,1.8841,0.6423,-2.5703,0.7968,-1.8323,0.3739,6.12,-4.5,-40.92,,adl
4.944958,1.8841,0.6423,-2.5703,0.5012,-1.6192,0.3361,6.12,-4.5,-40.92,,adl
4.966217,1.8841,0.6423,-2.5703,0.5012,-1.6192,0.3361,3.6,-8.28,-40.74,,adl
4.968031,1.8841,0.6423,-2.5703,0.106,-0.9337,0.3691,3.6,-8.28,-40.74,,adl
4.981393,1.8841,0.6423,-2.5703,0.106,-0.9337,0.3691,3.6,-8.28,-40.74,,adl
4.982308,2.163,-0.4915,-0.8656,0.106,-0.9337,0.3691,3.6,-8.28,-40.74,,adl
4.985734,2.163,-0.4915,-0.8656,-0.1939,-0.9145,0.2839,3.6,-8.28,-40.74,,adl
5.008306,2.163,-0.4915,-0.8656,-0.1928,-1.2016,0.0538,3.6,-8.28,-40.74,,adl
5.028159,2.163,-0.4915,-0.8656,-0.1928,-1.2016,0.0538,0.96,-11.34,-40.44,,adl
5.029921,2.163,-0.4915,-0.8656,0.1017,-1.0051,-0.2972,0.96,-11.34,-40.44,,adl
5.044387,2.163,-0.4915,-0.8656,0.1017,-1.0051,-0.2972,0.96,-11.34,-40.44,,adl
5.046009,3.8059,0.194,-0.6416,0.1017,-1.0051,-0.2972,0.96,-11.34,-40.44,,adl
5.047706,3.8059,0.194,-0.6416,0.4325,-0.5119,-0.588,0.96,-11.34,-40.44,,adl
5.06902,3.8059,0.194,-0.6416,0.6232,-0.016,-0.7121,0.96,-11.34,-40.44,,adl
5.090014,3.8059,0.194,-0.6416,0.6232,-0.016,-0.7121,-1.92,-13.2,-39.72,,adl
5.0917,3.8059,0.194,-0.6416,0.5555,0.4847,-0.5731,-1.92,-13.2,-39.72,,adl
5.105337,3.8059,0.194,-0.6416,0.5555,0.4847,-0.5731,-1.92,-13.2,-39.72,,adl
5.106879,1.8277,1.5543,-1.2228,0.5555,0.4847,-0.5731,-1.92,-13.2,-39.72,,adl
5.108989,1.8277,1.5543,-1.2228,0.22,0.9939,-0.2423,-1.92,-13.2,-39.72,,adl
5.1295,1.8277,1.5543,-1.2228,-0.4,1.3651,0.3803,-1.92,-13.2,-39.72,,adl
5.151768,1.8277,1.5543,-1.2228,-0.4,1.3651,0.3803,-3.78,-15.24,-38.88,,adl
5.153588,1.8277,1.5543,-1.2228,-0.9241,1.2309,0.9534,-3.78,-15.24,-38.88,,adl
5.168134,1.8277,1.5543,-1.2228,-0.9241,1.2309,0.9534,-3.78,-15.24,-38.88,,adl
5.169576,-2.3966,0.3534,1.4737,-0.9241,1.2309,0.9534,-3.78,-15.24,-38.88,,adl
5.170853,-2.3966,0.3534,1.4737,-0.9864,0.6503,1.1095,-3.78,-15.24,-38.88,,adl
5.192486,-2.3966,0.3534,1.4737,-0.6557,0.2882,1.0557,-3.78,-15.24,-38.88,,adl
5.213029,-2.3966,0.3534,1.4737,-0.6557,0.2882,1.0557,-4.8,-16.08,-38.7,,adl
5.215046,-2.3966,0.3534,1.4737,0.0245,0.2237,1.0152,-4.8,-16.08,-38.7,,adl
5.228716,-2.3966,0.3534,1.4737,0.0245,0.2237,1.0152,-4.8,-16.08,-38.7,,adl
5.229706,-2.302,-0.2268,4.3908,0.0245,0.2237,1.0152,-4.8,-16.08,-38.7,,adl
5.233871,-2.302,-0.2268,4.3908,0.8261,-0.0272,0.7052,-4.8,-16.08,-38.7,,adl
5.254211,-2.302,-0.2268,4.3908,0.3585,0.2317,0.2306,-4.8,-16.08,-38.7,,adl
5.274914,-2.302,-0.2268,4.3908,0.3585,0.2317,0.2306,-5.04,-16.2,-38.64,,adl
5.276865,-2.302,-0.2268,4.3908,-0.7904,-0.123,-0.1177,-5.04,-16.2,-38.64,,adl
5.289839,-2.302,-0.2268,4.3908,-0.7904,-0.123,-0.1177,-5.04,-16.2,-38.64,,adl
5.291318,3.1055,-2.9437,-1.2963,-0.7904,-0.123,-0.1177,-5.04,-16.2,-38.64,,adl
5.294364,3.1055,-2.9437,-1.2963,-1.7651,0.1182,-0.7867,-5.04,-16.2,-38.64,,adl
5.315086,3.1055,-2.9437,-1.2963,-2.0288,0.2711,-1.6496,-5.04,-16.2,-38.64,,adl
5.336255,3.1055,-2.9437,-1.2963,-2.0288,0.2711,-1.6496,-4.56,-16.08,-38.64,,adl
5.337863,3.1055,-2.9437,-1.2963,-1.1366,-0.7968,-1.2533,-4.56,-16.08,-38.64,,adl
5.351447,3.1055,-2.9437,-1.2963,-1.1366,-0.7968,-1.2533,-4.56,-16.08,-38.64,,adl
5.352834,-4.5035,-2.2504,4.2091,-1.1366,-0.7968,-1.2533,-4.56,-16.08,-38.64,,adl
5.35635,-4.5035,-2.2504,4.2091,0.4639,-2.2498,0.3206,-4.56,-16.08,-38.64,,adl
5.376882,-4.5035,-2.2504,4.2091,0.7393,-1.1894,0.8213,-4.56,-16.08,-38.64,,adl
5.398126,-4.5035,-2.2504,4.2091,0.7393,-1.1894,0.8213,-3.9,-14.04,-39.06,,adl
5.399924,-4.5035,-2.2504,4.2091,-0.5678,2.5481,0.3622,-3.9,-14.04,-39.06,,adl
5.41366,-4.5035,-2.2504,4.2091,-0.5678,2.5481,0.3622,-3.9,-14.04,-39.06,,adl
5.414843,3.8386,3.2764,-4.78,-0.5678,2.5481,0.3622,-3.9,-14.04,-39.06,,adl
5.419449,3.8386,3.2764,-4.78,-1.3129,3.2017,-0.1481,-3.9,-14.04,-39.06,,adl
5.437644,3.8386,3.2764,-4.78,-0.6599,1.0413,-0.5156,-3.9,-14.04,-39.06,,adl
5.459997,3.8386,3.2764,-4.78,-0.6599,1.0413,-0.5156,-4.02,-13.02,-38.76,,adl
5.461604,3.8386,3.2764,-4.78,-0.2072,-0.7579,-0.4368,-4.02,-13.02,-38.76,,adl
5.475478,3.8386,3.2764,-4.78,-0.2072,-0.7579,-0.4368,-4.02,-13.02,-38.76,,adl
5.477034,0.1812,-2.1125,-4.8474,-0.2072,-0.7579,-0.4368,-4.02,-13.02,-38.76,,adl
5.478323,0.1812,-2.1125,-4.8474,-0.7031,-0.1092,-0.2658,-4.02,-13.02,-38.76,,adl
5.499679,0.1812,-2.1125,-4.8474,-0.9832,0.8762,0.0245,-4.02,-13.02,-38.76,,adl
5.520881,0.1812,-2.1125,-4.8474,-0.9832,0.8762,0.0245,-3.78,-11.28,-39.18,,adl
5.522572,0.1812,-2.1125,-4.8474,-0.7638,1.354,0.2956,-3.78,-11.28,-39.18,,adl
5.53695,0.1812,-2.1125,-4.8474,-0.7638,1.354,0.2956,-3.78,-11.28,-39.18,,adl
5.538433,-0.1058,0.0431,-1.0684,-0.7638,1.354,0.2956,-3.78,-11.28,-39.18,,adl
5.539686,-0.1058,0.0431,-1.0684,-0.4708,1.1585,0.1933,-3.78,-11.28,-39.18,,adl
5.560159,-0.1058,0.0431,-1.0684,-0.3611,0.759,-0.0352,-3.78,-11.28,-39.18,,adl
5.584014,-0.1058,0.0431,-1.0684,-0.3611,0.759,-0.0352,-2.76,-8.94,-39.18,,adl
5.585327,-0.1058,0.0431,-1.0684,-0.2732,0.5412,-0.1523,-2.76,-8.94,-39.18,,adl
5.597751,-0.1058,0.0431,-1.0684,-0.2732,0.5412,-0.1523,-2.76,-8.94,-39.18,,adl
5.598575,0.4392,0.4694,-0.0516,-0.2732,0.5412,-0.1523,-2.76,-8.94,-39.18,,adl
5.60186,0.4392,0.4694,-0.0516,-0.2194,0.6301,-0.1273,-2.76,-8.94,-39.18,,adl
5.623185,0.4392,0.4694,-0.0516,-0.229,0.734,-0.0746,-2.76,-8.94,-39.18,,adl
5.643744,0.4392,0.4694,-0.0516,-0.229,0.734,-0.0746,-1.32,-7.32,-38.7,,adl
5.645666,0.4392,0.4694,-0.0516,-0.2791,0.6658,-0.0618,-1.32,-7.32,-38.7,,adl
5.659512,0.4392,0.4694,-0.0516,-0.2791,0.6658,-0.0618,-1.32,-7.32,-38.7,,adl
5.660971,0.2102,0.2336,-0.1892,-0.2791,0.6658,-0.0618,-1.32,-7.32,-38.7,,adl
5.66336,0.2102,0.2336,-0.1892,-0.334,0.4522,-0.1012,-1.32,-7.32,-38.7,,adl
5.68469,0.2102,0.2336,-0.1892,-0.367,0.2647,-0.0724,-1.32,-7.32,-38.7,,adl
5.705118,0.2102,0.2336,-0.1892,-0.367,0.2647,-0.0724,1.08,-4.86,-38.94,,adl
5.706991,0.2102,0.2336,-0.1892,-0.3595,0.3249,-0.0282,1.08,-4.86,-38.94,,adl
5.721491,0.2102,0.2336,-0.1892,-0.3595,0.3249,-0.0282,1.08,-4.86,-38.94,,adl
5.723273,-1.0237,0.1964,0.3177,-0.3595,0.3249,-0.0282,1.08,-4.86,-38.94,,adl
5.724587,-1.0237,0.1964,0.3177,-0.3281,0.5518,-0.0905,1.08,-4.86,-38.94,,adl
5.746048,-1.0237,0.1964,0.3177,-0.3356,0.5358,-0.2354,1.08,-4.86,-38.94,,adl
5.767363,-1.0237,0.1964,0.3177,-0.3356,0.5358,-0.2354,3.06,-3.18,-38.64,,adl
5.769076,-1.0237,0.1964,0.3177,-0.3941,0.2402,-0.3973,3.06,-3.18,-38.64,,adl
5.783554,-1.0237,0.1964,0.3177,-0.3941,0.2402,-0.3973,3.06,-3.18,-38.64,,adl
5.784859,-0.2454,-0.125,1.1305,-0.3941,0.2402,-0.3973,3.06,-3.18,-38.64,,adl
5.786005,-0.2454,-0.125,1.1305,-0.5742,-0.1332,-0.4527,3.06,-3.18,-38.64,,adl
5.807777,-0.2454,-0.125,1.1305,-0.7233,-0.359,-0.4202,3.06,-3.18,-38.64,,adl
5.82916,-0.2454,-0.125,1.1305,-0.7233,-0.359,-0.4202,4.2,-2.1,-38.28,,adl
5.831235,-0.2454,-0.125,1.1305,-0.6972,-0.3116,-0.3457,4.2,-2.1,-38.28,,adl
5.844363,-0.2454,-0.125,1.1305,-0.6972,-0.3116,-0.3457,4.2,-2.1,-38.28,,adl
5.845811,-1.1372,0.3517,1.3401,-0.6972,-0.3116,-0.3457,4.2,-2.1,-38.28,,adl
5.848803,-1.1372,0.3517,1.3401,-0.4543,-0.0874,-0.2557,4.2,-2.1,-38.28,,adl
5.871132,-1.1372,0.3517,1.3401,-0.1901,0.1135,-0.1965,4.2,-2.1,-38.28,,adl
5.890592,-1.1372,0.3517,1.3401,-0.1901,0.1135,-0.1965,4.86,-0.96,-37.92,,adl
5.892075,-1.1372,0.3517,1.3401,0.0043,0.2466,-0.171,4.86,-0.96,-37.92,,adl
5.906576,-1.1372,0.3517,1.3401,0.0043,0.2466,-0.171,4.86,-0.96,-37.92,,adl
5.908017,-1.51,0.2277,0.4933,0.0043,0.2466,-0.171,4.86,-0.96,-37.92,,adl
5.909202,-1.51,0.2277,0.4933,0.1039,0.3776,-0.1465,4.86,-0.96,-37.92,,adl
5.930853,-1.51,0.2277,0.4933,0.2072,0.449,-0.1246,4.86,-0.96,-37.92,,adl
5.951512,-1.51,0.2277,0.4933,0.2072,0.449,-0.1246,5.4,-0.3,-38.1,,adl
5.952903,-1.51,0.2277,0.4933,0.3414,0.6706,-0.1177,5.4,-0.3,-38.1,,adl
5.968162,-1.51,0.2277,0.4933,0.3414,0.6706,-0.1177,5.4,-0.3,-38.1,,adl
5.969541,-1.0894,-0.3488,1.9331,0.3414,0.6706,-0.1177,5.4,-0.3,-38.1,,adl
5.970901,-1.0894,-0.3488,1.9331,0.3803,0.8591,-0.0682,5.4,-0.3,-38.1,,adl
5.991937,-1.0894,-0.3488,1.9331,0.2738,0.6349,0.2104,5.4,-0.3,-38.1,,adl
6.013956,-1.0894,-0.3488,1.9331,0.2738,0.6349,0.2104,5.46,0.24,-37.68,,adl
6.015942,-1.0894,-0.3488,1.9331,0.3249,0.3398,0.4447,5.46,0.24,-37.68,,adl
6.029786,-1.0894,-0.3488,1.9331,0.3249,0.3398,0.4447,5.46,0.24,-37.68,,adl
6.031051,-3.5748,-1.4034,1.4731,0.3249,0.3398,0.4447,5.46,0.24,-37.68,,adl
6.032293,-3.5748,-1.4034,1.4731,0.7244,0.2173,0.4101,5.46,0.24,-37.68,,adl
6.053689,-3.5748,-1.4034,1.4731,1.3199,0.3201,0.1577,5.46,0.24,-37.68,,adl
6.075586,-3.5748,-1.4034,1.4731,1.3199,0.3201,0.1577,6.24,0.9,-37.62,,adl
6.077465,-3.5748,-1.4034,1.4731,1.893,0.8107,0.1635,6.24,0.9,-37.62,,adl
6.090234,-3.5748,-1.4034,1.4731,1.893,0.8107,0.1635,6.24,0.9,-37.62,,adl
6.091605,1.8863,0.11,5.4986,1.893,0.8107,0.1635,6.24,0.9,-37.62,,adl
6.094262,1.8863,0.11,5.4986,2.4954,0.5151,0.0623,6.24,0.9,-37.62,,adl
6.115586,1.8863,0.11,5.4986,2.6999,-0.2796,0.025,6.24,0.9,-37.62,,adl
6.136953,1.8863,0.11,5.4986,2.6999,-0.2796,0.025,6.6,0.42,-37.8,,adl
6.138837,1.8863,0.11,5.4986,2.1966,-0.9598,0.3515,6.6,0.42,-37.8,,adl
6.152757,1.8863,0.11,5.4986,2.1966,-0.9598,0.3515,6.6,0.42,-37.8,,adl
6.154336,0.3547,0.2901,-3.2462,2.1966,-0.9598,0.3515,6.6,0.42,-37.8,,adl
6.15601,0.3547,0.2901,-3.2462,1.4775,-1.281,0.5997,6.6,0.42,-37.8,,adl
6.177275,0.3547,0.2901,-3.2462,0.7574,-1.2091,0.6764,6.6,0.42,-37.8,,adl
6.197898,0.3547,0.2901,-3.2462,0.7574,-1.2091,0.6764,6.48,-1.32,-36.96,,adl
6.199577,0.3547,0.2901,-3.2462,0.0517,-0.7808,0.53,6.48,-1.32,-36.96,,adl
6.214328,0.3547,0.2901,-3.2462,0.0517,-0.7808,0.53,6.48,-1.32,-36.96,,adl
6.215422,-0.0064,-4.7361,-3.0005,0.0517,-0.7808,0.53,6.48,-1.32,-36.96,,adl
6.220017,-0.0064,-4.7361,-3.0005,-0.2056,-0.5768,0.319,6.48,-1.32,-36.96,,adl
6.238682,-0.0064,-4.7361,-3.0005,0.3372,-0.9156,0.4064,6.48,-1.32,-36.96,,adl
6.260295,-0.0064,-4.7361,-3.0005,0.3372,-0.9156,0.4064,6.12,-4.02,-36.66,,adl
6.261847,-0.0064,-4.7361,-3.0005,0.8474,-1.2192,0.5699,6.12,-4.02,-36.66,,adl
6.276742,-0.0064,-4.7361,-3.0005,0.8474,-1.2192,0.5699,6.12,-4.02,-36.66,,adl
6.278385,0.9678,0.8217,-2.3307,0.8474,-1.2192,0.5699,6.12,-4.02,-36.66,,adl
6.279722,0.9678,0.8217,-2.3307,0.7728,-1.2586,0.506,6.12,-4.02,-36.66,,adl
6.299768,0.9678,0.8217,-2.3307,0.7931,-1.0216,0.6248,6.12,-4.02,-36.66,,adl
6.321307,0.9678,0.8217,-2.3307,0.7931,-1.0216,0.6248,4.92,-7.32,-36.42,,adl
6.323359,0.9678,0.8217,-2.3307,0.5827,-0.5129,0.7148,4.92,-7.32,-36.42,,adl
6.336583,0.9678,0.8217,-2.3307,0.5827,-0.5129,0.7148,4.92,-7.32,-36.42,,adl
6.338159,1.0978,0.5261,-1.252,0.5827,-0.5129,0.7148,4.92,-7.32,-36.42,,adl
6.340465,1.0978,0.5261,-1.252,-0.0581,-0.3979,0.5923,4.92,-7.32,-36.42,,adl
6.361755,1.0978,0.5261,-1.252,-0.5156,-1.0834,0.3952,4.92,-7.32,-36.42,,adl
6.383971,1.0978,0.5261,-1.252,-0.5156,-1.0834,0.3952,3.6,-10.14,-35.88,,adl
6.385958,1.0978,0.5261,-1.252,-0.6152,-1.5452,0.1321,3.6,-10.14,-35.88,,adl
6.398201,1.0978,0.5261,-1.252,-0.6152,-1.5452,0.1321,3.6,-10.14,-35.88,,adl
6.399307,2.2717,0.3066,-0.5924,-0.6152,-1.5452,0.1321,3.6,-10.14,-35.88,,adl
6.402457,2.2717,0.3066,-0.5924,-0.4394,-1.4962,-0.1774,3.6,-10.14,-35.88,,adl
6.423792,2.2717,0.3066,-0.5924,-0.1587,-1.2187,-0.3611,3.6,-10.14,-35.88,,adl
6.445181,2.2717,0.3066,-0.5924,-0.1587,-1.2187,-0.3611,1.68,-11.82,-35.94,,adl
6.447016,2.2717,0.3066,-0.5924,0.1944,-0.6887,-0.4277,1.68,-11.82,-35.94,,adl
6.460733,2.2717,0.3066,-0.5924,0.1944,-0.6887,-0.4277,1.68,-11.82,-35.94,,adl
6.462385,1.8044,-0.0103,-0.0541,0.1944,-0.6887,-0.4277,1.68,-11.82,-35.94,,adl
6.463848,1.8044,-0.0103,-0.0541,0.4384,-0.0261,-0.359,1.68,-11.82,-35.94,,adl
6.485309,1.8044,-0.0103,-0.0541,0.4304,0.5087,-0.0783,1.68,-11.82,-35.94,,adl
6.505469,1.8044,-0.0103,-0.0541,0.4304,0.5087,-0.0783,0.12,-12.9,-35.58,,adl
6.507048,1.8044,-0.0103,-0.0541,0.2157,0.5385,0.3361,0.12,-12.9,-35.58,,adl
6.522374,1.8044,-0.0103,-0.0541,0.2157,0.5385,0.3361,0.12,-12.9,-35.58,,adl
6.524122,-1.4277,1.0956,1.2433,0.2157,0.5385,0.3361,0.12,-12.9,-35.58,,adl
6.5271,-1.4277,1.0956,1.2433,-0.2072,0.1049,0.6967,0.12,-12.9,-35.58,,adl
6.546256,-1.4277,1.0956,1.2433,-0.7404,-0.1065,0.898,0.12,-12.9,-35.58,,adl
6.567851,-1.4277,1.0956,1.2433,-0.7404,-0.1065,0.898,-1.8,-13.68,-35.34,,adl
6.569417,-1.4277,1.0956,1.2433,-1.1484,0.441,0.9401,-1.8,-13.68,-35.34,,adl
6.584848,-1.4277,1.0956,1.2433,-1.1484,0.441,0.9401,-1.8,-13.68,-35.34,,adl
6.586332,-3.0304,1.0813,0.0042,-1.1484,0.441,0.9401,-1.8,-13.68,-35.34,,adl
6.589244,-3.0304,1.0813,0.0042,-1.1771,0.8943,0.914,-1.8,-13.68,-35.34,,adl
6.607688,-3.0304,1.0813,0.0042,-0.5204,0.0511,0.8991,-1.8,-13.68,-35.34,,adl
6.629614,-3.0304,1.0813,0.0042,-0.5204,0.0511,0.8991,-2.88,-13.86,-35.28,,adl
6.631934,-3.0304,1.0813,0.0042,-0.0048,-1.338,0.7031,-2.88,-13.86,-35.28,,adl
6.643809,-3.0304,1.0813,0.0042,-0.0048,-1.338,0.7031,-2.88,-13.86,-35.28,,adl
6.645147,-1.0693,0.8838,0.4969,-0.0048,-1.338,0.7031,-2.88,-13.86,-35.28,,adl
6.648696,-1.0693,0.8838,0.4969,-0.5577,-1.7028,0.3372,-2.88,-13.86,-35.28,,adl
6.669519,-1.0693,0.8838,0.4969,-1.5334,-1.5958,-0.0011,-2.88,-13.86,-35.28,,adl
6.691051,-1.0693,0.8838,0.4969,-1.5334,-1.5958,-0.0011,-2.94,-13.98,-35.4,,adl
6.692493,-1.0693,0.8838,0.4969,-1.837,-1.2874,-0.5502,-2.94,-13.98,-35.4,,adl
6.705616,-1.0693,0.8838,0.4969,-1.837,-1.2874,-0.5502,-2.94,-13.98,-35.4,,adl
6.707227,0.4438,-4.1068,0.9714,-1.837,-1.2874,-0.5502,-2.94,-13.98,-35.4,,adl
6.709999,0.4438,-4.1068,0.9714,-1.2022,-1.3902,-0.7776,-2.94,-13.98,-35.4,,adl
6.731854,0.4438,-4.1068,0.9714,0.0213,-2.2648,-0.7292,-2.94,-13.98,-35.4,,adl
6.751508,0.4438,-4.1068,0.9714,0.0213,-2.2648,-0.7292,-3.78,-13.68,-34.86,,adl
6.752846,0.4438,-4.1068,0.9714,0.6168,-1.7348,-0.4799,-3.78,-13.68,-34.86,,adl
6.768018,0.4438,-4.1068,0.9714,0.6168,-1.7348,-0.4799,-3.78,-13.68,-34.86,,adl
6.769322,2.4896,2.3929,-4.6474,0.6168,-1.7348,-0.4799,-3.78,-13.68,-34.86,,adl
6.771481,2.4896,2.3929,-4.6474,-0.5033,0.229,-0.1843,-3.78,-13.68,-34.86,,adl
6.791706,2.4896,2.3929,-4.6474,-1.5478,0.7888,-0.0394,-3.78,-13.68,-34.86,,adl
6.81311,2.4896,2.3929,-4.6474,-1.5478,0.7888,-0.0394,-4.92,-12.96,-34.5,,adl
6.814804,2.4896,2.3929,-4.6474,-2.0187,0.7979,-0.1161,-4.92,-12.96,-34.5,,adl
6.829058,2.4896,2.3929,-4.6474,-2.0187,0.7979,-0.1161,-4.92,-12.96,-34.5,,adl
6.830791,1.2287,-0.3205,1.7438,-2.0187,0.7979,-0.1161,-4.92,-12.96,-34.5,,adl
6.834103,1.2287,-0.3205,1.7438,-1.3129,0.0032,-0.147,-4.92,-12.96,-34.5,,adl
6.853557,1.2287,-0.3205,1.7438,-0.1507,-1.1516,0.1124,-4.92,-12.96,-34.5,,adl
6.874926,1.2287,-0.3205,1.7438,-0.1507,-1.1516,0.1124,-6.18,-12.0,-34.08,,adl
6.876488,1.2287,-0.3205,1.7438,-0.2306,-1.4594,0.179,-6.18,-12.0,-34.08,,adl
6.891186,1.2287,-0.3205,1.7438,-0.2306,-1.4594,0.179,-6.18,-12.0,-34.08,,adl
6.892582,-2.4369,-0.388,-3.709,-0.2306,-1.4594,0.179,-6.18,-12.0,-34.08,,adl
6.894233,-2.4369,-0.388,-3.709,-0.572,-1.2203,0.2269,-6.18,-12.0,-34.08,,adl
6.914687,-2.4369,-0.388,-3.709,-0.4416,-0.9992,0.1321,-6.18,-12.0,-34.08,,adl
6.936382,-2.4369,-0.388,-3.709,-0.4416,-0.9992,0.1321,-8.1,-10.92,-33.18,,adl
6.938108,-2.4369,-0.388,-3.709,-0.2423,-1.0147,-0.0298,-8.1,-10.92,-33.18,,adl
6.951588,-2.4369,-0.388,-3.709,-0.2423,-1.0147,-0.0298,-8.1,-10.92,-33.18,,adl
6.952901,0.4397,-0.3418,-1.6439,-0.2423,-1.0147,-0.0298,-8.1,-10.92,-33.18,,adl
6.956999,0.4397,-0.3418,-1.6439,-0.4117,-0.8996,-0.1443,-8.1,-10.92,-33.18,,adl
6.976804,0.4397,-0.3418,-1.6439,-0.6764,-0.6924,-0.2402,-8.1,-10.92,-33.18,,adl
6.999179,0.4397,-0.3418,-1.6439,-0.6764,-0.6924,-0.2402,-9.48,-10.02,-33.24,,adl
7.001195,0.4397,-0.3418,-1.6439,-0.8517,-0.5374,-0.2786,-9.48,-10.02,-33.24,,adl
7.014251,0.4397,-0.3418,-1.6439,-0.8517,-0.5374,-0.2786,-9.48,-10.02,-33.24,,adl
7.015399,1.4982,-0.7005,-0.4498,-0.8517,-0.5374,-0.2786,-9.48,-10.02,-33.24,,adl
7.01881,1.4982,-0.7005,-0.4498,-0.9044,-0.5406,-0.2615,-9.48,-10.02,-33.24,,adl
7.03916,1.4982,-0.7005,-0.4498,-0.8693,-0.6471,-0.2338,-9.48,-10.02,-33.24,,adl
7.060366,1.4982,-0.7005,-0.4498,-0.8693,-0.6471,-0.2338,-10.68,-9.18,-32.82,,adl
7.062248,1.4982,-0.7005,-0.4498,-0.8123,-0.7047,-0.261,-10.68,-9.18,-32.82,,adl
7.076096,1.4982,-0.7005,-0.4498,-0.8123,-0.7047,-0.261,-10.68,-9.18,-32.82,,adl
7.077554,0.2928,0.1995,0.4087,-0.8123,-0.7047,-0.261,-10.68,-9.18,-32.82,,adl
7.078987,0.2928,0.1995,0.4087,-0.783,-0.6019,-0.31,-10.68,-9.18,-32.82,,adl
7.100886,0.2928,0.1995,0.4087,-0.7601,-0.2104,-0.2812,-10.68,-9.18,-32.82,,adl
7.121116,0.2928,0.1995,0.4087,-0.7601,-0.2104,-0.2812,-12.3,-8.88,-32.7,,adl
7.122701,0.2928,0.1995,0.4087,-0.6802,0.1374,-0.1433,-12.3,-8.88,-32.7,,adl
7.138977,0.2928,0.1995,0.4087,-0.6802,0.1374,-0.1433,-12.3,-8.88,-32.7,,adl
7.140558,-2.7187,0.3669,1.7577,-0.6802,0.1374,-0.1433,-12.3,-8.88,-32.7,,adl
7.141786,-2.7187,0.3669,1.7577,-0.4874,0.1917,-0.0751,-12.3,-8.88,-32.7,,adl
7.162021,-2.7187,0.3669,1.7577,-0.2908,0.1443,-0.1246,-12.3,-8.88,-32.7,,adl
7.183383,-2.7187,0.3669,1.7577,-0.2908,0.1443,-0.1246,-13.8,-8.22,-32.64,,adl
7.185183,-2.7187,0.3669,1.7577,-0.2461,0.0559,-0.1625,-13.8,-8.22,-32.64,,adl
7.198443,-2.7187,0.3669,1.7577,-0.2461,0.0559,-0.1625,-13.8,-8.22,-32.64,,adl
7.199419,-2.5424,1.1988,0.7335,-0.2461,0.0559,-0.1625,-13.8,-8.22,-32.64,,adl
7.203104,-2.5424,1.1988,0.7335,-0.335,-0.2386,-0.1443,-13.8,-8.22,-32.64,,adl
7.223154,-2.5424,1.1988,0.7335,-0.5577,-0.6722,-0.1081,-13.8,-8.22,-32.64,,adl
7.243841,-2.5424,1.1988,0.7335,-0.5577,-0.6722,-0.1081,-14.88,-7.44,-31.98,,adl
7.244651,-2.5424,1.1988,0.7335,-0.9065,-1.0013,-0.1268,-14.88,-7.44,-31.98,,adl
7.260753,-2.5424,1.1988,0.7335,-0.9065,-1.0013,-0.1268,-14.88,-7.44,-31.98,,adl
7.262278,-0.8684,0.0621,0.3062,-0.9065,-1.0013,-0.1268,-14.88,-7.44,-31.98,,adl
7.263673,-0.8684,0.0621,0.3062,-1.1601,-1.127,-0.1678,-14.88,-7.44,-31.98,,adl
7.286047,-0.8684,0.0621,0.3062,-1.2112,-1.3049,-0.1811,-14.88,-7.44,-31.98,,adl
7.306859,-0.8684,0.0621,0.3062,-1.2112,-1.3049,-0.1811,-15.9,-6.48,-32.46,,adl
7.308481,-0.8684,0.0621,0.3062,-0.9923,-1.5169,-0.1891,-15.9,-6.48,-32.46,,adl
7.321648,-0.8684,0.0621,0.3062,-0.9923,-1.5169,-0.1891,-15.9,-6.48,-32.46,,adl
7.323113,-0.8279,-0.0568,1.5906,-0.9923,-1.5169,-0.1891,-15.9,-6.48,-32.46,,adl
7.325801,-0.8279,-0.0568,1.5906,-0.6104,-1.6938,-0.0405,-15.9,-6.48,-32.46,,adl
7.347092,-0.8279,-0.0568,1.5906,-0.3063,-1.7449,0.1747,-15.9,-6.48,-32.46,,adl
7.367992,-0.8279,-0.0568,1.5906,-0.3063,-1.7449,0.1747,-17.34,-5.16,-31.56,,adl
7.369618,-0.8279,-0.0568,1.5906,-0.0868,-1.5393,0.2972,-17.34,-5.16,-31.56,,adl
7.384668,-0.8279,-0.0568,1.5906,-0.0868,-1.5393,0.2972,-17.34,-5.16,-31.56,,adl
7.386185,-0.1403,-0.2878,-0.4576,-0.0868,-1.5393,0.2972,-17.34,-5.16,-31.56,,adl
7.387823,-0.1403,-0.2878,-0.4576,0.1406,-0.9492,0.3228,-17.34,-5.16,-31.56,,adl
7.408769,-0.1403,-0.2878,-0.4576,0.3494,-0.2397,0.2802,-17.34,-5.16,-31.56,,adl
7.429032,-0.1403,-0.2878,-0.4576,0.3494,-0.2397,0.2802,-19.56,-4.2,-30.54,,adl
7.430664,-0.1403,-0.2878,-0.4576,0.8,0.1518,0.2051,-19.56,-4.2,-30.54,,adl
7.445663,-0.1403,-0.2878,-0.4576,0.8,0.1518,0.2051,-19.56,-4.2,-30.54,,adl
7.447491,1.3308,-1.2903,4.5153,0.8,0.1518,0.2051,-19.56,-4.2,-30.54,,adl
7.448786,1.3308,-1.2903,4.5153,1.8349,-0.4927,0.0346,-19.56,-4.2,-30.54,,adl
7.470081,1.3308,-1.2903,4.5153,2.0325,-0.4389,0.0282,-19.56,-4.2,-30.54,,adl
7.491457,1.3308,-1.2903,4.5153,2.0325,-0.4389,0.0282,-22.14,-3.42,-29.94,,adl
7.493248,1.3308,-1.2903,4.5153,1.6757,0.0959,0.0474,-22.14,-3.42,-29.94,,adl
7.507293,1.3308,-1.2903,4.5153,1.6757,0.0959,0.0474,-22.14,-3.42,-29.94,,adl
7.508905,-1.3368,-0.8018,-1.6863,1.6757,0.0959,0.0474,-22.14,-3.42,-29.94,,adl
7.510766,-1.3368,-0.8018,-1.6863,1.0674,0.3276,0.0687,-22.14,-3.42,-29.94,,adl
7.530639,-1.3368,-0.8018,-1.6863,0.4639,-0.2876,0.1923,-22.14,-3.42,-29.94,,adl
7.552237,-1.3368,-0.8018,-1.6863,0.4639,-0.2876,0.1923,-24.3,-3.84,-28.5,,adl
7.554032,-1.3368,-0.8018,-1.6863,-0.0218,-1.199,0.3425,-24.3,-3.84,-28.5,,adl
7.568879,-1.3368,-0.8018,-1.6863,-0.0218,-1.199,0.3425,-24.3,-3.84,-28.5,,adl
7.570358,-1.2456,1.2117,-0.1356,-0.0218,-1.199,0.3425,-24.3,-3.84,-28.5,,adl
7.571773,-1.2456,1.2117,-0.1356,-0.2407,-1.7018,0.4613,-24.3,-3.84,-28.5,,adl
7.593354,-1.2456,1.2117,-0.1356,-0.4618,-1.8019,0.538,-24.3,-3.84,-28.5,,adl
7.614769,-1.2456,1.2117,-0.1356,-0.4618,-1.8019,0.538,-25.62,-4.8,-27.96,,adl
7.616399,-1.2456,1.2117,-0.1356,-0.7366,-1.7327,0.5209,-25.62,-4.8,-27.96,,adl
7.629828,-1.2456,1.2117,-0.1356,-0.7366,-1.7327,0.5209,-25.62,-4.8,-27.96,,adl
7.630808,-0.1666,-0.4682,-2.1182,-0.7366,-1.7327,0.5209,-25.62,-4.8,-27.96,,adl
7.634272,-0.1666,-0.4682,-2.1182,-1.028,-1.5745,0.4756,-25.62,-4.8,-27.96,,adl
7.655156,-0.1666,-0.4682,-2.1182,-1.2469,-1.3034,0.5896,-25.62,-4.8,-27.96,,adl
7.677021,-0.1666,-0.4682,-2.1182,-1.2469,-1.3034,0.5896,-26.76,-5.58,-27.12,,adl
7.679118,-0.1666,-0.4682,-2.1182,-1.2448,-1.1329,0.8043,-26.76,-5.58,-27.12,,adl
7.692065,-0.1666,-0.4682,-2.1182,-1.2448,-1.1329,0.8043,-26.76,-5.58,-27.12,,adl
7.693576,-0.5566,0.3513,-1.2197,-1.2448,-1.1329,0.8043,-26.76,-5.58,-27.12,,adl
7.694895,-0.5566,0.3513,-1.2197,-1.1745,-1.2842,0.9055,-26.76,-5.58,-27.12,,adl
7.71634,-0.5566,0.3513,-1.2197,-1.0669,-1.8765,0.7356,-26.76,-5.58,-27.12,,adl
7.737085,-0.5566,0.3513,-1.2197,-1.0669,-1.8765,0.7356,-28.08,-5.64,-25.38,,adl
7.738579,-0.5566,0.3513,-1.2197,-0.9518,-2.4901,0.4554,-28.08,-5.64,-25.38,,adl
7.753605,-0.5566,0.3513,-1.2197,-0.9518,-2.4901,0.4554,-28.08,-5.64,-25.38,,adl
7.755223,0.7957,-0.9379,0.7123,-0.9518,-2.4901,0.4554,-28.08,-5.64,-25.38,,adl
7.756802,0.7957,-0.9379,0.7123,-0.6759,-2.962,0.2205,-28.08,-5.64,-25.38,,adl
7.778069,0.7957,-0.9379,0.7123,-0.3601,-3.2448,0.1172,-28.08,-5.64,-25.38,,adl
7.799481,0.7957,-0.9379,0.7123,-0.3601,-3.2448,0.1172,-29.64,-4.32,-22.68,,adl
7.80127,0.7957,-0.9379,0.7123,-0.2178,-2.9087,0.1236,-29.64,-4.32,-22.68,,adl
7.814832,0.7957,-0.9379,0.7123,-0.2178,-2.9087,0.1236,-29.64,-4.32,-22.68,,adl
7.8158,1.3418,-0.4458,0.5194,-0.2178,-2.9087,0.1236,-29.64,-4.32,-22.68,,adl
7.820523,1.3418,-0.4458,0.5194,-0.3691,-2.1779,0.2035,-29.64,-4.32,-22.68,,adl
7.838325,1.3418,-0.4458,0.5194,-0.5902,-2.1417,0.3526,-29.64,-4.32,-22.68,,adl
7.860861,1.3418,-0.4458,0.5194,-0.5902,-2.1417,0.3526,-32.46,-2.64,-18.42,,adl
7.862454,1.3418,-0.4458,0.5194,-0.8117,-2.2919,0.4282,-32.46,-2.64,-18.42,,adl
7.876909,1.3418,-0.4458,0.5194,-0.8117,-2.2919,0.4282,-32.46,-2.64,-18.42,,adl
7.878604,0.826,1.1503,-2.3863,-0.8117,-2.2919,0.4282,-32.46,-2.64,-18.42,,adl
7.87999,0.826,1.1503,-2.3863,-1.0887,-1.4307,0.3856,-32.46,-2.64,-18.42,,adl
7.901491,0.826,1.1503,-2.3863,-1.1798,-0.1577,0.4511,-32.46,-2.64,-18.42,,adl
7.922929,0.826,1.1503,-2.3863,-1.1798,-0.1577,0.4511,-32.46,5.28,-17.22,,adl
7.924736,0.826,1.1503,-2.3863,-0.8597,-0.1976,0.4799,-32.46,5.28,-17.22,,adl
7.93758,0.826,1.1503,-2.3863,-0.8597,-0.1976,0.4799,-32.46,5.28,-17.22,,adl
7.939075,1.8436,0.4856,0.1609,-0.8597,-0.1976,0.4799,-32.46,5.28,-17.22,,adl
7.941362,1.8436,0.4856,0.1609,-0.5811,-1.5643,0.2503,-32.46,5.28,-17.22,,adl
7.962899,1.8436,0.4856,0.1609,-0.4229,-2.5918,-0.0149,-32.46,5.28,-17.22,,adl
7.98452,1.8436,0.4856,0.1609,-0.4229,-2.5918,-0.0149,-33.9,6.54,-12.24,,adl
7.986191,1.8436,0.4856,0.1609,-0.2115,-2.2786,-0.0581,-33.9,6.54,-12.24,,adl
8.001665,1.8436,0.4856,0.1609,-0.2115,-2.2786,-0.0581,-33.9,6.54,-12.24,,adl
8.003207,0.5705,-1.569,-0.4911,-0.2115,-2.2786,-0.0581,-33.9,6.54,-12.24,,adl
8.004386,0.5705,-1.569,-0.4911,-0.3904,0.4277,0.0783,-33.9,6.54,-12.24,,adl
8.023913,0.5705,-1.569,-0.4911,-1.4488,1.7454,0.0431,-33.9,6.54,-12.24,,adl
8.044915,0.5705,-1.569,-0.4911,-1.4488,1.7454,0.0431,-34.98,7.5,-6.78,,adl
8.046699,0.5705,-1.569,-0.4911,-1.501,-0.3702,0.4831,-34.98,7.5,-6.78,,adl
8.060925,0.5705,-1.569,-0.4911,-1.501,-0.3702,0.4831,-34.98,7.5,-6.78,,adl
8.06241,-2.4368,0.4882,2.7294,-1.501,-0.3702,0.4831,-34.98,7.5,-6.78,,adl
8.065158,-2.4368,0.4882,2.7294,-0.7281,-2.5311,0.9124,-34.98,7.5,-6.78,,adl
8.085882,-2.4368,0.4882,2.7294,-0.6045,-2.8102,0.5129,-34.98,7.5,-6.78,,adl
8.106278,-2.4368,0.4882,2.7294,-0.6045,-2.8102,0.5129,-35.16,8.22,-3.24,,adl
8.107893,-2.4368,0.4882,2.7294,-0.7814,-2.4693,0.0096,-35.16,8.22,-3.24,,adl
8.122925,-2.4368,0.4882,2.7294,-0.7814,-2.4693,0.0096,-35.16,8.22,-3.24,,adl
8.124364,-1.4435,0.3165,0.1583,-0.7814,-2.4693,0.0096,-35.16,8.22,-3.24,,adl
8.125555,-1.4435,0.3165,0.1583,-0.7974,-1.779,-0.2035,-35.16,8.22,-3.24,,adl
8.146311,-1.4435,0.3165,0.1583,-0.8378,-1.6352,-0.3121,-35.16,8.22,-3.24,,adl
8.167831,-1.4435,0.3165,0.1583,-0.8378,-1.6352,-0.3121,-34.68,8.58,0.24,,adl
8.169172,-1.4435,0.3165,0.1583,-0.8256,-2.1625,-0.3723,-34.68,8.58,0.24,,adl
8.184451,-1.4435,0.3165,0.1583,-0.8256,-2.1625,-0.3723,-34.68,8.58,0.24,,adl
8.185789,0.5039,-1.0058,0.7846,-0.8256,-2.1625,-0.3723,-34.68,8.58,0.24,,adl
8.187332,0.5039,-1.0058,0.7846,-0.8458,-2.6946,-0.2855,-34.68,8.58,0.24,,adl
8.209084,0.5039,-1.0058,0.7846,-1.0994,-2.7084,-0.0314,-34.68,8.58,0.24,,adl
8.230939,0.5039,-1.0058,0.7846,-1.0994,-2.7084,-0.0314,-34.68,9.36,4.08,,adl
8.232795,0.5039,-1.0058,0.7846,-1.2362,-2.3686,0.0149,-34.68,9.36,4.08,,adl
8.245961,0.5039,-1.0058,0.7846,-1.2362,-2.3686,0.0149,-34.68,9.36,4.08,,adl
8.2472,0.4071,-0.736,-1.2274,-1.2362,-2.3686,0.0149,-34.68,9.36,4.08,,adl
8.25079,0.4071,-0.736,-1.2274,-1.2346,-2.0629,-0.0746,-34.68,9.36,4.08,,adl
8.270341,0.4071,-0.736,-1.2274,-1.1521,-1.8813,-0.1182,-34.68,9.36,4.08,,adl
8.291827,0.4071,-0.736,-1.2274,-1.1521,-1.8813,-0.1182,-33.66,9.72,7.86,,adl
8.293458,0.4071,-0.736,-1.2274,-1.028,-1.8125,-0.0794,-33.66,9.72,7.86,,adl
8.307026,0.4071,-0.736,-1.2274,-1.028,-1.8125,-0.0794,-33.66,9.72,7.86,,adl
8.308484,0.1858,0.1284,-0.7393,-1.028,-1.8125,-0.0794,-33.66,9.72,7.86,,adl
8.311276,0.1858,0.1284,-0.7393,-0.8575,-1.7646,-0.0048,-33.66,9.72,7.86,,adl
8.332614,0.1858,0.1284,-0.7393,-0.6898,-1.5942,0.0799,-33.66,9.72,7.86,,adl
8.353159,0.1858,0.1284,-0.7393,-0.6898,-1.5942,0.0799,-32.28,9.18,13.32,,adl
8.354922,0.1858,0.1284,-0.7393,-0.4421,-1.0424,0.1039,-32.28,9.18,13.32,,adl
8.369115,0.1858,0.1284,-0.7393,-0.4421,-1.0424,0.1039,-32.28,9.18,13.32,,adl
8.370554,0.4853,-0.6493,0.4533,-0.4421,-1.0424,0.1039,-32.28,9.18,13.32,,adl
8.372038,0.4853,-0.6493,0.4533,-0.2786,-0.3595,0.0927,-32.28,9.18,13.32,,adl
8.393522,0.4853,-0.6493,0.4533,-0.2136,-0.0437,0.0463,-32.28,9.18,13.32,,adl
8.41515,0.4853,-0.6493,0.4533,-0.2136,-0.0437,0.0463,-30.3,8.82,18.12,,adl
8.416714,0.4853,-0.6493,0.4533,-0.1901,-0.2269,-0.0634,-30.3,8.82,18.12,,adl
8.431418,0.4853,-0.6493,0.4533,-0.1901,-0.2269,-0.0634,-30.3,8.82,18.12,,adl
8.432286,0.317,-0.1391,0.5817,-0.1901,-0.2269,-0.0634,-30.3,8.82,18.12,,adl
8.436502,0.317,-0.1391,0.5817,-0.2738,-0.6791,-0.1603,-30.3,8.82,18.12,,adl
8.455083,0.317,-0.1391,0.5817,-0.474,-1.1611,-0.2285,-30.3,8.82,18.12,,adl
8.476671,0.317,-0.1391,0.5817,-0.474,-1.1611,-0.2285,-28.5,8.28,21.9,,adl
8.478266,0.317,-0.1391,0.5817,-0.7334,-1.6655,-0.3148,-28.5,8.28,21.9,,adl
8.492314,0.317,-0.1391,0.5817,-0.7334,-1.6655,-0.3148,-28.5,8.28,21.9,,adl
8.493764,-0.7912,0.3436,-0.2146,-0.7334,-1.6655,-0.3148,-28.5,8.28,21.9,,adl
8.495153,-0.7912,0.3436,-0.2146,-0.898,-2.0453,-0.4011,-28.5,8.28,21.9,,adl
8.516897,-0.7912,0.3436,-0.2146,-0.8639,-2.204,-0.4533,-28.5,8.28,21.9,,adl
8.537976,-0.7912,0.3436,-0.2146,-0.8639,-2.204,-0.4533,-27.06,7.08,24.84,,adl
8.539835,-0.7912,0.3436,-0.2146,-0.7132,-2.1428,-0.4165,-27.06,7.08,24.84,,adl
8.554875,-0.7912,0.3436,-0.2146,-0.7132,-2.1428,-0.4165,-27.06,7.08,24.84,,adl
8.556277,-2.1878,0.8743,-0.8642,-0.7132,-2.1428,-0.4165,-27.06,7.08,24.84,,adl
8.557501,-2.1878,0.8743,-0.8642,-0.5571,-1.9777,-0.3606,-27.06,7.08,24.84,,adl
8.577916,-2.1878,0.8743,-0.8642,-0.4623,-1.7209,-0.3254,-27.06,7.08,24.84,,adl
8.600237,-2.1878,0.8743,-0.8642,-0.4623,-1.7209,-0.3254,-25.26,6.3,26.7,,adl
8.602165,-2.1878,0.8743,-0.8642,-0.4117,-1.4285,-0.3041,-25.26,6.3,26.7,,adl
8.614914,-2.1878,0.8743,-0.8642,-0.4117,-1.4285,-0.3041,-25.26,6.3,26.7,,adl
8.615755,-1.6848,0.564,-1.829,-0.4117,-1.4285,-0.3041,-25.26,6.3,26.7,,adl
8.619551,-1.6848,0.564,-1.829,-0.4527,-1.1659,-0.2067,-25.26,6.3,26.7,,adl
8.639798,-1.6848,0.564,-1.829,-0.5657,-1.0759,-0.1188,-25.26,6.3,26.7,,adl
8.66073,-1.6848,0.564,-1.829,-0.5657,-1.0759,-0.1188,-23.34,5.04,28.68,,adl
8.662288,-1.6848,0.564,-1.829,-0.653,-0.9023,-0.0916,-23.34,5.04,28.68,,adl
8.676822,-1.6848,0.564,-1.829,-0.653,-0.9023,-0.0916,-23.34,5.04,28.68,,adl
8.678249,-1.329,0.3673,-0.0193,-0.653,-0.9023,-0.0916,-23.34,5.04,28.68,,adl
8.679829,-1.329,0.3673,-0.0193,-0.5907,-0.498,0.0117,-23.34,5.04,28.68,,adl
8.701491,-1.329,0.3673,-0.0193,-0.3856,-0.6349,0.0826,-23.34,5.04,28.68,,adl
8.722843,-1.329,0.3673,-0.0193,-0.3856,-0.6349,0.0826,-20.52,3.54,31.14,,adl
8.724437,-1.329,0.3673,-0.0193,-0.1779,-1.0999,0.2349,-20.52,3.54,31.14,,adl
8.737694,-1.329,0.3673,-0.0193,-0.1779,-1.0999,0.2349,-20.52,3.54,31.14,,adl
8.739323,0.3352,0.8121,2.2096,-0.1779,-1.0999,0.2349,-20.52,3.54,31.14,,adl
8.74149,0.3352,0.8121,2.2096,0.0154,-1.5468,0.4208,-20.52,3.54,31.14,,adl
8.762936,0.3352,0.8121,2.2096,0.1731,-1.5926,0.3036,-20.52,3.54,31.14,,adl
8.784672,0.3352,0.8121,2.2096,0.1731,-1.5926,0.3036,-18.0,2.4,33.0,,adl
8.786373,0.3352,0.8121,2.2096,0.123,-1.3678,0.0362,-18.0,2.4,33.0,,adl
8.800802,0.3352,0.8121,2.2096,0.123,-1.3678,0.0362,-18.0,2.4,33.0,,adl
8.802161,2.5526,-3.9794,3.5244,0.123,-1.3678,0.0362,-18.0,2.4,33.0,,adl
8.803552,2.5526,-3.9794,3.5244,0.033,-1.4583,-0.1497,-18.0,2.4,33.0,,adl
8.824006,2.5526,-3.9794,3.5244,0.1055,-1.6101,0.0144,-18.0,2.4,33.0,,adl
8.845753,2.5526,-3.9794,3.5244,0.1055,-1.6101,0.0144,-15.48,1.92,34.08,,adl
8.847709,2.5526,-3.9794,3.5244,0.2668,-1.1255,0.3196,-15.48,1.92,34.08,,adl
8.861546,2.5526,-3.9794,3.5244,0.2668,-1.1255,0.3196,-15.48,1.92,34.08,,adl
8.863138,-0.455,-0.7852,2.0425,0.2668,-1.1255,0.3196,-15.48,1.92,34.08,,adl
8.864431,-0.455,-0.7852,2.0425,0.5369,-0.4075,0.3808,-15.48,1.92,34.08,,adl
8.886718,-0.455,-0.7852,2.0425,0.8325,0.1449,0.3467,-15.48,1.92,34.08,,adl
8.906816,-0.455,-0.7852,2.0425,0.8325,0.1449,0.3467,-12.84,2.22,34.92,,adl
8.908007,-0.455,-0.7852,2.0425,0.8831,0.7137,0.3627,-12.84,2.22,34.92,,adl
8.922178,-0.455,-0.7852,2.0425,0.8831,0.7137,0.3627,-12.84,2.22,34.92,,adl
8.923504,0.9299,-0.3909,-3.3918,0.8831,0.7137,0.3627,-12.84,2.22,34.92,,adl
8.926375,0.9299,-0.3909,-3.3918,0.6482,1.175,0.4458,-12.84,2.22,34.92,,adl
8.947582,0.9299,-0.3909,-3.3918,0.0868,0.8282,0.5641,-12.84,2.22,34.92,,adl
8.968162,0.9299,-0.3909,-3.3918,0.0868,0.8282,0.5641,-10.56,3.3,34.68,,adl
8.968792,0.9299,-0.3909,-3.3918,-0.2418,-0.2977,0.7169,-10.56,3.3,34.68,,adl
8.983265,0.9299,-0.3909,-3.3918,-0.2418,-0.2977,0.7169,-10.56,3.3,34.68,,adl
8.983672,0.5631,0.5585,0.9843,-0.2418,-0.2977,0.7169,-10.56,3.3,34.68,,adl
8.987241,0.5631,0.5585,0.9843,0.229,-1.9148,1.0482,-10.56,3.3,34.68,,adl
9.008045,0.5631,0.5585,0.9843,0.9646,-2.4693,1.3923,-10.56,3.3,34.68,,adl
9.029035,0.5631,0.5585,0.9843,0.9646,-2.4693,1.3923,-9.0,4.68,34.2,,adl
9.029683,0.5631,0.5585,0.9843,1.5169,-1.8365,1.6251,-9.0,4.68,34.2,,adl
9.044579,0.5631,0.5585,0.9843,1.5169,-1.8365,1.6251,-9.0,4.68,34.2,,adl
9.045081,0.4853,-0.7229,-1.1768,1.5169,-1.8365,1.6251,-9.0,4.68,34.2,,adl
9.048744,0.4853,-0.7229,-1.1768,1.1233,-0.7148,1.4962,-9.0,4.68,34.2,,adl
9.069443,0.4853,-0.7229,-1.1768,0.1124,-0.3691,1.2581,-9.0,4.68,34.2,,adl
9.090436,0.4853,-0.7229,-1.1768,0.1124,-0.3691,1.2581,-6.66,6.36,34.14,,adl
9.090961,0.4853,-0.7229,-1.1768,-0.5918,-1.3002,1.0168,-6.66,6.36,34.14,,adl
9.106739,0.4853,-0.7229,-1.1768,-0.5918,-1.3002,1.0168,-6.66,6.36,34.14,,adl
9.10741,2.562,-0.3702,-0.1255,-0.5918,-1.3002,1.0168,-6.66,6.36,34.14,,adl
9.110646,2.562,-0.3702,-0.1255,-0.6988,-1.4147,0.7297,-6.66,6.36,34.14,,adl
9.131226,2.562,-0.3702,-0.1255,-0.4815,-1.0477,0.3968,-6.66,6.36,34.14,,adl
9.152628,2.562,-0.3702,-0.1255,-0.4815,-1.0477,0.3968,-4.08,8.04,33.36,,adl
9.153205,2.562,-0.3702,-0.1255,-0.1667,-0.8341,0.1193,-4.08,8.04,33.36,,adl
9.167974,2.562,-0.3702,-0.1255,-0.1667,-0.8341,0.1193,-4.08,8.04,33.36,,adl
9.168473,3.3483,0.4207,-0.39,-0.1667,-0.8341,0.1193,-4.08,8.04,33.36,,adl
9.171982,3.3483,0.4207,-0.39,0.065,-0.882,-0.0277,-4.08,8.04,33.36,,adl
9.192869,3.3483,0.4207,-0.39,0.0634,-0.824,-0.0703,-4.08,8.04,33.36,,adl
9.213994,3.3483,0.4207,-0.39,0.0634,-0.824,-0.0703,-0.78,9.0,32.52,,adl
9.214642,3.3483,0.4207,-0.39,-0.1257,-0.6498,-0.0202,-0.78,9.0,32.52,,adl
9.229727,3.3483,0.4207,-0.39,-0.1257,-0.6498,-0.0202,-0.78,9.0,32.52,,adl
9.230044,1.7657,0.4442,0.5832,-0.1257,-0.6498,-0.0202,-0.78,9.0,32.52,,adl
9.233546,1.7657,0.4442,0.5832,-0.3558,-0.6796,0.0975,-0.78,9.0,32.52,,adl
9.254932,1.7657,0.4442,0.5832,-0.5502,-0.6136,0.2184,-0.78,9.0,32.52,,adl
9.275269,1.7657,0.4442,0.5832,-0.5502,-0.6136,0.2184,3.24,9.78,31.74,,adl
9.275803,1.7657,0.4442,0.5832,-0.7286,-0.2764,0.3925,3.24,9.78,31.74,,adl
9.291094,1.7657,0.4442,0.5832,-0.7286,-0.2764,0.3925,3.24,9.78,31.74,,adl
9.291571,-1.3062,0.6852,0.4925,-0.7286,-0.2764,0.3925,3.24,9.78,31.74,,adl
9.295292,-1.3062,0.6852,0.4925,-0.873,0.6067,0.5779,3.24,9.78,31.74,,adl
9.316131,-1.3062,0.6852,0.4925,-0.8176,1.534,0.6274,3.24,9.78,31.74,,adl
9.336993,-1.3062,0.6852,0.4925,-0.8176,1.534,0.6274,6.18,9.9,31.26,,adl
9.337586,-1.3062,0.6852,0.4925,-0.3127,0.9348,0.457,6.18,9.9,31.26,,adl
9.35285,-1.3062,0.6852,0.4925,-0.3127,0.9348,0.457,6.18,9.9,31.26,,adl
9.353362,-0.7179,-0.1206,4.4195,-0.3127,0.9348,0.457,6.18,9.9,31.26,,adl
9.356965,-0.7179,-0.1206,4.4195,0.1731,-0.3382,0.1625,6.18,9.9,31.26,,adl
9.378067,-0.7179,-0.1206,4.4195,-0.3521,-0.6125,-0.0128,6.18,9.9,31.26,,adl
9.399297,-0.7179,-0.1206,4.4195,-0.3521,-0.6125,-0.0128,7.56,9.06,31.2,,adl
9.400041,-0.7179,-0.1206,4.4195,-1.0386,-0.3744,-0.3441,7.56,9.06,31.2,,adl
9.415496,-0.7179,-0.1206,4.4195,-1.0386,-0.3744,-0.3441,7.56,9.06,31.2,,adl
9.416388,1.8279,-6.1468,-1.2137,-1.0386,-0.3744,-0.3441,7.56,9.06,31.2,,adl
9.41931,1.8279,-6.1468,-1.2137,-1.2298,0.1417,-1.0221,7.56,9.06,31.2,,adl
9.440386,1.8279,-6.1468,-1.2137,-0.5971,-0.5257,-1.3097,7.56,9.06,31.2,,adl
9.461997,1.8279,-6.1468,-1.2137,-0.5971,-0.5257,-1.3097,7.8,8.04,31.8,,adl
9.463873,1.8279,-6.1468,-1.2137,0.3606,-1.2037,-0.7153,7.8,8.04,31.8,,adl
9.477259,1.8279,-6.1468,-1.2137,0.3606,-1.2037,-0.7153,7.8,8.04,31.8,,adl
9.478767,-0.2596,1.595,0.8339,0.3606,-1.2037,-0.7153,7.8,8.04,31.8,,adl
9.481252,-0.2596,1.595,0.8339,0.8021,-0.4304,0.2743,7.8,8.04,31.8,,adl
9.501985,-0.2596,1.595,0.8339,-0.4218,1.167,0.4165,7.8,8.04,31.8,,adl
9.523361,-0.2596,1.595,0.8339,-0.4218,1.167,0.4165,8.1,7.14,32.4,,adl
9.525041,-0.2596,1.595,0.8339,-1.8243,1.5542,0.0123,8.1,7.14,32.4,,adl
9.53918,-0.2596,1.595,0.8339,-1.8243,1.5542,0.0123,8.1,7.14,32.4,,adl
9.540624,2.1599,1.1761,-1.1391,-1.8243,1.5542,0.0123,8.1,7.14,32.4,,adl
9.543237,2.1599,1.1761,-1.1391,-1.7156,1.1755,-0.155,8.1,7.14,32.4,,adl
9.563997,2.1599,1.1761,-1.1391,-0.2589,0.016,-0.025,8.1,7.14,32.4,,adl
9.583917,2.1599,1.1761,-1.1391,-0.2589,0.016,-0.025,7.5,6.06,32.88,,adl
9.585244,2.1599,1.1761,-1.1391,-0.2125,-0.4432,-0.3276,7.5,6.06,32.88,,adl
9.60096,2.1599,1.1761,-1.1391,-0.2125,-0.4432,-0.3276,7.5,6.06,32.88,,adl
9.602273,0.0734,-2.791,-1.9639,-0.2125,-0.4432,-0.3276,7.5,6.06,32.88,,adl
9.605035,0.0734,-2.791,-1.9639,-0.1507,-0.2397,-0.3222,7.5,6.06,32.88,,adl
9.625092,0.0734,-2.791,-1.9639,0.0304,0.0176,0.0112,7.5,6.06,32.88,,adl
9.646378,0.0734,-2.791,-1.9639,0.0304,0.0176,0.0112,7.38,4.98,34.14,,adl
9.648287,0.0734,-2.791,-1.9639,-0.0266,0.4517,0.3068,7.38,4.98,34.14,,adl
9.662763,0.0734,-2.791,-1.9639,-0.0266,0.4517,0.3068,7.38,4.98,34.14,,adl
9.663828,1.2432,-0.1408,-2.0601,-0.0266,0.4517,0.3068,7.38,4.98,34.14,,adl
9.668297,1.2432,-0.1408,-2.0601,-0.1236,1.0376,0.4581,7.38,4.98,34.14,,adl
9.686285,1.2432,-0.1408,-2.0601,-0.1646,1.5654,0.3995,7.38,4.98,34.14,,adl
9.707644,1.2432,-0.1408,-2.0601,-0.1646,1.5654,0.3995,7.14,4.14,34.98,,adl
9.709256,1.2432,-0.1408,-2.0601,-0.1092,1.6794,0.2003,7.14,4.14,34.98,,adl
9.723029,1.2432,-0.1408,-2.0601,-0.1092,1.6794,0.2003,7.14,4.14,34.98,,adl
9.724481,1.5949,-0.2669,-0.1301,-0.1092,1.6794,0.2003,7.14,4.14,34.98,,adl
9.728339,1.5949,-0.2669,-0.1301,-0.0485,1.5063,-0.0346,7.14,4.14,34.98,,adl
9.74798,1.5949,-0.2669,-0.1301,-0.0389,1.3939,-0.1598,7.14,4.14,34.98,,adl
9.76879,1.5949,-0.2669,-0.1301,-0.0389,1.3939,-0.1598,5.52,3.0,36.0,,adl
9.770084,1.5949,-0.2669,-0.1301,-0.171,1.3071,-0.1603,5.52,3.0,36.0,,adl
9.78401,1.5949,-0.2669,-0.1301,-0.171,1.3071,-0.1603,5.52,3.0,36.0,,adl
9.785325,-0.016,-0.3319,-0.7719,-0.171,1.3071,-0.1603,5.52,3.0,36.0,,adl
9.787975,-0.016,-0.3319,-0.7719,-0.3649,1.1121,-0.1454,5.52,3.0,36.0,,adl
9.808381,-0.016,-0.3319,-0.7719,-0.4629,0.7207,-0.1656,5.52,3.0,36.0,,adl
9.829605,-0.016,-0.3319,-0.7719,-0.4629,0.7207,-0.1656,3.6,1.86,36.72,,adl
9.830623,-0.016,-0.3319,-0.7719,-0.4527,0.3537,-0.221,3.6,1.86,36.72,,adl
9.845612,-0.016,-0.3319,-0.7719,-0.4527,0.3537,-0.221,3.6,1.86,36.72,,adl
9.846141,-0.5253,0.5605,0.4983,-0.4527,0.3537,-0.221,3.6,1.86,36.72,,adl
9.849813,-0.5253,0.5605,0.4983,-0.4352,0.1864,-0.2961,3.6,1.86,36.72,,adl
9.870104,-0.5253,0.5605,0.4983,-0.5087,0.2493,-0.3446,3.6,1.86,36.72,,adl
9.891142,-0.5253,0.5605,0.4983,-0.5087,0.2493,-0.3446,1.08,1.02,36.66,,adl
9.891783,-0.5253,0.5605,0.4983,-0.6525,0.2328,-0.3856,1.08,1.02,36.66,,adl
9.907073,-0.5253,0.5605,0.4983,-0.6525,0.2328,-0.3856,1.08,1.02,36.66,,adl
9.907601,0.3012,-0.1812,0.2227,-0.6525,0.2328,-0.3856,1.08,1.02,36.66,,adl
9.910965,0.3012,-0.1812,0.2227,-0.7478,0.0261,-0.4543,1.08,1.02,36.66,,adl
9.931702,0.3012,-0.1812,0.2227,-0.7569,-0.2029,-0.5135,1.08,1.02,36.66,,adl
9.952917,0.3012,-0.1812,0.2227,-0.7569,-0.2029,-0.5135,-1.44,-0.42,36.3,,adl
9.953853,0.3012,-0.1812,0.2227,-0.693,-0.3542,-0.4895,-1.44,-0.42,36.3,,adl
9.968668,0.3012,-0.1812,0.2227,-0.693,-0.3542,-0.4895,-1.44,-0.42,36.3,,adl
9.969332,-0.5148,0.5052,0.4011,-0.693,-0.3542,-0.4895,-1.44,-0.42,36.3,,adl
9.972558,-0.5148,0.5052,0.4011,-0.5396,-0.2716,-0.3707,-1.44,-0.42,36.3,,adl
9.993561,-0.5148,0.5052,0.4011,-0.2482,0.1971,-0.1758,-1.44,-0.42,36.3,,adl
10.015235,-0.5148,0.5052,0.4011,-0.2482,0.1971,-0.1758,-2.16,-1.62,36.6,,adl
10.016799,-0.5148,0.5052,0.4011,-0.0341,0.6338,-0.0442,-2.16,-1.62,36.6,,adl
10.030993,-0.5148,0.5052,0.4011,-0.0341,0.6338,-0.0442,-2.16,-1.62,36.6,,adl
10.031905,-1.7661,0.2602,-0.3998,-0.0341,0.6338,-0.0442,-2.16,-1.62,36.6,,adl
10.035076,-1.7661,0.2602,-0.3998,0.0921,0.7515,-0.032,-2.16,-1.62,36.6,,adl
10.05593,-1.7661,0.2602,-0.3998,0.2056,0.6503,-0.0783,-2.16,-1.62,36.6,,adl
10.077207,-1.7661,0.2602,-0.3998,0.2056,0.6503,-0.0783,-3.06,-2.82,36.66,,adl
10.07868,-1.7661,0.2602,-0.3998,0.285,0.6892,-0.0586,-3.06,-2.82,36.66,,adl
10.093371,-1.7661,0.2602,-0.3998,0.285,0.6892,-0.0586,-3.06,-2.82,36.66,,adl
10.095007,0.4537,-0.8951,2.001,0.285,0.6892,-0.0586,-3.06,-2.82,36.66,,adl
10.096127,0.4537,-0.8951,2.001,0.3622,0.7143,-0.0692,-3.06,-2.82,36.66,,adl
10.117805,0.4537,-0.8951,2.001,0.5119,0.4405,-0.0905,-3.06,-2.82,36.66,,adl
10.138885,0.4537,-0.8951,2.001,0.5119,0.4405,-0.0905,-4.32,-3.84,37.02,,adl
10.140557,0.4537,-0.8951,2.001,0.5923,0.0703,0.1065,-4.32,-3.84,37.02,,adl
10.1551,0.4537,-0.8951,2.001,0.5923,0.0703,0.1065,-4.32,-3.84,37.02,,adl
10.156656,-2.0474,-1.5227,-0.2292,0.5923,0.0703,0.1065,-4.32,-3.84,37.02,,adl
10.1579,-2.0474,-1.5227,-0.2292,0.824,0.0581,0.1886,-4.32,-3.84,37.02,,adl
10.178992,-2.0474,-1.5227,-0.2292,1.3635,0.4053,0.2242,-4.32,-3.84,37.02,,adl
10.200953,-2.0474,-1.5227,-0.2292,1.3635,0.4053,0.2242,-5.4,-4.2,37.5,,adl
10.20309,-2.0474,-1.5227,-0.2292,1.9809,0.7931,0.3851,-5.4,-4.2,37.5,,adl
10.217433,-2.0474,-1.5227,-0.2292,1.9809,0.7931,0.3851,-5.4,-4.2,37.5,,adl
10.218848,0.2452,-0.1959,1.7236,1.9809,0.7931,0.3851,-5.4,-4.2,37.5,,adl
10.220001,0.2452,-0.1959,1.7236,2.3606,0.9294,0.4858,-5.4,-4.2,37.5,,adl
10.240525,0.2452,-0.1959,1.7236,2.7974,0.8112,0.376,-5.4,-4.2,37.5,,adl
10.262674,0.2452,-0.1959,1.7236,2.7974,0.8112,0.376,-7.14,-3.48,37.02,,adl
10.264583,0.2452,-0.1959,1.7236,2.9268,0.0778,0.1316,-7.14,-3.48,37.02,,adl
10.277062,0.2452,-0.1959,1.7236,2.9268,0.0778,0.1316,-7.14,-3.48,37.02,,adl
10.277875,1.9001,-0.5132,-1.7553,2.9268,0.0778,0.1316,-7.14,-3.48,37.02,,adl
10.282757,1.9001,-0.5132,-1.7553,2.1742,-0.3238,0.1241,-7.14,-3.48,37.02,,adl
10.304174,1.9001,-0.5132,-1.7553,1.199,-0.7137,0.27,-7.14,-3.48,37.02,,adl
10.32264,1.9001,-0.5132,-1.7553,1.199,-0.7137,0.27,-8.58,-0.72,36.66,,adl
10.323964,1.9001,-0.5132,-1.7553,0.3462,-1.4024,0.4011,-8.58,-0.72,36.66,,adl
10.338254,1.9001,-0.5132,-1.7553,0.3462,-1.4024,0.4011,-8.58,-0.72,36.66,,adl
10.339568,-2.8574,-4.0032,-1.7751,0.3462,-1.4024,0.4011,-8.58,-0.72,36.66,,adl
10.342146,-2.8574,-4.0032,-1.7751,0.1955,-1.9627,0.5918,-8.58,-0.72,36.66,,adl
10.363241,-2.8574,-4.0032,-1.7751,0.351,-1.592,0.6573,-8.58,-0.72,36.66,,adl
10.384812,-2.8574,-4.0032,-1.7751,0.351,-1.592,0.6573,-8.58,3.18,35.94,,adl
10.386411,-2.8574,-4.0032,-1.7751,0.1225,-1.4115,0.7127,-8.58,3.18,35.94,,adl
10.401434,-2.8574,-4.0032,-1.7751,0.1225,-1.4115,0.7127,-8.58,3.18,35.94,,adl
10.403087,0.2004,1.0129,-2.0151,0.1225,-1.4115,0.7127,-8.58,3.18,35.94,,adl
10.404348,0.2004,1.0129,-2.0151,0.1646,-1.6352,0.7361,-8.58,3.18,35.94,,adl
10.425569,0.2004,1.0129,-2.0151,0.2445,-1.9377,0.5832,-8.58,3.18,35.94,,adl
10.447017,0.2004,1.0129,-2.0151,0.2445,-1.9377,0.5832,-7.14,7.32,35.7,,adl
10.4489,0.2004,1.0129,-2.0151,0.212,-1.6741,0.4192,-7.14,7.32,35.7,,adl
10.462788,0.2004,1.0129,-2.0151,0.212,-1.6741,0.4192,-7.14,7.32,35.7,,adl
10.463914,1.7628,0.3415,-2.3664,0.212,-1.6741,0.4192,-7.14,7.32,35.7,,adl
10.468229,1.7628,0.3415,-2.3664,0.1097,-0.9641,0.3063,-7.14,7.32,35.7,,adl
10.48787,1.7628,0.3415,-2.3664,-0.0506,-0.5001,0.2743,-7.14,7.32,35.7,,adl
10.508737,1.7628,0.3415,-2.3664,-0.0506,-0.5001,0.2743,-4.62,11.28,35.58,,adl
10.510772,1.7628,0.3415,-2.3664,-0.2008,-0.7308,0.2892,-4.62,11.28,35.58,,adl
10.524305,1.7628,0.3415,-2.3664,-0.2008,-0.7308,0.2892,-4.62,11.28,35.58,,adl
10.525796,3.0651,0.2132,-1.4265,-0.2008,-0.7308,0.2892,-4.62,11.28,35.58,,adl
10.528751,3.0651,0.2132,-1.4265,-0.3052,-1.0392,0.1811,-4.62,11.28,35.58,,adl
10.549477,3.0651,0.2132,-1.4265,-0.277,-0.7627,-0.147,-4.62,11.28,35.58,,adl
10.569941,3.0651,0.2132,-1.4265,-0.277,-0.7627,-0.147,-0.84,13.08,35.4,,adl
10.571705,3.0651,0.2132,-1.4265,-0.1129,-0.2913,-0.3995,-0.84,13.08,35.4,,adl
10.585221,3.0651,0.2132,-1.4265,-0.1129,-0.2913,-0.3995,-0.84,13.08,35.4,,adl
10.586772,3.0524,0.117,-0.7818,-0.1129,-0.2913,-0.3995,-0.84,13.08,35.4,,adl
10.589418,3.0524,0.117,-0.7818,0.1076,0.2051,-0.4447,-0.84,13.08,35.4,,adl
10.610786,3.0524,0.117,-0.7818,0.2668,0.6461,-0.1832,-0.84,13.08,35.4,,adl
10.632574,3.0524,0.117,-0.7818,0.2668,0.6461,-0.1832,2.58,13.62,35.7,,adl
10.634401,3.0524,0.117,-0.7818,0.3015,1.0067,0.2376,2.58,13.62,35.7,,adl
10.647422,3.0524,0.117,-0.7818,0.3015,1.0067,0.2376,2.58,13.62,35.7,,adl
10.648375,-2.6189,0.4611,1.8213,0.3015,1.0067,0.2376,2.58,13.62,35.7,,adl
10.652479,-2.6189,0.4611,1.8213,0.1587,0.9108,0.816,2.58,13.62,35.7,,adl
10.672348,-2.6189,0.4611,1.8213,-0.0431,0.4234,1.1382,2.58,13.62,35.7,,adl
10.693209,-2.6189,0.4611,1.8213,-0.0431,0.4234,1.1382,4.14,14.04,34.92,,adl
10.695014,-2.6189,0.4611,1.8213,-0.4671,0.579,0.971,4.14,14.04,34.92,,adl
10.708581,-2.6189,0.4611,1.8213,-0.4671,0.579,0.971,4.14,14.04,34.92,,adl
10.709928,-3.2041,1.6203,0.424,-0.4671,0.579,0.971,4.14,14.04,34.92,,adl
10.712385,-3.2041,1.6203,0.424,-0.8506,0.6274,0.7798,4.14,14.04,34.92,,adl
10.733466,-3.2041,1.6203,0.424,-0.7851,-0.139,0.7047,4.14,14.04,34.92,,adl
10.754665,-3.2041,1.6203,0.424,-0.7851,-0.139,0.7047,4.26,13.38,34.74,,adl
10.75628,-3.2041,1.6203,0.424,-0.2567,-1.4317,0.5172,4.26,13.38,34.74,,adl
10.770384,-3.2041,1.6203,0.424,-0.2567,-1.4317,0.5172,4.26,13.38,34.74,,adl
10.771839,-0.8492,-1.7689,1.2947,-0.2567,-1.4317,0.5172,4.26,13.38,34.74,,adl
10.774368,-0.8492,-1.7689,1.2947,-0.2242,-1.698,0.2242,4.26,13.38,34.74,,adl
10.795304,-0.8492,-1.7689,1.2947,-0.9396,-1.4509,-0.172,4.26,13.38,34.74,,adl
10.815847,-0.8492,-1.7689,1.2947,-0.9396,-1.4509,-0.172,4.02,12.54,35.28,,adl
10.817641,-0.8492,-1.7689,1.2947,-0.8932,-2.1034,-0.1177,4.02,12.54,35.28,,adl
10.832254,-0.8492,-1.7689,1.2947,-0.8932,-2.1034,-0.1177,4.02,12.54,35.28,,adl
10.833241,1.3489,-1.5603,2.1444,-0.8932,-2.1034,-0.1177,4.02,12.54,35.28,,adl
10.837296,1.3489,-1.5603,2.1444,0.0154,-2.4331,-0.0762,4.02,12.54,35.28,,adl
10.856582,1.3489,-1.5603,2.1444,-0.2413,-1.4344,-0.506,4.02,12.54,35.28,,adl
10.876931,1.3489,-1.5603,2.1444,-0.2413,-1.4344,-0.506,4.26,11.82,35.28,,adl
10.878828,1.3489,-1.5603,2.1444,-1.4088,0.2977,-0.7494,4.26,11.82,35.28,,adl
10.892282,1.3489,-1.5603,2.1444,-1.4088,0.2977,-0.7494,4.26,11.82,35.28,,adl
10.893312,3.4442,1.1848,-5.883,-1.4088,0.2977,-0.7494,4.26,11.82,35.28,,adl
10.896466,3.4442,1.1848,-5.883,-2.2376,1.3279,-0.8256,4.26,11.82,35.28,,adl
10.917489,3.4442,1.1848,-5.883,-1.3763,1.2181,-0.7286,4.26,11.82,35.28,,adl
10.93862,3.4442,1.1848,-5.883,-1.3763,1.2181,-0.7286,5.94,11.04,35.1,,adl
10.940198,3.4442,1.1848,-5.883,-0.5348,0.9417,-0.0362,5.94,11.04,35.1,,adl
10.954977,3.4442,1.1848,-5.883,-0.5348,0.9417,-0.0362,5.94,11.04,35.1,,adl
10.956445,0.5725,-1.2158,-4.776,-0.5348,0.9417,-0.0362,5.94,11.04,35.1,,adl
10.958784,0.5725,-1.2158,-4.776,-0.7494,0.7606,0.4309,5.94,11.04,35.1,,adl
10.979749,0.5725,-1.2158,-4.776,-0.7382,0.2173,0.4975,5.94,11.04,35.1,,adl
11.000567,0.5725,-1.2158,-4.776,-0.7382,0.2173,0.4975,7.2,9.6,35.7,,adl
11.002108,0.5725,-1.2158,-4.776,-0.4016,-0.2354,0.4037,7.2,9.6,35.7,,adl
11.015315,0.5725,-1.2158,-4.776,-0.4016,-0.2354,0.4037,7.2,9.6,35.7,,adl
11.016093,0.1745,-0.5277,-2.6016,-0.4016,-0.2354,0.4037,7.2,9.6,35.7,,adl
11.02039,0.1745,-0.5277,-2.6016,-0.1987,0.0176,0.2482,7.2,9.6,35.7,,adl
11.041619,0.1745,-0.5277,-2.6016,-0.0522,0.6136,0.13,7.2,9.6,35.7,,adl
11.062958,0.1745,-0.5277,-2.6016,-0.0522,0.6136,0.13,8.28,8.28,35.46,,adl
11.064721,0.1745,-0.5277,-2.6016,0.1417,0.6935,-0.0794,8.28,8.28,35.46,,adl
11.078917,0.1745,-0.5277,-2.6016,0.1417,0.6935,-0.0794,8.28,8.28,35.46,,adl
11.080506,0.7145,-0.9881,-1.0328,0.1417,0.6935,-0.0794,8.28,8.28,35.46,,adl
11.084027,0.7145,-0.9881,-1.0328,0.2019,0.6871,-0.2157,8.28,8.28,35.46,,adl
11.102818,0.7145,-0.9881,-1.0328,-0.0905,1.3326,-0.204,8.28,8.28,35.46,,adl
11.124252,0.7145,-0.9881,-1.0328,-0.0905,1.3326,-0.204,7.86,6.6,35.7,,adl
11.1258,0.7145,-0.9881,-1.0328,-0.5491,1.6767,-0.1603,7.86,6.6,35.7,,adl
11.140243,0.7145,-0.9881,-1.0328,-0.5491,1.6767,-0.1603,7.86,6.6,35.7,,adl
11.141765,0.657,-0.2734,-0.6176,-0.5491,1.6767,-0.1603,7.86,6.6,35.7,,adl
11.143319,0.657,-0.2734,-0.6176,-0.7776,1.1366,-0.1827,7.86,6.6,35.7,,adl
11.16456,0.657,-0.2734,-0.6176,-0.7691,0.3973,-0.278,7.86,6.6,35.7,,adl
11.185251,0.657,-0.2734,-0.6176,-0.7691,0.3973,-0.278,6.06,4.86,37.32,,adl
11.1872,0.657,-0.2734,-0.6176,-0.7105,0.2551,-0.3521,6.06,4.86,37.32,,adl
11.200945,0.657,-0.2734,-0.6176,-0.7105,0.2551,-0.3521,6.06,4.86,37.32,,adl
11.202405,-0.2282,0.3044,-0.5911,-0.7105,0.2551,-0.3521,6.06,4.86,37.32,,adl
11.20561,-0.2282,0.3044,-0.5911,-0.6099,0.4623,-0.3904,6.06,4.86,37.32,,adl
11.225541,-0.2282,0.3044,-0.5911,-0.4804,0.7675,-0.4192,6.06,4.86,37.32,,adl
11.24733,-0.2282,0.3044,-0.5911,-0.4804,0.7675,-0.4192,4.44,3.84,37.68,,adl
11.249054,-0.2282,0.3044,-0.5911,-0.4341,1.0514,-0.4458,4.44,3.84,37.68,,adl
11.262882,-0.2282,0.3044,-0.5911,-0.4341,1.0514,-0.4458,4.44,3.84,37.68,,adl
11.263766,-0.5762,0.3689,0.011,-0.4341,1.0514,-0.4458,4.44,3.84,37.68,,adl
11.267971,-0.5762,0.3689,0.011,-0.5246,1.0115,-0.4623,4.44,3.84,37.68,,adl
11.288838,-0.5762,0.3689,0.011,-0.6711,0.5167,-0.4943,4.44,3.84,37.68,,adl
11.308067,-0.5762,0.3689,0.011,-0.6711,0.5167,-0.4943,2.22,2.16,38.4,,adl
11.309818,-0.5762,0.3689,0.011,-0.8139,-0.1678,-0.5305,2.22,2.16,38.4,,adl
11.324504,-0.5762,0.3689,0.011,-0.8139,-0.1678,-0.5305,2.22,2.16,38.4,,adl
11.326151,-0.8043,0.3693,0.6794,-0.8139,-0.1678,-0.5305,2.22,2.16,38.4,,adl
11.329152,-0.8043,0.3693,0.6794,-0.8799,-0.4836,-0.5214,2.22,2.16,38.4,,adl
11.349373,-0.8043,0.3693,0.6794,-0.9486,-0.5321,-0.4607,2.22,2.16,38.4,,adl
11.370656,-0.8043,0.3693,0.6794,-0.9486,-0.5321,-0.4607,0.36,0.96,39.54,,adl
11.372385,-0.8043,0.3693,0.6794,-0.9779,-0.3276,-0.384,0.36,0.96,39.54,,adl
11.386927,-0.8043,0.3693,0.6794,-0.9779,-0.3276,-0.384,0.36,0.96,39.54,,adl
11.38846,-2.3441,0.8709,0.2238,-0.9779,-0.3276,-0.384,0.36,0.96,39.54,,adl
11.39008,-2.3441,0.8709,0.2238,-0.8107,-0.1678,-0.236,0.36,0.96,39.54,,adl
11.411438,-2.3441,0.8709,0.2238,-0.392,-0.0128,-0.1651,0.36,0.96,39.54,,adl
11.432039,-2.3441,0.8709,0.2238,-0.392,-0.0128,-0.1651,-0.78,-0.9,39.6,,adl
11.433942,-2.3441,0.8709,0.2238,0.0985,0.1438,-0.1827,-0.78,-0.9,39.6,,adl
11.448206,-2.3441,0.8709,0.2238,0.0985,0.1438,-0.1827,-0.78,-0.9,39.6,,adl
11.449352,-0.704,-1.6682,0.9524,0.0985,0.1438,-0.1827,-0.78,-0.9,39.6,,adl
11.453813,-0.704,-1.6682,0.9524,0.4447,0.5401,-0.0746,-0.78,-0.9,39.6,,adl
11.472078,-0.704,-1.6682,0.9524,0.5108,0.8836,0.1587,-0.78,-0.9,39.6,,adl
11.493503,-0.704,-1.6682,0.9524,0.5108,0.8836,0.1587,-1.32,-2.76,39.84,,adl
11.49559,-0.704,-1.6682,0.9524,0.5396,1.0003,0.2296,-1.32,-2.76,39.84,,adl
11.509056,-0.704,-1.6682,0.9524,0.5396,1.0003,0.2296,-1.32,-2.76,39.84,,adl
11.510629,-0.4582,-1.5526,1.3971,0.5396,1.0003,0.2296,-1.32,-2.76,39.84,,adl
11.513567,-0.4582,-1.5526,1.3971,0.8581,0.7915,0.049,-1.32,-2.76,39.84,,adl
11.534337,-0.4582,-1.5526,1.3971,1.2416,0.4005,0.1193,-1.32,-2.76,39.84,,adl
11.555361,-0.4582,-1.5526,1.3971,1.2416,0.4005,0.1193,-2.04,-3.48,39.9,,adl
11.557112,-0.4582,-1.5526,1.3971,1.5606,0.2333,0.3052,-2.04,-3.48,39.9,,adl
11.57105,-0.4582,-1.5526,1.3971,1.5606,0.2333,0.3052,-2.04,-3.48,39.9,,adl
11.572609,-0.4454,-0.2285,2.1518,1.5606,0.2333,0.3052,-2.04,-3.48,39.9,,adl
11.57476,-0.4454,-0.2285,2.1518,1.9228,0.6477,0.4618,-2.04,-3.48,39.9,,adl
11.595749,-0.4454,-0.2285,2.1518,2.465,1.2096,0.4171,-2.04,-3.48,39.9,,adl
11.616728,-0.4454,-0.2285,2.1518,2.465,1.2096,0.4171,-2.58,-3.84,39.0,,adl
11.618788,-0.4454,-0.2285,2.1518,2.9891,0.8607,0.2727,-2.58,-3.84,39.0,,adl
11.631444,-0.4454,-0.2285,2.1518,2.9891,0.8607,0.2727,-2.58,-3.84,39.0,,adl
11.632509,2.1582,-0.6738,0.4177,2.9891,0.8607,0.2727,-2.58,-3.84,39.0,,adl
11.636883,2.1582,-0.6738,0.4177,2.8714,0.4463,0.2855,-2.58,-3.84,39.0,,adl
11.657621,2.1582,-0.6738,0.4177,1.95,0.2924,0.4815,-2.58,-3.84,39.0,,adl
11.67843,2.1582,-0.6738,0.4177,1.95,0.2924,0.4815,-4.2,-1.56,38.52,,adl
11.680113,2.1582,-0.6738,0.4177,0.8432,-0.1427,0.5497,-4.2,-1.56,38.52,,adl
11.694378,2.1582,-0.6738,0.4177,0.8432,-0.1427,0.5497,-4.2,-1.56,38.52,,adl
11.696084,-0.4156,-3.0863,-2.7901,0.8432,-0.1427,0.5497,-4.2,-1.56,38.52,,adl
11.697684,-0.4156,-3.0863,-2.7901,0.2136,-0.9001,0.5486,-4.2,-1.56,38.52,,adl
11.718271,-0.4156,-3.0863,-2.7901,0.6434,-1.1686,0.7446,-4.2,-1.56,38.52,,adl
11.739662,-0.4156,-3.0863,-2.7901,0.6434,-1.1686,0.7446,-5.4,2.34,37.8,,adl
11.7414,-0.4156,-3.0863,-2.7901,0.5912,-1.0216,0.8144,-5.4,2.34,37.8,,adl
11.755513,-0.4156,-3.0863,-2.7901,0.5912,-1.0216,0.8144,-5.4,2.34,37.8,,adl
11.757013,0.3193,0.4457,-1.7031,0.5912,-1.0216,0.8144,-5.4,2.34,37.8,,adl
11.758709,0.3193,0.4457,-1.7031,0.4783,-1.2602,0.7835,-5.4,2.34,37.8,,adl
11.780592,0.3193,0.4457,-1.7031,0.5076,-1.8978,0.62,-5.4,2.34,37.8,,adl
11.801215,0.3193,0.4457,-1.7031,0.5076,-1.8978,0.62,-5.28,6.66,36.66,,adl
11.802983,0.3193,0.4457,-1.7031,0.4394,-1.9356,0.3542,-5.28,6.66,36.66,,adl
11.818426,0.3193,0.4457,-1.7031,0.4394,-1.9356,0.3542,-5.28,6.66,36.66,,adl
11.819985,2.3948,-0.2851,-2.4211,0.4394,-1.9356,0.3542,-5.28,6.66,36.66,,adl
11.821713,2.3948,-0.2851,-2.4211,0.3446,-1.1995,0.0948,-5.28,6.66,36.66,,adl
11.84193,2.3948,-0.2851,-2.4211,0.3105,-0.4091,-0.0107,-5.28,6.66,36.66,,adl
11.863018,2.3948,-0.2851,-2.4211,0.3105,-0.4091,-0.0107,-3.42,11.1,36.12,,adl
11.864876,2.3948,-0.2851,-2.4211,0.3025,-0.0735,-0.0666,-3.42,11.1,36.12,,adl
11.878795,2.3948,-0.2851,-2.4211,0.3025,-0.0735,-0.0666,-3.42,11.1,36.12,,adl
11.879703,3.5103,0.1543,-1.4649,0.3025,-0.0735,-0.0666,-3.42,11.1,36.12,,adl
11.883558,3.5103,0.1543,-1.4649,0.2317,-0.074,-0.1369,-3.42,11.1,36.12,,adl
11.903691,3.5103,0.1543,-1.4649,0.163,0.0559,-0.2796,-3.42,11.1,36.12,,adl
11.924661,3.5103,0.1543,-1.4649,0.1081,0.4202,-0.5119,-3.42,11.1,36.12,,adl
11.92615,3.5103,0.1543,-1.4649,0.1081,0.4202,-0.5119,-0.72,13.68,34.98,,adl
11.939956,3.5103,0.1543,-1.4649,0.1081,0.4202,-0.5119,-0.72,13.68,34.98,,adl
11.941292,4.0502,1.1457,-1.7279,0.1081,0.4202,-0.5119,-0.72,13.68,34.98,,adl
11.943767,4.0502,1.1457,-1.7279,0.1007,0.9151,-0.6392,-0.72,13.68,34.98,,adl
11.96568,4.0502,1.1457,-1.7279,0.0703,1.5452,-0.5635,-0.72,13.68,34.98,,adl
11.985268,4.0502,1.1457,-1.7279,0.0703,1.5452,-0.5635,1.38,14.94,34.44,,adl
11.986777,4.0502,1.1457,-1.7279,0.0517,1.9926,-0.3009,1.38,14.94,34.44,,adl
12.001259,4.0502,1.1457,-1.7279,0.0517,1.9926,-0.3009,1.38,14.94,34.44,,adl
12.002801,-1.1436,0.0168,0.5353,0.0517,1.9926,-0.3009,1.38,14.94,34.44,,adl
12.006148,-1.1436,0.0168,0.5353,0.1214,2.1572,0.3542,1.38,14.94,34.44,,adl
12.027192,-1.1436,0.0168,0.5353,-0.0192,2.2275,1.2357,1.38,14.94,34.44,,adl
12.046416,-1.1436,0.0168,0.5353,-0.0192,2.2275,1.2357,2.28,15.96,34.2,,adl
12.047137,-1.1436,0.0168,0.5353,-0.3222,2.2536,1.844,2.28,15.96,34.2,,adl
12.062533,-1.1436,0.0168,0.5353,-0.3222,2.2536,1.844,2.28,15.96,34.2,,adl
12.062815,-4.852,0.6996,3.5472,-0.3222,2.2536,1.844,2.28,15.96,34.2,,adl
12.06645,-4.852,0.6996,3.5472,-0.2376,1.698,1.6847,2.28,15.96,34.2,,adl
12.087094,-4.852,0.6996,3.5472,0.1422,0.1294,1.0733,2.28,15.96,34.2,,adl
12.108123,-4.852,0.6996,3.5472,0.1422,0.1294,1.0733,0.18,16.08,34.2,,adl
12.10874,-4.852,0.6996,3.5472,0.5252,-1.3438,0.7281,0.18,16.08,34.2,,adl
12.124033,-4.852,0.6996,3.5472,0.5252,-1.3438,0.7281,0.18,16.08,34.2,,adl
12.125001,-0.7603,1.2614,2.5551,0.5252,-1.3438,0.7281,0.18,16.08,34.2,,adl
12.127986,-0.7603,1.2614,2.5551,0.155,-1.7641,0.2573,0.18,16.08,34.2,,adl
12.148768,-0.7603,1.2614,2.5551,-0.8602,-1.2613,-0.5156,0.18,16.08,34.2,,adl
12.169826,-0.7603,1.2614,2.5551,-0.8602,-1.2613,-0.5156,-1.56,15.96,34.68,,adl
12.171203,-0.7603,1.2614,2.5551,-1.6368,-1.3193,-1.453,-1.56,15.96,34.68,,adl
12.186127,-0.7603,1.2614,2.5551,-1.6368,-1.3193,-1.453,-1.56,15.96,34.68,,adl
12.187982,2.4346,-4.2749,0.4527,-1.6368,-1.3193,-1.453,-1.56,15.96,34.68,,adl
12.189255,2.4346,-4.2749,0.4527,-1.4109,-2.1124,-1.8557,-1.56,15.96,34.68,,adl
12.209971,2.4346,-4.2749,0.4527,-0.0714,-2.1859,-1.3918,-1.56,15.96,34.68,,adl
12.231146,2.4346,-4.2749,0.4527,-0.0714,-2.1859,-1.3918,-2.22,15.84,34.14,,adl
12.233172,2.4346,-4.2749,0.4527,0.7702,-1.1388,-0.7931,-2.22,15.84,34.14,,adl
12.247,2.4346,-4.2749,0.4527,0.7702,-1.1388,-0.7931,-2.22,15.84,34.14,,adl
12.247902,2.2184,0.6872,-3.4434,0.7702,-1.1388,-0.7931,-2.22,15.84,34.14,,adl
12.251047,2.2184,0.6872,-3.4434,0.4005,0.2961,-0.3233,-2.22,15.84,34.14,,adl
12.272297,2.2184,0.6872,-3.4434,-1.0157,1.6299,0.1321,-2.22,15.84,34.14,,adl
12.293418,2.2184,0.6872,-3.4434,-1.0157,1.6299,0.1321,-1.86,15.3,34.74,,adl
12.295546,2.2184,0.6872,-3.4434,-1.5835,2.0687,0.1097,-1.86,15.3,34.74,,adl
12.309082,2.2184,0.6872,-3.4434,-1.5835,2.0687,0.1097,-1.86,15.3,34.74,,adl
12.311317,1.9239,-0.968,2.7839,-1.5835,2.0687,0.1097,-1.86,15.3,34.74,,adl
12.313905,1.9239,-0.968,2.7839,-0.7601,1.9217,0.188,-1.86,15.3,34.74,,adl
12.333808,1.9239,-0.968,2.7839,-0.1433,0.5337,0.1923,-1.86,15.3,34.74,,adl
12.354403,1.9239,-0.968,2.7839,-0.1433,0.5337,0.1923,-0.78,14.76,34.2,,adl
12.356215,1.9239,-0.968,2.7839,-0.3654,-0.5934,-0.0964,-0.78,14.76,34.2,,adl
12.370386,1.9239,-0.968,2.7839,-0.3654,-0.5934,-0.0964,-0.78,14.76,34.2,,adl
12.371929,0.9009,-1.2034,-1.931,-0.3654,-0.5934,-0.0964,-0.78,14.76,34.2,,adl
12.375474,0.9009,-1.2034,-1.931,-0.2812,-0.3617,-0.179,-0.78,14.76,34.2,,adl
12.396202,0.9009,-1.2034,-1.931,-0.1395,0.5747,0.0218,-0.78,14.76,34.2,,adl
12.417846,0.9009,-1.2034,-1.931,-0.1395,0.5747,0.0218,-0.72,13.8,35.16,,adl
12.419688,0.9009,-1.2034,-1.931,0.0373,1.3678,0.2344,-0.72,13.8,35.16,,adl
12.434835,0.9009,-1.2034,-1.931,0.0373,1.3678,0.2344,-0.72,13.8,35.16,,adl
12.436216,1.0152,-0.7801,-0.717,0.0373,1.3678,0.2344,-0.72,13.8,35.16,,adl
12.437287,1.0152,-0.7801,-0.717,0.2349,1.5952,0.1933,-0.72,13.8,35.16,,adl
12.457153,1.0152,-0.7801,-0.717,0.3025,1.9106,0.0607,-0.72,13.8,35.16,,adl
12.478835,1.0152,-0.7801,-0.717,0.3025,1.9106,0.0607,-1.74,13.14,36.06,,adl
12.480524,1.0152,-0.7801,-0.717,0.0996,2.2797,-0.0224,-1.74,13.14,36.06,,adl
12.493807,1.0152,-0.7801,-0.717,0.0996,2.2797,-0.0224,-1.74,13.14,36.06,,adl
12.495262,1.2993,-0.2769,-0.7568,0.0996,2.2797,-0.0224,-1.74,13.14,36.06,,adl
12.497637,1.2993,-0.2769,-0.7568,-0.0362,2.2738,-0.0847,-1.74,13.14,36.06,,adl
12.519313,1.2993,-0.2769,-0.7568,0.025,2.0554,-0.1241,-1.74,13.14,36.06,,adl
12.539912,1.2993,-0.2769,-0.7568,0.025,2.0554,-0.1241,-4.2,12.24,35.64,,adl
12.5416,1.2993,-0.2769,-0.7568,0.1395,1.9223,-0.1225,-4.2,12.24,35.64,,adl
12.55561,1.2993,-0.2769,-0.7568,0.1395,1.9223,-0.1225,-4.2,12.24,35.64,,adl
12.557004,-0.1862,-0.2451,-1.1032,0.1395,1.9223,-0.1225,-4.2,12.24,35.64,,adl
12.560011,-0.1862,-0.2451,-1.1032,0.1715,1.8109,-0.0495,-4.2,12.24,35.64,,adl
12.581016,-0.1862,-0.2451,-1.1032,0.1944,1.559,0.0224,-4.2,12.24,35.64,,adl
12.602206,-0.1862,-0.2451,-1.1032,0.1944,1.559,0.0224,-7.02,11.46,36.42,,adl
12.603927,-0.1862,-0.2451,-1.1032,0.3057,1.3247,0.0437,-7.02,11.46,36.42,,adl
12.617807,-0.1862,-0.2451,-1.1032,0.3057,1.3247,0.0437,-7.02,11.46,36.42,,adl
12.619254,-0.9335,0.4485,-0.6785,0.3057,1.3247,0.0437,-7.02,11.46,36.42,,adl
12.621014,-0.9335,0.4485,-0.6785,0.3776,1.3571,0.0224,-7.02,11.46,36.42,,adl
12.641357,-0.9335,0.4485,-0.6785,0.3766,1.5169,-0.0298,-7.02,11.46,36.42,,adl
12.66339,-0.9335,0.4485,-0.6785,0.3766,1.5169,-0.0298,-10.68,11.22,35.04,,adl
12.665214,-0.9335,0.4485,-0.6785,0.351,1.4477,-0.1166,-10.68,11.22,35.04,,adl
12.679481,-0.9335,0.4485,-0.6785,0.351,1.4477,-0.1166,-10.68,11.22,35.04,,adl
12.680361,0.0673,-0.3515,0.3524,0.351,1.4477,-0.1166,-10.68,11.22,35.04,,adl
12.683442,0.0673,-0.3515,0.3524,0.2147,1.1425,-0.1992,-10.68,11.22,35.04,,adl
12.704214,0.0673,-0.3515,0.3524,0.0229,1.0056,-0.2541,-10.68,11.22,35.04,,adl
12.724209,0.0673,-0.3515,0.3524,0.0229,1.0056,-0.2541,-14.34,10.62,33.78,,adl
12.72588,0.0673,-0.3515,0.3524,-0.0533,0.9875,-0.2642,-14.34,10.62,33.78,,adl
12.741102,0.0673,-0.3515,0.3524,-0.0533,0.9875,-0.2642,-14.34,10.62,33.78,,adl
12.742569,0.1085,-0.1005,-0.1492,-0.0533,0.9875,-0.2642,-14.34,10.62,33.78,,adl
12.743671,0.1085,-0.1005,-0.1492,0.0085,0.9694,-0.2418,-14.34,10.62,33.78,,adl
12.765723,0.1085,-0.1005,-0.1492,0.1449,1.0269,-0.237,-14.34,10.62,33.78,,adl
12.787088,0.1085,-0.1005,-0.1492,0.1449,1.0269,-0.237,-17.76,10.62,32.58,,adl
12.788596,0.1085,-0.1005,-0.1492,0.2716,1.1979,-0.2253,-17.76,10.62,32.58,,adl
12.802587,0.1085,-0.1005,-0.1492,0.2716,1.1979,-0.2253,-17.76,10.62,32.58,,adl
12.803949,-1.4651,0.5792,-0.8089,0.2716,1.1979,-0.2253,-17.76,10.62,32.58,,adl
12.806952,-1.4651,0.5792,-0.8089,0.4085,1.404,-0.1598,-17.76,10.62,32.58,,adl
12.827063,-1.4651,0.5792,-0.8089,0.4996,1.4312,-0.0629,-17.76,10.62,32.58,,adl
12.848609,-1.4651,0.5792,-0.8089,0.4996,1.4312,-0.0629,-20.58,10.68,30.42,,adl
12.850281,-1.4651,0.5792,-0.8089,0.5689,1.3161,-0.0213,-20.58,10.68,30.42,,adl
12.864077,-1.4651,0.5792,-0.8089,0.5689,1.3161,-0.0213,-20.58,10.68,30.42,,adl
12.864988,-0.0879,0.6535,0.4863,0.5689,1.3161,-0.0213,-20.58,10.68,30.42,,adl
12.86891,-0.0879,0.6535,0.4863,0.6615,1.2932,-0.1198,-20.58,10.68,30.42,,adl
12.888966,-0.0879,0.6535,0.4863,0.6631,1.4046,-0.2679,-20.58,10.68,30.42,,adl
12.909715,-0.0879,0.6535,0.4863,0.6631,1.4046,-0.2679,-22.74,10.74,28.68,,adl
12.911464,-0.0879,0.6535,0.4863,0.7132,1.5686,-0.3851,-22.74,10.74,28.68,,adl
12.925317,-0.0879,0.6535,0.4863,0.7132,1.5686,-0.3851,-22.74,10.74,28.68,,adl
12.926859,-0.6149,-1.6105,-0.9464,0.7132,1.5686,-0.3851,-22.74,10.74,28.68,,adl
12.928486,-0.6149,-1.6105,-0.9464,0.8064,1.6746,-0.2855,-22.74,10.74,28.68,,adl
12.949044,-0.6149,-1.6105,-0.9464,0.8426,1.4291,-0.0346,-22.74,10.74,28.68,,adl
12.971476,-0.6149,-1.6105,-0.9464,0.8426,1.4291,-0.0346,-24.96,10.68,27.54,,adl
12.973063,-0.6149,-1.6105,-0.9464,1.0962,1.2858,-0.0469,-24.96,10.68,27.54,,adl
12.987184,-0.6149,-1.6105,-0.9464,1.0962,1.2858,-0.0469,-24.96,10.68,27.54,,adl
12.988591,1.7868,-1.1995,-0.1643,1.0962,1.2858,-0.0469,-24.96,10.68,27.54,,adl
12.991298,1.7868,-1.1995,-0.1643,1.4163,1.5579,-0.1758,-24.96,10.68,27.54,,adl
13.012151,1.7868,-1.1995,-0.1643,1.6016,2.0474,-0.2487,-24.96,10.68,27.54,,adl
13.033748,1.7868,-1.1995,-0.1643,1.6837,2.3191,-0.2738,-24.96,10.68,27.54,,adl
13.035852,1.7868,-1.1995,-0.1643,1.6837,2.3191,-0.2738,-27.24,10.74,25.14,,adl
13.04862,1.7868,-1.1995,-0.1643,1.6837,2.3191,-0.2738,-27.24,10.74,25.14,,adl
13.049462,2.0776,-1.4373,-0.996,1.6837,2.3191,-0.2738,-27.24,10.74,25.14,,adl
13.053534,2.0776,-1.4373,-0.996,1.7508,2.2525,-0.3095,-27.24,10.74,25.14,,adl
13.073677,2.0776,-1.4373,-0.996,1.8546,2.0464,-0.3483,-27.24,10.74,25.14,,adl
13.094908,2.0776,-1.4373,-0.996,1.8546,2.0464,-0.3483,-29.7,11.1,21.72,,adl
13.09644,2.0776,-1.4373,-0.996,1.9627,1.7039,-0.4463,-29.7,11.1,21.72,,adl
13.109721,2.0776,-1.4373,-0.996,1.9627,1.7039,-0.4463,-29.7,11.1,21.72,,adl
13.111141,2.5767,-1.6301,-0.1066,1.9627,1.7039,-0.4463,-29.7,11.1,21.72,,adl
13.114617,2.5767,-1.6301,-0.1066,2.1231,1.4408,-0.5795,-29.7,11.1,21.72,,adl
13.135076,2.5767,-1.6301,-0.1066,2.2578,1.4876,-0.6722,-29.7,11.1,21.72,,adl
13.15591,2.5767,-1.6301,-0.1066,2.2578,1.4876,-0.6722,-31.8,11.64,17.28,,adl
13.157527,2.5767,-1.6301,-0.1066,2.1311,1.8914,-0.6679,-31.8,11.64,17.28,,adl
13.17175,2.5767,-1.6301,-0.1066,2.1311,1.8914,-0.6679,-31.8,11.64,17.28,,adl
13.173177,1.8492,-0.3294,-2.1009,2.1311,1.8914,-0.6679,-31.8,11.64,17.28,,adl
13.175679,1.8492,-0.3294,-2.1009,1.7353,2.4389,-0.6839,-31.8,11.64,17.28,,adl
13.196569,1.8492,-0.3294,-2.1009,1.3396,2.7233,-0.7755,-31.8,11.64,17.28,,adl
13.218104,1.8492,-0.3294,-2.1009,1.3396,2.7233,-0.7755,-33.6,12.24,11.1,,adl
13.21963,1.8492,-0.3294,-2.1009,1.0104,2.6024,-0.8229,-33.6,12.24,11.1,,adl
13.234875,1.8492,-0.3294,-2.1009,1.0104,2.6024,-0.8229,-33.6,12.24,11.1,,adl
13.236384,0.8251,0.6953,-2.0152,1.0104,2.6024,-0.8229,-33.6,12.24,11.1,,adl
13.237607,0.8251,0.6953,-2.0152,0.8277,2.2408,-0.759,-33.6,12.24,11.1,,adl
13.257129,0.8251,0.6953,-2.0152,0.7404,2.0309,-0.6663,-33.6,12.24,11.1,,adl
13.279831,0.8251,0.6953,-2.0152,0.7404,2.0309,-0.6663,-35.22,12.42,4.8,,adl
13.281698,0.8251,0.6953,-2.0152,0.693,2.1422,-0.6125,-35.22,12.42,4.8,,adl
13.295495,0.8251,0.6953,-2.0152,0.693,2.1422,-0.6125,-35.22,12.42,4.8,,adl
13.29648,-0.372,0.3355,-2.186,0.693,2.1422,-0.6125,-35.22,12.42,4.8,,adl
13.300827,-0.372,0.3355,-2.186,0.6461,2.2967,-0.5502,-35.22,12.42,4.8,,adl
13.320233,-0.372,0.3355,-2.186,0.5571,2.0133,-0.375,-35.22,12.42,4.8,,adl
13.341118,-0.372,0.3355,-2.186,0.5571,2.0133,-0.375,-36.12,11.52,-1.5,,adl
13.343155,-0.372,0.3355,-2.186,0.5428,1.4626,-0.0826,-36.12,11.52,-1.5,,adl
13.356987,-0.372,0.3355,-2.186,0.5428,1.4626,-0.0826,-36.12,11.52,-1.5,,adl
13.358684,-3.1034,0.0731,-0.3144,0.5428,1.4626,-0.0826,-36.12,11.52,-1.5,,adl
13.360172,-3.1034,0.0731,-0.3144,0.5891,1.2528,0.0863,-36.12,11.52,-1.5,,adl
13.381517,-3.1034,0.0731,-0.3144,0.4783,1.7385,-0.0788,-36.12,11.52,-1.5,,adl
13.401285,-3.1034,0.0731,-0.3144,0.4783,1.7385,-0.0788,-36.06,10.2,-7.68,,adl
13.402894,-3.1034,0.0731,-0.3144,0.3483,2.196,-0.1768,-36.06,10.2,-7.68,,adl
13.417792,-3.1034,0.0731,-0.3144,0.3483,2.196,-0.1768,-36.06,10.2,-7.68,,adl
13.419483,-1.0348,1.1731,2.192,0.3483,2.196,-0.1768,-36.06,10.2,-7.68,,adl
13.421314,-1.0348,1.1731,2.192,0.3004,2.0943,-0.1214,-36.06,10.2,-7.68,,adl
13.442711,-1.0348,1.1731,2.192,0.3835,1.7524,-0.0969,-36.06,10.2,-7.68,,adl
13.464082,-1.0348,1.1731,2.192,0.3835,1.7524,-0.0969,-35.64,8.94,-13.02,,adl
13.465669,-1.0348,1.1731,2.192,0.4975,1.747,-0.179,-35.64,8.94,-13.02,,adl
13.47899,-1.0348,1.1731,2.192,0.4975,1.747,-0.179,-35.64,8.94,-13.02,,adl
13.479965,1.0684,-0.1433,1.7421,0.4975,1.747,-0.179,-35.64,8.94,-13.02,,adl
13.48391,1.0684,-0.1433,1.7421,0.5811,1.869,-0.3174,-35.64,8.94,-13.02,,adl
13.504312,1.0684,-0.1433,1.7421,0.6242,1.7572,-0.4218,-35.64,8.94,-13.02,,adl
13.525878,1.0684,-0.1433,1.7421,0.6242,1.7572,-0.4218,-33.24,8.34,-17.76,,adl
13.527826,1.0684,-0.1433,1.7421,0.6716,1.6187,-0.4394,-33.24,8.34,-17.76,,adl
13.541418,1.0684,-0.1433,1.7421,0.6716,1.6187,-0.4394,-33.24,8.34,-17.76,,adl
13.543212,0.2152,0.1235,0.1921,0.6716,1.6187,-0.4394,-33.24,8.34,-17.76,,adl
13.544631,0.2152,0.1235,0.1921,0.7563,1.6043,-0.4053,-33.24,8.34,-17.76,,adl
13.565622,0.2152,0.1235,0.1921,0.8405,1.6826,-0.3643,-33.24,8.34,-17.76,,adl
13.587792,0.2152,0.1235,0.1921,0.8405,1.6826,-0.3643,-31.14,8.16,-22.32,,adl
13.589268,0.2152,0.1235,0.1921,0.9124,1.8376,-0.2653,-31.14,8.16,-22.32,,adl
13.603846,0.2152,0.1235,0.1921,0.9124,1.8376,-0.2653,-31.14,8.16,-22.32,,adl
13.605292,-0.7178,0.105,-0.1703,0.9124,1.8376,-0.2653,-31.14,8.16,-22.32,,adl
13.606718,-0.7178,0.105,-0.1703,0.9108,1.8637,-0.1928,-31.14,8.16,-22.32,,adl
13.629008,-0.7178,0.105,-0.1703,0.8341,1.6474,-0.1838,-31.14,8.16,-22.32,,adl
13.649098,-0.7178,0.105,-0.1703,0.8341,1.6474,-0.1838,-28.62,7.32,-26.34,,adl
13.650792,-0.7178,0.105,-0.1703,0.4272,1.1255,-0.22,-28.62,7.32,-26.34,,adl
13.664951,-0.7178,0.105,-0.1703,0.4272,1.1255,-0.22,-28.62,7.32,-26.34,,adl
13.666077,-0.2133,0.7455,-0.7006,0.4272,1.1255,-0.22,-28.62,7.32,-26.34,,adl
13.667615,-0.2133,0.7455,-0.7006,-0.2258,0.5784,-0.2525,-28.62,7.32,-26.34,,adl
13.689175,-0.2133,0.7455,-0.7006,-0.7558,0.1736,-0.1742,-28.62,7.32,-26.34,,adl
13.710607,-0.2133,0.7455,-0.7006,-0.7558,0.1736,-0.1742,-25.62,6.6,-30.18,,adl
13.712127,-0.2133,0.7455,-0.7006,-1.077,0.0447,0.0043,-25.62,6.6,-30.18,,adl
13.725969,-0.2133,0.7455,-0.7006,-1.077,0.0447,0.0043,-25.62,6.6,-30.18,,adl
13.727699,-0.9291,0.5116,-0.8049,-1.077,0.0447,0.0043,-25.62,6.6,-30.18,,adl
13.729368,-0.9291,0.5116,-0.8049,-1.2325,0.123,0.1933,-25.62,6.6,-30.18,,adl
13.750288,-0.9291,0.5116,-0.8049,-1.2554,0.3185,0.2621,-25.62,6.6,-30.18,,adl
13.771655,-0.9291,0.5116,-0.8049,-1.2554,0.3185,0.2621,-23.82,5.52,-33.0,,adl
13.773396,-0.9291,0.5116,-0.8049,-1.1574,0.6077,0.2045,-23.82,5.52,-33.0,,adl
13.787075,-0.9291,0.5116,-0.8049,-1.1574,0.6077,0.2045,-23.82,5.52,-33.0,,adl
13.788472,0.4401,-4.2213,8.4079,-1.1574,0.6077,0.2045,-23.82,5.52,-33.0,,adl
13.791506,0.4401,-4.2213,8.4079,-0.0213,-0.3649,0.0735,-23.82,5.52,-33.0,,adl
13.812522,0.4401,-4.2213,8.4079,0.2178,-0.7292,0.1587,-23.82,5.52,-33.0,,adl
13.833698,0.4401,-4.2213,8.4079,0.2178,-0.7292,0.1587,-21.84,5.76,-34.44,,adl
13.835864,0.4401,-4.2213,8.4079,-0.5918,0.0453,0.2967,-21.84,5.76,-34.44,,adl
13.848742,0.4401,-4.2213,8.4079,-0.5918,0.0453,0.2967,-21.84,5.76,-34.44,,adl
13.849717,2.6327,0.2283,-1.1753,-0.5918,0.0453,0.2967,-21.84,5.76,-34.44,,adl
13.854441,2.6327,0.2283,-1.1753,-0.9401,0.0826,0.1161,-21.84,5.76,-34.44,,adl
13.874117,2.6327,0.2283,-1.1753,-0.7824,-0.1092,-0.0666,-21.84,5.76,-34.44,,adl
13.894843,2.6327,0.2283,-1.1753,-0.7824,-0.1092,-0.0666,-21.18,6.72,-34.86,,adl
13.89636,2.6327,0.2283,-1.1753,-0.5097,-0.2125,-0.0527,-21.18,6.72,-34.86,,adl
13.910345,2.6327,0.2283,-1.1753,-0.5097,-0.2125,-0.0527,-21.18,6.72,-34.86,,adl
13.911672,0.8923,-0.5669,-0.8223,-0.5097,-0.2125,-0.0527,-21.18,6.72,-34.86,,adl
13.914392,0.8923,-0.5669,-0.8223,-0.2732,-0.131,0.1848,-21.18,6.72,-34.86,,adl
13.935489,0.8923,-0.5669,-0.8223,-0.1214,0.1358,0.441,-21.18,6.72,-34.86,,adl
13.956589,0.8923,-0.5669,-0.8223,-0.1214,0.1358,0.441,-21.3,8.34,-34.56,,adl
13.958042,0.8923,-0.5669,-0.8223,-0.0117,0.4437,0.3574,-21.3,8.34,-34.56,,adl
13.972266,0.8923,-0.5669,-0.8223,-0.0117,0.4437,0.3574,-21.3,8.34,-34.56,,adl
13.973499,0.4982,0.0668,1.3264,-0.0117,0.4437,0.3574,-21.3,8.34,-34.56,,adl
13.976048,0.4982,0.0668,1.3264,0.187,0.7233,0.1923,-21.3,8.34,-34.56,,adl
13.995576,0.4982,0.0668,1.3264,0.2993,1.0738,0.1044,-21.3,8.34,-34.56,,adl
14.017824,0.4982,0.0668,1.3264,0.2993,1.0738,0.1044,-21.6,10.2,-33.6,,adl
14.019666,0.4982,0.0668,1.3264,0.1838,0.9241,0.1145,-21.6,10.2,-33.6,,adl
14.033406,0.4982,0.0668,1.3264,0.1838,0.9241,0.1145,-21.6,10.2,-33.6,,adl
14.034814,0.2658,-1.0302,-0.7955,0.1838,0.9241,0.1145,-21.6,10.2,-33.6,,adl
14.03764,0.2658,-1.0302,-0.7955,0.0538,0.4421,0.1923,-21.6,10.2,-33.6,,adl
14.058313,0.2658,-1.0302,-0.7955,-0.0762,0.1923,0.2972,-21.6,10.2,-33.6,,adl
14.07967,0.2658,-1.0302,-0.7955,-0.0762,0.1923,0.2972,-20.7,11.16,-33.9,,adl
14.081261,0.2658,-1.0302,-0.7955,-0.1688,0.3079,0.3462,-20.7,11.16,-33.9,,adl
14.095034,0.2658,-1.0302,-0.7955,-0.1688,0.3079,0.3462,-20.7,11.16,-33.9,,adl
14.096039,0.6752,0.1967,-0.4496,-0.1688,0.3079,0.3462,-20.7,11.16,-33.9,,adl
14.09963,0.6752,0.1967,-0.4496,-0.0298,0.5534,0.3425,-20.7,11.16,-33.9,,adl
14.120324,0.6752,0.1967,-0.4496,0.3297,0.8282,0.245,-20.7,11.16,-33.9,,adl
14.140468,0.6752,0.1967,-0.4496,0.3297,0.8282,0.245,-19.32,12.42,-34.2,,adl
14.142063,0.6752,0.1967,-0.4496,0.5257,1.3524,0.172,-19.32,12.42,-34.2,,adl
14.156506,0.6752,0.1967,-0.4496,0.5257,1.3524,0.172,-19.32,12.42,-34.2,,adl
14.158056,1.7044,-0.7401,-0.0021,0.5257,1.3524,0.172,-19.32,12.42,-34.2,,adl
14.161764,1.7044,-0.7401,-0.0021,0.4474,1.7151,0.2285,-19.32,12.42,-34.2,,adl
14.181793,1.7044,-0.7401,-0.0021,0.3483,1.6709,0.1944,-19.32,12.42,-34.2,,adl
14.202742,1.7044,-0.7401,-0.0021,0.3483,1.6709,0.1944,-17.22,13.08,-34.8,,adl
14.204329,1.7044,-0.7401,-0.0021,0.2924,1.4642,0.114,-17.22,13.08,-34.8,,adl
14.217762,1.7044,-0.7401,-0.0021,0.2924,1.4642,0.114,-17.22,13.08,-34.8,,adl
14.219428,0.8573,-0.5342,-0.5472,0.2924,1.4642,0.114,-17.22,13.08,-34.8,,adl
14.222744,0.8573,-0.5342,-0.5472,0.2312,1.3763,0.0671,-17.22,13.08,-34.8,,adl
14.242608,0.8573,-0.5342,-0.5472,0.2306,1.4227,0.0107,-17.22,13.08,-34.8,,adl
14.264833,0.8573,-0.5342,-0.5472,0.2306,1.4227,0.0107,-14.22,13.32,-36.24,,adl
14.266798,0.8573,-0.5342,-0.5472,0.2658,1.4972,-0.0085,-14.22,13.32,-36.24,,adl
14.280494,0.8573,-0.5342,-0.5472,0.2658,1.4972,-0.0085,-14.22,13.32,-36.24,,adl
14.281557,-0.4151,0.5706,0.127,0.2658,1.4972,-0.0085,-14.22,13.32,-36.24,,adl
14.28543,-0.4151,0.5706,0.127,0.2775,1.6229,-0.0399,-14.22,13.32,-36.24,,adl
14.305196,-0.4151,0.5706,0.127,0.2482,1.7097,-0.0762,-14.22,13.32,-36.24,,adl
14.326712,-0.4151,0.5706,0.127,0.2482,1.7097,-0.0762,-12.18,13.5,-37.2,,adl
14.328726,-0.4151,0.5706,0.127,0.1997,1.632,-0.0874,-12.18,13.5,-37.2,,adl
14.342107,-0.4151,0.5706,0.127,0.1997,1.632,-0.0874,-12.18,13.5,-37.2,,adl
14.343845,-0.6264,0.1514,0.0318,0.1997,1.632,-0.0874,-12.18,13.5,-37.2,,adl
14.345125,-0.6264,0.1514,0.0318,0.2029,1.4248,-0.0746,-12.18,13.5,-37.2,,adl
14.366774,-0.6264,0.1514,0.0318,0.2328,1.2762,-0.0442,-12.18,13.5,-37.2,,adl
14.38799,-0.6264,0.1514,0.0318,0.2328,1.2762,-0.0442,-9.24,13.44,-38.58,,adl
14.389619,-0.6264,0.1514,0.0318,0.1971,1.0988,-0.0037,-9.24,13.44,-38.58,,adl
14.403443,-0.6264,0.1514,0.0318,0.1971,1.0988,-0.0037,-9.24,13.44,-38.58,,adl
14.405066,-0.3992,0.1722,0.4667,0.1971,1.0988,-0.0037,-9.24,13.44,-38.58,,adl
14.406239,-0.3992,0.1722,0.4667,0.1039,0.8714,0.0463,-9.24,13.44,-38.58,,adl
14.427606,-0.3992,0.1722,0.4667,0.0277,0.6882,0.0325,-9.24,13.44,-38.58,,adl
14.448664,-0.3992,0.1722,0.4667,0.0277,0.6882,0.0325,-6.3,13.44,-39.84,,adl
14.449455,-0.3992,0.1722,0.4667,-0.0101,0.5939,0.0032,-6.3,13.44,-39.84,,adl
14.464847,-0.3992,0.1722,0.4667,-0.0101,0.5939,0.0032,-6.3,13.44,-39.84,,adl
14.465812,0.3829,-0.1106,0.4702,-0.0101,0.5939,0.0032,-6.3,13.44,-39.84,,adl
14.470395,0.3829,-0.1106,0.4702,-0.0128,0.5864,-0.0373,-6.3,13.44,-39.84,,adl
14.489346,0.3829,-0.1106,0.4702,0.0112,0.5396,-0.0522,-6.3,13.44,-39.84,,adl
14.510932,0.3829,-0.1106,0.4702,0.0112,0.5396,-0.0522,-3.36,13.5,-40.68,,adl
14.512746,0.3829,-0.1106,0.4702,0.0453,0.5167,-0.0527,-3.36,13.5,-40.68,,adl
14.526941,0.3829,-0.1106,0.4702,0.0453,0.5167,-0.0527,-3.36,13.5,-40.68,,adl
14.528538,-0.097,0.0633,-0.2482,0.0453,0.5167,-0.0527,-3.36,13.5,-40.68,,adl
14.529721,-0.097,0.0633,-0.2482,0.1156,0.6365,-0.025,-3.36,13.5,-40.68,,adl
14.550752,-0.097,0.0633,-0.2482,0.2349,0.8714,0.0181,-3.36,13.5,-40.68,,adl
14.572526,-0.097,0.0633,-0.2482,0.2349,0.8714,0.0181,-0.42,13.86,-41.22,,adl
14.574196,-0.097,0.0633,-0.2482,0.3467,1.0152,0.0362,-0.42,13.86,-41.22,,adl
14.588643,-0.097,0.0633,-0.2482,0.3467,1.0152,0.0362,-0.42,13.86,-41.22,,adl
14.590112,-0.4282,-1.3809,0.606,0.3467,1.0152,0.0362,-0.42,13.86,-41.22,,adl
14.591477,-0.4282,-1.3809,0.606,0.4543,1.02,0.0554,-0.42,13.86,-41.22,,adl
14.612306,-0.4282,-1.3809,0.606,0.5204,0.8165,0.122,-0.42,13.86,-41.22,,adl
14.633758,-0.4282,-1.3809,0.606,0.5204,0.8165,0.122,1.5,13.86,-41.76,,adl
14.635599,-0.4282,-1.3809,0.606,0.6205,0.4346,0.1875,1.5,13.86,-41.76,,adl
14.651289,-0.4282,-1.3809,0.606,0.6205,0.4346,0.1875,1.5,13.86,-41.76,,adl
14.65271,-1.3574,-2.1847,0.1969,0.6205,0.4346,0.1875,1.5,13.86,-41.76,,adl
14.653933,-1.3574,-2.1847,0.1969,0.7947,0.1971,0.2056,1.5,13.86,-41.76,,adl
14.674766,-1.3574,-2.1847,0.1969,0.9886,0.3883,0.3292,1.5,13.86,-41.76,,adl
14.694792,-1.3574,-2.1847,0.1969,0.9886,0.3883,0.3292,3.48,13.38,-42.36,,adl
14.696462,-1.3574,-2.1847,0.1969,1.4173,0.8011,0.3691,3.48,13.38,-42.36,,adl
14.710911,-1.3574,-2.1847,0.1969,1.4173,0.8011,0.3691,3.48,13.38,-42.36,,adl
14.712291,2.3012,-1.145,3.6154,1.4173,0.8011,0.3691,3.48,13.38,-42.36,,adl
14.716947,2.3012,-1.145,3.6154,2.0911,0.7835,0.2956,3.48,13.38,-42.36,,adl
14.735362,2.3012,-1.145,3.6154,2.6509,0.4788,0.1864,3.48,13.38,-42.36,,adl
14.755517,2.3012,-1.145,3.6154,2.6509,0.4788,0.1864,4.86,12.3,-42.6,,adl
14.756752,2.3012,-1.145,3.6154,2.6988,0.3835,0.0751,4.86,12.3,-42.6,,adl
14.771456,2.3012,-1.145,3.6154,2.6988,0.3835,0.0751,4.86,12.3,-42.6,,adl
14.773063,2.9006,-0.3229,-1.24,2.6988,0.3835,0.0751,4.86,12.3,-42.6,,adl
14.775446,2.9006,-0.3229,-1.24,2.3271,0.3915,0.0346,4.86,12.3,-42.6,,adl
14.796262,2.9006,-0.3229,-1.24,1.7859,0.2301,0.081,4.86,12.3,-42.6,,adl
14.818322,2.9006,-0.3229,-1.24,1.7859,0.2301,0.081,6.12,9.72,-43.02,,adl
14.820117,2.9006,-0.3229,-1.24,1.2613,-0.1449,0.1955,6.12,9.72,-43.02,,adl
14.833416,2.9006,-0.3229,-1.24,1.2613,-0.1449,0.1955,6.12,9.72,-43.02,,adl
14.834963,-0.6589,-3.0585,-2.3768,1.2613,-0.1449,0.1955,6.12,9.72,-43.02,,adl
14.837803,-0.6589,-3.0585,-2.3768,0.8725,-0.6956,0.3941,6.12,9.72,-43.02,,adl
14.858122,-0.6589,-3.0585,-2.3768,0.5848,-0.947,0.5305,6.12,9.72,-43.02,,adl
14.880147,-0.6589,-3.0585,-2.3768,0.5848,-0.947,0.5305,7.62,5.58,-43.2,,adl
14.881933,-0.6589,-3.0585,-2.3768,0.2013,-0.9854,0.6525,7.62,5.58,-43.2,,adl
14.896269,-0.6589,-3.0585,-2.3768,0.2013,-0.9854,0.6525,7.62,5.58,-43.2,,adl
14.897403,-0.3346,0.2561,-2.0785,0.2013,-0.9854,0.6525,7.62,5.58,-43.2,,adl
14.899437,-0.3346,0.2561,-2.0785,-0.0778,-1.1846,0.7452,7.62,5.58,-43.2,,adl
14.920483,-0.3346,0.2561,-2.0785,-0.0527,-1.4392,0.6301,7.62,5.58,-43.2,,adl
14.942362,-0.3346,0.2561,-2.0785,-0.0527,-1.4392,0.6301,7.98,1.2,-43.08,,adl
14.944249,-0.3346,0.2561,-2.0785,0.0107,-1.2096,0.441,7.98,1.2,-43.08,,adl
14.957453,-0.3346,0.2561,-2.0785,0.0107,-1.2096,0.441,7.98,1.2,-43.08,,adl
14.959203,1.7412,-0.584,-1.463,0.0107,-1.2096,0.441,7.98,1.2,-43.08,,adl
14.96184,1.7412,-0.584,-1.463,0.0506,-0.6131,0.3159,7.98,1.2,-43.08,,adl
14.982623,1.7412,-0.584,-1.463,0.033,-0.4874,0.2381,7.98,1.2,-43.08,,adl
15.003278,1.7412,-0.584,-1.463,0.033,-0.4874,0.2381,6.9,-2.28,-43.26,,adl
15.005197,1.7412,-0.584,-1.463,-0.0357,-0.71,0.1758,6.9,-2.28,-43.26,,adl
15.017895,1.7412,-0.584,-1.463,-0.0357,-0.71,0.1758,6.9,-2.28,-43.26,,adl
15.019359,3.495,-0.0322,-1.0814,-0.0357,-0.71,0.1758,6.9,-2.28,-43.26,,adl
15.022466,3.495,-0.0322,-1.0814,-0.122,-0.7617,0.0272,6.9,-2.28,-43.26,,adl
15.043018,3.495,-0.0322,-1.0814,-0.163,-0.4922,-0.2392,6.9,-2.28,-43.26,,adl
15.064244,3.495,-0.0322,-1.0814,-0.163,-0.4922,-0.2392,5.34,-4.92,-43.2,,adl
15.065913,3.495,-0.0322,-1.0814,-0.1166,-0.1417,-0.4213,5.34,-4.92,-43.2,,adl
15.080702,3.495,-0.0322,-1.0814,-0.1166,-0.1417,-0.4213,5.34,-4.92,-43.2,,adl
15.081644,3.1897,0.0607,-0.8023,-0.1166,-0.1417,-0.4213,5.34,-4.92,-43.2,,adl
15.085927,3.1897,0.0607,-0.8023,0.017,0.1763,-0.4495,5.34,-4.92,-43.2,,adl
15.105597,3.1897,0.0607,-0.8023,0.1555,0.4778,-0.3164,5.34,-4.92,-43.2,,adl
15.125668,3.1897,0.0607,-0.8023,0.1555,0.4778,-0.3164,3.18,-5.94,-43.8,,adl
15.127466,3.1897,0.0607,-0.8023,0.2695,0.6802,-0.0836,3.18,-5.94,-43.8,,adl
15.142375,3.1897,0.0607,-0.8023,0.2695,0.6802,-0.0836,3.18,-5.94,-43.8,,adl
15.144083,-1.3046,-0.3825,1.4124,0.2695,0.6802,-0.0836,3.18,-5.94,-43.8,,adl
15.14538,-1.3046,-0.3825,1.4124,0.3276,0.6024,0.3318,3.18,-5.94,-43.8,,adl
15.166999,-1.3046,-0.3825,1.4124,0.1273,0.816,0.6972,3.18,-5.94,-43.8,,adl
15.188318,-1.3046,-0.3825,1.4124,0.1273,0.816,0.6972,1.44,-6.36,-43.8,,adl
15.189784,-1.3046,-0.3825,1.4124,-0.3105,1.4264,0.6312,1.44,-6.36,-43.8,,adl
15.203647,-1.3046,-0.3825,1.4124,-0.3105,1.4264,0.6312,1.44,-6.36,-43.8,,adl
15.205063,-1.8967,1.6746,-0.0292,-0.3105,1.4264,0.6312,1.44,-6.36,-43.8,,adl
15.207603,-1.8967,1.6746,-0.0292,-0.6024,1.5787,0.4421,1.44,-6.36,-43.8,,adl
15.227768,-1.8967,1.6746,-0.0292,-0.5838,1.0072,0.2716,1.44,-6.36,-43.8,,adl
15.249333,-1.8967,1.6746,-0.0292,-0.5838,1.0072,0.2716,1.5,-7.02,-44.1,,adl
15.251114,-1.8967,1.6746,-0.0292,-0.1108,-0.2892,0.22,1.5,-7.02,-44.1,,adl
15.265094,-1.8967,1.6746,-0.0292,-0.1108,-0.2892,0.22,1.5,-7.02,-44.1,,adl
15.26609,0.199,-0.5864,2.5789,-0.1108,-0.2892,0.22,1.5,-7.02,-44.1,,adl
15.270308,0.199,-0.5864,2.5789,-0.0943,-1.1265,0.1635,1.5,-7.02,-44.1,,adl
15.289931,0.199,-0.5864,2.5789,-0.7148,-0.9039,-0.1081,1.5,-7.02,-44.1,,adl
15.311169,0.199,-0.5864,2.5789,-0.7148,-0.9039,-0.1081,2.52,-6.6,-44.34,,adl
15.312779,0.199,-0.5864,2.5789,-1.4637,-0.1593,-0.7318,2.52,-6.6,-44.34,,adl
15.326153,0.199,-0.5864,2.5789,-1.4637,-0.1593,-0.7318,2.52,-6.6,-44.34,,adl
15.327587,1.0082,-3.7029,0.1252,-1.4637,-0.1593,-0.7318,2.52,-6.6,-44.34,,adl
15.330131,1.0082,-3.7029,0.1252,-1.4301,-0.3665,-0.8602,2.52,-6.6,-44.34,,adl
15.35166,1.0082,-3.7029,0.1252,-0.9044,-1.199,-0.498,2.52,-6.6,-44.34,,adl
15.372228,1.0082,-3.7029,0.1252,-0.9044,-1.199,-0.498,3.54,-5.94,-43.5,,adl
15.37381,1.0082,-3.7029,0.1252,0.3691,-1.9297,0.0852,3.54,-5.94,-43.5,,adl
15.387958,1.0082,-3.7029,0.1252,0.3691,-1.9297,0.0852,3.54,-5.94,-43.5,,adl
15.389495,0.3037,-0.5713,-1.2652,0.3691,-1.9297,0.0852,3.54,-5.94,-43.5,,adl
15.391515,0.3037,-0.5713,-1.2652,0.5076,-0.7169,0.5289,3.54,-5.94,-43.5,,adl
15.411909,0.3037,-0.5713,-1.2652,-0.9289,1.1947,0.2796,3.54,-5.94,-43.5,,adl
15.43407,0.3037,-0.5713,-1.2652,-0.9289,1.1947,0.2796,4.02,-4.68,-43.98,,adl
15.436095,0.3037,-0.5713,-1.2652,-1.648,1.6352,-0.139,4.02,-4.68,-43.98,,adl
15.450874,0.3037,-0.5713,-1.2652,-1.648,1.6352,-0.139,4.02,-4.68,-43.98,,adl
15.452286,2.7914,0.0607,5.5918,-1.648,1.6352,-0.139,4.02,-4.68,-43.98,,adl
15.453492,2.7914,0.0607,5.5918,-0.1896,0.2876,-0.1747,4.02,-4.68,-43.98,,adl
15.474734,2.7914,0.0607,5.5918,0.1518,-0.7947,-0.0266,4.02,-4.68,-43.98,,adl
15.496209,2.7914,0.0607,5.5918,0.1518,-0.7947,-0.0266,3.72,-3.36,-43.62,,adl
15.498149,2.7914,0.0607,5.5918,-0.3649,-0.5422,-0.1337,3.72,-3.36,-43.62,,adl
15.511048,2.7914,0.0607,5.5918,-0.3649,-0.5422,-0.1337,3.72,-3.36,-43.62,,adl
15.511899,1.0242,-1.0689,-1.047,-0.3649,-0.5422,-0.1337,3.72,-3.36,-43.62,,adl
15.514916,1.0242,-1.0689,-1.047,-0.1843,-0.1103,-0.1491,3.72,-3.36,-43.62,,adl
15.535464,1.0242,-1.0689,-1.047,-0.1912,0.1939,-0.0224,3.72,-3.36,-43.62,,adl
15.55671,1.0242,-1.0689,-1.047,-0.1912,0.1939,-0.0224,2.52,-2.46,-43.56,,adl
15.558677,1.0242,-1.0689,-1.047,-0.3622,0.4677,-0.008,2.52,-2.46,-43.56,,adl
15.573083,1.0242,-1.0689,-1.047,-0.3622,0.4677,-0.008,2.52,-2.46,-43.56,,adl
15.574595,1.0963,-1.0798,-1.3529,-0.3622,0.4677,-0.008,2.52,-2.46,-43.56,,adl
15.575769,1.0963,-1.0798,-1.3529,-0.4495,0.6882,-0.0053,2.52,-2.46,-43.56,,adl
15.597669,1.0963,-1.0798,-1.3529,-0.4522,0.848,0.0197,2.52,-2.46,-43.56,,adl
15.618683,1.0963,-1.0798,-1.3529,-0.4522,0.848,0.0197,2.4,-1.02,-43.98,,adl
15.620053,1.0963,-1.0798,-1.3529,-0.4357,0.776,-0.0399,2.4,-1.02,-43.98,,adl
15.635683,1.0963,-1.0798,-1.3529,-0.4357,0.776,-0.0399,2.4,-1.02,-43.98,,adl
15.636955,2.0725,-0.4146,-1.3549,-0.4357,0.776,-0.0399,2.4,-1.02,-43.98,,adl
15.638145,2.0725,-0.4146,-1.3549,-0.3979,0.6701,-0.1843,2.4,-1.02,-43.98,,adl
15.658266,2.0725,-0.4146,-1.3549,-0.3302,0.7169,-0.27,2.4,-1.02,-43.98,,adl
15.680812,2.0725,-0.4146,-1.3549,-0.3302,0.7169,-0.27,3.12,-0.06,-43.44,,adl
15.682734,2.0725,-0.4146,-1.3549,-0.2802,0.7329,-0.2376,3.12,-0.06,-43.44,,adl
15.695799,2.0725,-0.4146,-1.3549,-0.2802,0.7329,-0.2376,3.12,-0.06,-43.44,,adl
15.696759,-0.2683,0.1891,-0.2972,-0.2802,0.7329,-0.2376,3.12,-0.06,-43.44,,adl
15.70026,-0.2683,0.1891,-0.2972,-0.2232,0.6663,-0.1672,3.12,-0.06,-43.44,,adl
15.720859,-0.2683,0.1891,-0.2972,-0.2306,0.6179,-0.1406,3.12,-0.06,-43.44,,adl
15.741226,-0.2683,0.1891,-0.2972,-0.2306,0.6179,-0.1406,3.9,1.02,-43.56,,adl
15.742679,-0.2683,0.1891,-0.2972,-0.3068,0.6711,-0.1545,3.9,1.02,-43.56,,adl
15.75776,-0.2683,0.1891,-0.2972,-0.3068,0.6711,-0.1545,3.9,1.02,-43.56,,adl
15.759519,-0.3633,0.112,-0.089,-0.3068,0.6711,-0.1545,3.9,1.02,-43.56,,adl
15.760747,-0.3633,0.112,-0.089,-0.4032,0.5848,-0.1598,3.9,1.02,-43.56,,adl
15.782394,-0.3633,0.112,-0.089,-0.4485,0.3547,-0.1992,3.9,1.02,-43.56,,adl
15.803637,-0.3633,0.112,-0.089,-0.4485,0.3547,-0.1992,5.1,2.46,-43.32,,adl
15.805486,-0.3633,0.112,-0.089,-0.4911,0.1726,-0.2812,5.1,2.46,-43.32,,adl
15.819654,-0.3633,0.112,-0.089,-0.4911,0.1726,-0.2812,5.1,2.46,-43.32,,adl
15.821109,0.4252,-0.4077,0.7687,-0.4911,0.1726,-0.2812,5.1,2.46,-43.32,,adl
15.822455,0.4252,-0.4077,0.7687,-0.5108,0.294,-0.3771,5.1,2.46,-43.32,,adl
15.843887,0.4252,-0.4077,0.7687,-0.4943,0.4485,-0.3925,5.1,2.46,-43.32,,adl
15.865223,0.4252,-0.4077,0.7687,-0.4943,0.4485,-0.3925,5.64,3.36,-43.2,,adl
15.867081,0.4252,-0.4077,0.7687,-0.4218,0.4112,-0.351,5.64,3.36,-43.2,,adl
15.880611,0.4252,-0.4077,0.7687,-0.4218,0.4112,-0.351,5.64,3.36,-43.2,,adl
15.881546,-0.9224,0.6373,-0.1847,-0.4218,0.4112,-0.351,5.64,3.36,-43.2,,adl
15.885654,-0.9224,0.6373,-0.1847,-0.3073,0.2168,-0.2823,5.64,3.36,-43.2,,adl
15.904403,-0.9224,0.6373,-0.1847,-0.1028,0.2344,-0.1635,5.64,3.36,-43.2,,adl
15.927058,-0.9224,0.6373,-0.1847,-0.1028,0.2344,-0.1635,6.18,4.26,-43.02,,adl
15.928655,-0.9224,0.6373,-0.1847,0.1534,0.539,-0.0325,6.18,4.26,-43.02,,adl
15.941913,-0.9224,0.6373,-0.1847,0.1534,0.539,-0.0325,6.18,4.26,-43.02,,adl
15.943621,-1.4178,0.8347,0.0659,0.1534,0.539,-0.0325,6.18,4.26,-43.02,,adl
15.945512,-1.4178,0.8347,0.0659,0.2796,0.7776,0.0756,6.18,4.26,-43.02,,adl
15.966355,-1.4178,0.8347,0.0659,0.3254,0.7483,0.1246,6.18,4.26,-43.02,,adl
15.98798,-1.4178,0.8347,0.0659,0.3254,0.7483,0.1246,7.44,5.4,-42.48,,adl
15.989532,-1.4178,0.8347,0.0659,0.4011,0.8043,0.179,7.44,5.4,-42.48,,adl
16.00433,-1.4178,0.8347,0.0659,0.4011,0.8043,0.179,7.44,5.4,-42.48,,adl
16.005748,-0.0543,-1.0222,1.1034,0.4011,0.8043,0.179,7.44,5.4,-42.48,,adl
16.007186,-0.0543,-1.0222,1.1034,0.5262,0.9635,0.2147,7.44,5.4,-42.48,,adl
16.028867,-0.0543,-1.0222,1.1034,0.6493,1.0818,0.2466,7.44,5.4,-42.48,,adl
16.05016,-0.0543,-1.0222,1.1034,0.6493,1.0818,0.2466,8.82,6.3,-42.12,,adl
16.052091,-0.0543,-1.0222,1.1034,0.9305,1.2804,0.2141,8.82,6.3,-42.12,,adl
16.065228,-0.0543,-1.0222,1.1034,0.9305,1.2804,0.2141,8.82,6.3,-42.12,,adl
16.066243,-1.4699,-3.7956,0.729,0.9305,1.2804,0.2141,8.82,6.3,-42.12,,adl
16.070947,-1.4699,-3.7956,0.729,1.3625,1.371,0.2365,8.82,6.3,-42.12,,adl
16.090266,-1.4699,-3.7956,0.729,1.7087,1.4456,0.383,8.82,6.3,-42.12,,adl
16.112345,-1.4699,-3.7956,0.729,1.7087,1.4456,0.383,10.92,6.6,-41.34,,adl
16.114234,-1.4699,-3.7956,0.729,2.1231,1.526,0.5124,10.92,6.6,-41.34,,adl
16.126923,-1.4699,-3.7956,0.729,2.1231,1.526,0.5124,10.92,6.6,-41.34,,adl
16.128428,1.2147,-0.3621,1.64,2.1231,1.526,0.5124,10.92,6.6,-41.34,,adl
16.130555,1.2147,-0.3621,1.64,2.5769,1.3875,0.5561,10.92,6.6,-41.34,,adl
16.151943,1.2147,-0.3621,1.64,3.0957,0.7723,0.44,10.92,6.6,-41.34,,adl
16.173197,1.2147,-0.3621,1.64,3.0957,0.7723,0.44,13.2,5.82,-40.8,,adl
16.175144,1.2147,-0.3621,1.64,3.0328,0.3702,0.2764,13.2,5.82,-40.8,,adl
16.188177,1.2147,-0.3621,1.64,3.0328,0.3702,0.2764,13.2,5.82,-40.8,,adl
16.189695,2.2058,-0.4962,-1.7852,3.0328,0.3702,0.2764,13.2,5.82,-40.8,,adl
16.192793,2.2058,-0.4962,-1.7852,2.2669,0.5204,0.1358,13.2,5.82,-40.8,,adl
