time,ax,ay,az,wx,wy,wz,Bx,By,Bz,Unnamed: 10,label
0.02771,0.0,0.0,0.0,0.0341,-0.2525,-0.0053,0.0,0.0,0.0,,adl
0.048028,0.0,0.0,0.0,0.0341,-0.2525,-0.0053,-25.14,27.3,-21.06,,adl
0.04852,0.0,0.0,0.0,0.0341,-0.2525,-0.0053,-25.14,27.3,-21.06,,adl
0.064181,0.0,0.0,0.0,0.0341,-0.2525,-0.0053,-25.14,27.3,-21.06,,adl
0.068655,0.0,0.0,0.0,0.0091,-0.0623,-0.0123,-25.14,27.3,-21.06,,adl
0.088515,0.0,0.0,0.0,0.0389,-0.0554,0.0064,-25.14,27.3,-21.06,,adl
0.109908,0.0,0.0,0.0,0.0389,-0.0554,0.0064,-25.92,2.46,-13.08,,adl
0.110669,0.0,0.0,0.0,-0.0043,-0.0149,-0.0027,-25.92,2.46,-13.08,,adl
0.126235,0.0,0.0,0.0,-0.0043,-0.0149,-0.0027,-25.92,2.46,-13.08,,adl
0.12706,0.0004,0.008,0.0624,-0.0043,-0.0149,-0.0027,-25.92,2.46,-13.08,,adl
0.129861,0.0004,0.008,0.0624,-0.0208,0.0362,0.0027,-25.92,2.46,-13.08,,adl
0.150779,0.0004,0.008,0.0624,-0.0053,0.0197,0.0048,-25.92,2.46,-13.08,,adl
0.171564,0.0004,0.008,0.0624,-0.0053,0.0197,0.0048,-26.04,-10.32,-8.28,,adl
0.172359,0.0004,0.008,0.0624,-0.0085,-0.0511,0.0075,-26.04,-10.32,-8.28,,adl
0.187838,0.0004,0.008,0.0624,-0.0085,-0.0511,0.0075,-26.04,-10.32,-8.28,,adl
0.188456,-0.0152,0.0047,0.1865,-0.0085,-0.0511,0.0075,-26.04,-10.32,-8.28,,adl
0.191508,-0.0152,0.0047,0.1865,-0.0048,-0.025,0.0021,-26.04,-10.32,-8.28,,adl
0.212171,-0.0152,0.0047,0.1865,0.0117,0.0325,-0.0021,-26.04,-10.32,-8.28,,adl
0.233713,-0.0152,0.0047,0.1865,0.0117,0.0325,-0.0021,-26.1,-22.74,-5.34,,adl
0.234467,-0.0152,0.0047,0.1865,0.0112,0.0197,-0.0069,-26.1,-22.74,-5.34,,adl
0.249429,-0.0152,0.0047,0.1865,0.0112,0.0197,-0.0069,-26.1,-22.74,-5.34,,adl
0.250106,-0.0045,0.064,0.1404,0.0112,0.0197,-0.0069,-26.1,-22.74,-5.34,,adl
0.253324,-0.0045,0.064,0.1404,0.0005,-0.0144,-0.0069,-26.1,-22.74,-5.34,,adl
0.274738,-0.0045,0.064,0.1404,-0.0005,-0.008,-0.0043,-26.1,-22.74,-5.34,,adl
0.294496,-0.0045,0.064,0.1404,-0.0005,-0.008,-0.0043,-26.04,-22.68,-5.64,,adl
0.29529,-0.0045,0.064,0.1404,-0.0021,0.0059,-0.0027,-26.04,-22.68,-5.64,,adl
0.310859,-0.0045,0.064,0.1404,-0.0021,0.0059,-0.0027,-26.04,-22.68,-5.64,,adl
0.31159,-0.0248,0.0187,0.1451,-0.0021,0.0059,-0.0027,-26.04,-22.68,-5.64,,adl
0.314626,-0.0248,0.0187,0.1451,-0.0059,-0.0075,0.0016,-26.04,-22.68,-5.64,,adl
0.335484,-0.0248,0.0187,0.1451,-0.0005,-0.0075,0.0037,-26.04,-22.68,-5.64,,adl
0.356802,-0.0248,0.0187,0.1451,-0.0005,-0.0075,0.0037,-26.22,-23.22,-5.7,,adl
0.357431,-0.0248,0.0187,0.1451,0.0085,0.0064,0.0027,-26.22,-23.22,-5.7,,adl
0.372703,-0.0248,0.0187,0.1451,0.0085,0.0064,0.0027,-26.22,-23.22,-5.7,,adl
0.373361,0.002,-0.0757,0.1446,0.0085,0.0064,0.0027,-26.22,-23.22,-5.7,,adl
0.376115,0.002,-0.0757,0.1446,0.0032,0.0064,0.0037,-26.22,-23.22,-5.7,,adl
0.396826,0.002,-0.0757,0.1446,-0.0101,0.0181,-0.0005,-26.22,-23.22,-5.7,,adl
0.418016,0.002,-0.0757,0.1446,-0.0101,0.0181,-0.0005,-26.88,-23.22,-5.7,,adl
0.418655,0.002,-0.0757,0.1446,-0.0075,0.0096,-0.0048,-26.88,-23.22,-5.7,,adl
0.434246,0.002,-0.0757,0.1446,-0.0075,0.0096,-0.0048,-26.88,-23.22,-5.7,,adl
0.434998,-0.0385,0.0777,0.1514,-0.0075,0.0096,-0.0048,-26.88,-23.22,-5.7,,adl
0.438067,-0.0385,0.0777,0.1514,-0.0048,-0.0069,-0.0059,-26.88,-23.22,-5.7,,adl
0.458482,-0.0385,0.0777,0.1514,-0.0021,0.0059,-0.0021,-26.88,-23.22,-5.7,,adl
0.479826,-0.0385,0.0777,0.1514,0.0037,0.0176,0.0032,-26.88,-23.22,-5.7,,adl
0.480417,-0.0385,0.0777,0.1514,0.0037,0.0176,0.0032,-27.24,-23.28,-5.28,,adl
0.495796,-0.0385,0.0777,0.1514,0.0037,0.0176,0.0032,-27.24,-23.28,-5.28,,adl
0.496539,0.0198,0.081,0.1564,0.0037,0.0176,0.0032,-27.24,-23.28,-5.28,,adl
0.501524,0.0198,0.081,0.1564,0.0027,0.0091,0.0005,-27.24,-23.28,-5.28,,adl
0.520542,0.0198,0.081,0.1564,-0.0032,-0.0107,0.0005,-27.24,-23.28,-5.28,,adl
0.541249,0.0198,0.081,0.1564,-0.0032,-0.0107,0.0005,-27.0,-23.22,-5.16,,adl
0.542115,0.0198,0.081,0.1564,-0.0043,-0.0144,0.0032,-27.0,-23.22,-5.16,,adl
0.557585,0.0198,0.081,0.1564,-0.0043,-0.0144,0.0032,-27.0,-23.22,-5.16,,adl
0.558209,0.0306,-0.0257,0.1778,-0.0043,-0.0144,0.0032,-27.0,-23.22,-5.16,,adl
0.562002,0.0306,-0.0257,0.1778,-0.0032,-0.0064,0.0021,-27.0,-23.22,-5.16,,adl
0.581602,0.0306,-0.0257,0.1778,0.0059,0.008,-0.0011,-27.0,-23.22,-5.16,,adl
0.602908,0.0306,-0.0257,0.1778,0.0059,0.008,-0.0011,-26.94,-22.86,-5.16,,adl
0.603372,0.0306,-0.0257,0.1778,0.0064,0.0096,-0.0021,-26.94,-22.86,-5.16,,adl
0.619082,0.0306,-0.0257,0.1778,0.0064,0.0096,-0.0021,-26.94,-22.86,-5.16,,adl
0.620318,-0.0436,0.0205,0.1589,0.0064,0.0096,-0.0021,-26.94,-22.86,-5.16,,adl
0.622427,-0.0436,0.0205,0.1589,0.0075,-0.0037,-0.0032,-26.94,-22.86,-5.16,,adl
0.643824,-0.0436,0.0205,0.1589,0.0021,-0.0085,0.0005,-26.94,-22.86,-5.16,,adl
0.66485,-0.0436,0.0205,0.1589,0.0021,-0.0085,0.0005,-26.4,-22.44,-5.4,,adl
0.665894,-0.0436,0.0205,0.1589,-0.0016,0.0011,0.0005,-26.4,-22.44,-5.4,,adl
0.680976,-0.0436,0.0205,0.1589,-0.0016,0.0011,0.0005,-26.4,-22.44,-5.4,,adl
0.681662,-0.0259,0.0237,0.1639,-0.0016,0.0011,0.0005,-26.4,-22.44,-5.4,,adl
0.684434,-0.0259,0.0237,0.1639,-0.0005,0.0011,0.0005,-26.4,-22.44,-5.4,,adl
0.705362,-0.0259,0.0237,0.1639,-0.0016,-0.0096,0.0,-26.4,-22.44,-5.4,,adl
0.727119,-0.0259,0.0237,0.1639,-0.0016,-0.0096,0.0,-26.22,-22.5,-5.22,,adl
0.727782,-0.0259,0.0237,0.1639,0.0011,-0.0117,-0.0011,-26.22,-22.5,-5.22,,adl
0.742032,-0.0259,0.0237,0.1639,0.0011,-0.0117,-0.0011,-26.22,-22.5,-5.22,,adl
0.742666,0.0014,0.031,0.1591,0.0011,-0.0117,-0.0011,-26.22,-22.5,-5.22,,adl
0.745704,0.0014,0.031,0.1591,0.0037,-0.0005,-0.0011,-26.22,-22.5,-5.22,,adl
0.766715,0.0014,0.031,0.1591,0.0027,0.0059,-0.0021,-26.22,-22.5,-5.22,,adl
0.787875,0.0014,0.031,0.1591,0.0027,0.0059,-0.0021,-26.04,-22.44,-5.58,,adl
0.788854,0.0014,0.031,0.1591,0.0011,0.0016,-0.0021,-26.04,-22.44,-5.58,,adl
0.804018,0.0014,0.031,0.1591,0.0011,0.0016,-0.0021,-26.04,-22.44,-5.58,,adl
0.804895,0.0007,-0.0223,0.1711,0.0011,0.0016,-0.0021,-26.04,-22.44,-5.58,,adl
0.809347,0.0007,-0.0223,0.1711,0.0,-0.0032,-0.0021,-26.04,-22.44,-5.58,,adl
0.827574,0.0007,-0.0223,0.1711,0.0005,-0.0059,0.0005,-26.04,-22.44,-5.58,,adl
0.850647,0.0007,-0.0223,0.1711,0.0005,-0.0059,0.0005,-26.16,-22.8,-5.28,,adl
0.852291,0.0007,-0.0223,0.1711,0.0005,-0.0021,0.0005,-26.16,-22.8,-5.28,,adl
0.86599,0.0007,-0.0223,0.1711,0.0005,-0.0021,0.0005,-26.16,-22.8,-5.28,,adl
0.867046,0.0128,0.0397,0.164,0.0005,-0.0021,0.0005,-26.16,-22.8,-5.28,,adl
0.870158,0.0128,0.0397,0.164,0.0048,0.0059,0.0021,-26.16,-22.8,-5.28,,adl
0.890426,0.0128,0.0397,0.164,0.0059,0.0059,0.0005,-26.16,-22.8,-5.28,,adl
0.911167,0.0128,0.0397,0.164,0.0059,0.0059,0.0005,-26.22,-23.04,-5.16,,adl
0.912289,0.0128,0.0397,0.164,0.0027,0.0027,0.0016,-26.22,-23.04,-5.16,,adl
0.927078,0.0128,0.0397,0.164,0.0027,0.0027,0.0016,-26.22,-23.04,-5.16,,adl
0.928219,0.0036,0.0179,0.1452,0.0027,0.0027,0.0016,-26.22,-23.04,-5.16,,adl
0.930776,0.0036,0.0179,0.1452,0.0016,-0.0021,-0.0005,-26.22,-23.04,-5.16,,adl
0.951284,0.0036,0.0179,0.1452,0.0011,-0.0016,-0.0027,-26.22,-23.04,-5.16,,adl
0.973385,0.0036,0.0179,0.1452,0.0011,-0.0016,-0.0027,-25.92,-22.98,-5.16,,adl
0.974542,0.0036,0.0179,0.1452,0.0005,-0.0005,-0.0048,-25.92,-22.98,-5.16,,adl
0.988717,0.0036,0.0179,0.1452,0.0005,-0.0005,-0.0048,-25.92,-22.98,-5.16,,adl
0.98971,-0.0487,-0.0013,0.1715,0.0005,-0.0005,-0.0048,-25.92,-22.98,-5.16,,adl
0.992474,-0.0487,-0.0013,0.1715,0.0016,-0.0027,-0.0027,-25.92,-22.98,-5.16,,adl
1.012782,-0.0487,-0.0013,0.1715,0.0016,-0.0032,0.0011,-25.92,-22.98,-5.16,,adl
1.034006,-0.0487,-0.0013,0.1715,0.0016,-0.0032,0.0011,-26.22,-23.04,-4.74,,adl
1.034985,-0.0487,-0.0013,0.1715,0.0005,-0.0048,0.0027,-26.22,-23.04,-4.74,,adl
1.050726,-0.0487,-0.0013,0.1715,0.0005,-0.0048,0.0027,-26.22,-23.04,-4.74,,adl
1.051979,0.0282,0.0124,0.1453,0.0005,-0.0048,0.0027,-26.22,-23.04,-4.74,,adl
1.054216,0.0282,0.0124,0.1453,-0.0016,-0.0027,0.0027,-26.22,-23.04,-4.74,,adl
1.074671,0.0282,0.0124,0.1453,-0.0005,-0.0043,0.0016,-26.22,-23.04,-4.74,,adl
1.096207,0.0282,0.0124,0.1453,-0.0005,-0.0043,0.0016,-25.8,-22.5,-4.92,,adl
1.097302,0.0282,0.0124,0.1453,0.0011,-0.0043,0.0,-25.8,-22.5,-4.92,,adl
1.112044,0.0282,0.0124,0.1453,0.0011,-0.0043,0.0,-25.8,-22.5,-4.92,,adl
1.112983,0.0417,0.0083,0.15,0.0011,-0.0043,0.0,-25.8,-22.5,-4.92,,adl
1.116947,0.0417,0.0083,0.15,0.0016,-0.0016,-0.0027,-25.8,-22.5,-4.92,,adl
1.136834,0.0417,0.0083,0.15,0.0048,0.0064,-0.0053,-25.8,-22.5,-4.92,,adl
1.158332,0.0417,0.0083,0.15,0.0048,0.0064,-0.0053,-25.68,-22.32,-5.1,,adl
1.159694,0.0417,0.0083,0.15,0.0064,0.0069,-0.0037,-25.68,-22.32,-5.1,,adl
1.174267,0.0417,0.0083,0.15,0.0064,0.0069,-0.0037,-25.68,-22.32,-5.1,,adl
1.175367,-0.025,0.0036,0.1527,0.0064,0.0069,-0.0037,-25.68,-22.32,-5.1,,adl
1.178021,-0.025,0.0036,0.1527,0.0021,0.0021,-0.0059,-25.68,-22.32,-5.1,,adl
1.19802,-0.025,0.0036,0.1527,0.0011,-0.0011,-0.0021,-25.68,-22.32,-5.1,,adl
1.219525,-0.025,0.0036,0.1527,0.0011,-0.0011,-0.0021,-26.28,-22.44,-5.16,,adl
1.220565,-0.025,0.0036,0.1527,-0.0016,-0.0032,-0.0005,-26.28,-22.44,-5.16,,adl
1.234651,-0.025,0.0036,0.1527,-0.0016,-0.0032,-0.0005,-26.28,-22.44,-5.16,,adl
1.235622,-0.0316,0.0742,0.16,-0.0016,-0.0032,-0.0005,-26.28,-22.44,-5.16,,adl
1.238642,-0.0316,0.0742,0.16,0.0027,-0.0059,0.0027,-26.28,-22.44,-5.16,,adl
1.259584,-0.0316,0.0742,0.16,0.0,-0.0101,0.0011,-26.28,-22.44,-5.16,,adl
1.280762,-0.0316,0.0742,0.16,0.0,-0.0101,0.0011,-25.98,-22.44,-5.28,,adl
1.281822,-0.0316,0.0742,0.16,-0.0032,-0.0091,0.0016,-25.98,-22.44,-5.28,,adl
1.296543,-0.0316,0.0742,0.16,-0.0032,-0.0091,0.0016,-25.98,-22.44,-5.28,,adl
1.297497,0.0345,-0.0895,0.1475,-0.0032,-0.0091,0.0016,-25.98,-22.44,-5.28,,adl
1.300839,0.0345,-0.0895,0.1475,-0.0075,0.0107,-0.0011,-25.98,-22.44,-5.28,,adl
1.320832,0.0345,-0.0895,0.1475,-0.0043,0.0245,-0.0043,-25.98,-22.44,-5.28,,adl
1.342404,0.0345,-0.0895,0.1475,-0.0043,0.0245,-0.0043,-26.52,-22.5,-5.04,,adl
1.343626,0.0345,-0.0895,0.1475,0.0016,0.0,-0.0043,-26.52,-22.5,-5.04,,adl
1.358507,0.0345,-0.0895,0.1475,0.0016,0.0,-0.0043,-26.52,-22.5,-5.04,,adl
1.359631,-0.011,0.0657,0.1281,0.0016,0.0,-0.0043,-26.52,-22.5,-5.04,,adl
1.361716,-0.011,0.0657,0.1281,-0.0021,-0.0011,-0.0021,-26.52,-22.5,-5.04,,adl
1.383101,-0.011,0.0657,0.1281,-0.0005,0.0133,-0.0016,-26.52,-22.5,-5.04,,adl
1.403809,-0.011,0.0657,0.1281,-0.0005,0.0133,-0.0016,-26.4,-22.74,-5.28,,adl
1.404882,-0.011,0.0657,0.1281,-0.0005,0.0069,-0.0032,-26.4,-22.74,-5.28,,adl
1.420225,-0.011,0.0657,0.1281,-0.0005,0.0069,-0.0032,-26.4,-22.74,-5.28,,adl
1.421314,-0.0164,0.0018,0.1783,-0.0005,0.0069,-0.0032,-26.4,-22.74,-5.28,,adl
1.426512,-0.0164,0.0018,0.1783,-0.0016,-0.0032,-0.0032,-26.4,-22.74,-5.28,,adl
1.444103,-0.0164,0.0018,0.1783,0.0016,-0.0064,-0.0011,-26.4,-22.74,-5.28,,adl
1.467163,-0.0164,0.0018,0.1783,0.0016,-0.0064,-0.0011,-26.16,-22.86,-5.76,,adl
1.468554,-0.0164,0.0018,0.1783,0.0037,-0.0053,0.0,-26.16,-22.86,-5.76,,adl
1.481927,-0.0164,0.0018,0.1783,0.0037,-0.0053,0.0,-26.16,-22.86,-5.76,,adl
1.483105,-0.0047,-0.0172,0.1424,0.0037,-0.0053,0.0,-26.16,-22.86,-5.76,,adl
1.485774,-0.0047,-0.0172,0.1424,0.0011,0.0032,-0.0016,-26.16,-22.86,-5.76,,adl
1.505744,-0.0047,-0.0172,0.1424,0.0016,0.0048,-0.0011,-26.16,-22.86,-5.76,,adl
1.526844,-0.0047,-0.0172,0.1424,0.0016,0.0048,-0.0011,-26.52,-23.16,-5.64,,adl
1.528058,-0.0047,-0.0172,0.1424,0.0059,-0.0085,-0.0016,-26.52,-23.16,-5.64,,adl
1.543002,-0.0047,-0.0172,0.1424,0.0059,-0.0085,-0.0016,-26.52,-23.16,-5.64,,adl
1.544117,-0.0023,0.0361,0.1426,0.0059,-0.0085,-0.0016,-26.52,-23.16,-5.64,,adl
1.546621,-0.0023,0.0361,0.1426,0.0011,-0.0128,-0.0011,-26.52,-23.16,-5.64,,adl
1.567065,-0.0023,0.0361,0.1426,-0.0011,0.0005,-0.0016,-26.52,-23.16,-5.64,,adl
1.589403,-0.0023,0.0361,0.1426,-0.0011,0.0005,-0.0016,-26.22,-22.86,-5.64,,adl
1.590512,-0.0023,0.0361,0.1426,0.0011,0.0037,-0.0021,-26.22,-22.86,-5.64,,adl
1.604977,-0.0023,0.0361,0.1426,0.0011,0.0037,-0.0021,-26.22,-22.86,-5.64,,adl
1.606018,-0.0181,0.0239,0.157,0.0011,0.0037,-0.0021,-26.22,-22.86,-5.64,,adl
1.609688,-0.0181,0.0239,0.157,0.0027,-0.0032,-0.0016,-26.22,-22.86,-5.64,,adl
1.629138,-0.0181,0.0239,0.157,0.0021,-0.0027,-0.0011,-26.22,-22.86,-5.64,,adl
1.650105,-0.0181,0.0239,0.157,0.0021,-0.0027,-0.0011,-26.52,-23.04,-4.98,,adl
1.651182,-0.0181,0.0239,0.157,0.0027,0.0005,-0.0016,-26.52,-23.04,-4.98,,adl
1.666084,-0.0181,0.0239,0.157,0.0027,0.0005,-0.0016,-26.52,-23.04,-4.98,,adl
1.667058,0.0073,0.032,0.15,0.0027,0.0005,-0.0016,-26.52,-23.04,-4.98,,adl
1.669851,0.0073,0.032,0.15,0.0005,-0.0011,-0.0027,-26.52,-23.04,-4.98,,adl
1.69154,0.0073,0.032,0.15,-0.0011,0.0011,-0.0032,-26.52,-23.04,-4.98,,adl
1.71207,0.0073,0.032,0.15,-0.0011,0.0011,-0.0032,-26.46,-22.86,-5.1,,adl
1.713957,0.0073,0.032,0.15,0.0005,0.0016,-0.0027,-26.46,-22.86,-5.1,,adl
1.727693,0.0073,0.032,0.15,0.0005,0.0016,-0.0027,-26.46,-22.86,-5.1,,adl
1.728509,-0.0135,0.0058,0.1787,0.0005,0.0016,-0.0027,-26.46,-22.86,-5.1,,adl
1.731062,-0.0135,0.0058,0.1787,0.0016,-0.0005,-0.0005,-26.46,-22.86,-5.1,,adl
1.752228,-0.0135,0.0058,0.1787,0.0021,-0.0021,0.0,-26.46,-22.86,-5.1,,adl
1.7731,-0.0135,0.0058,0.1787,0.0021,-0.0021,0.0,-26.34,-22.68,-5.1,,adl
1.774129,-0.0135,0.0058,0.1787,0.0005,0.0005,-0.0011,-26.34,-22.68,-5.1,,adl
1.789717,-0.0135,0.0058,0.1787,0.0005,0.0005,-0.0011,-26.34,-22.68,-5.1,,adl
1.790838,-0.0231,0.0218,0.1477,0.0005,0.0005,-0.0011,-26.34,-22.68,-5.1,,adl
1.793533,-0.0231,0.0218,0.1477,-0.0005,0.0011,0.0,-26.34,-22.68,-5.1,,adl
1.813518,-0.0231,0.0218,0.1477,0.0005,0.0016,-0.0011,-26.34,-22.68,-5.1,,adl
1.835065,-0.0231,0.0218,0.1477,0.0005,0.0016,-0.0011,-26.46,-23.46,-4.86,,adl
1.836439,-0.0231,0.0218,0.1477,0.0011,-0.0011,-0.0021,-26.46,-23.46,-4.86,,adl
1.850459,-0.0231,0.0218,0.1477,0.0011,-0.0011,-0.0021,-26.46,-23.46,-4.86,,adl
1.851632,-0.0034,0.0311,0.1621,0.0011,-0.0011,-0.0021,-26.46,-23.46,-4.86,,adl
1.854327,-0.0034,0.0311,0.1621,0.0005,0.0021,-0.0016,-26.46,-23.46,-4.86,,adl
1.875573,-0.0034,0.0311,0.1621,0.0,0.0005,-0.0016,-26.46,-23.46,-4.86,,adl
1.897429,-0.0034,0.0311,0.1621,0.0,0.0005,-0.0016,-26.34,-23.34,-4.8,,adl
1.898733,-0.0034,0.0311,0.1621,0.0016,0.0021,-0.0048,-26.34,-23.34,-4.8,,adl
1.912571,-0.0034,0.0311,0.1621,0.0016,0.0021,-0.0048,-26.34,-23.34,-4.8,,adl
1.913603,-0.0139,-0.0003,0.1573,0.0016,0.0021,-0.0048,-26.34,-23.34,-4.8,,adl
1.917171,-0.0139,-0.0003,0.1573,0.0037,0.0037,-0.0016,-26.34,-23.34,-4.8,,adl
1.936773,-0.0139,-0.0003,0.1573,0.0,0.0027,-0.0011,-26.34,-23.34,-4.8,,adl
1.958216,-0.0139,-0.0003,0.1573,0.0,0.0027,-0.0011,-26.4,-23.4,-4.26,,adl
1.959222,-0.0139,-0.0003,0.1573,-0.0005,-0.0005,0.0,-26.4,-23.4,-4.26,,adl
1.975763,-0.0139,-0.0003,0.1573,-0.0005,-0.0005,0.0,-26.4,-23.4,-4.26,,adl
1.976826,-0.0195,0.0137,0.1454,-0.0005,-0.0005,0.0,-26.4,-23.4,-4.26,,adl
1.977795,-0.0195,0.0137,0.1454,-0.0016,-0.0005,-0.0011,-26.4,-23.4,-4.26,,adl
2.001021,-0.0195,0.0137,0.1454,-0.0021,-0.0005,-0.0005,-26.4,-23.4,-4.26,,adl
2.019669,-0.0195,0.0137,0.1454,-0.0021,-0.0005,-0.0005,-27.06,-23.34,-4.2,,adl
2.020849,-0.0195,0.0137,0.1454,0.0011,0.0032,0.0,-27.06,-23.34,-4.2,,adl
2.035622,-0.0195,0.0137,0.1454,0.0011,0.0032,0.0,-27.06,-23.34,-4.2,,adl
2.03661,0.0049,0.0118,0.1573,0.0011,0.0032,0.0,-27.06,-23.34,-4.2,,adl
2.039893,0.0049,0.0118,0.1573,0.0021,0.0032,-0.0005,-27.06,-23.34,-4.2,,adl
2.05966,0.0049,0.0118,0.1573,0.0021,0.0021,-0.0016,-27.06,-23.34,-4.2,,adl
2.081311,0.0049,0.0118,0.1573,0.0021,0.0021,-0.0016,-26.64,-22.74,-4.26,,adl
2.082373,0.0049,0.0118,0.1573,0.0021,0.0005,-0.0005,-26.64,-22.74,-4.26,,adl
2.097124,0.0049,0.0118,0.1573,0.0021,0.0005,-0.0005,-26.64,-22.74,-4.26,,adl
2.098449,0.0085,0.0533,0.136,0.0021,0.0005,-0.0005,-26.64,-22.74,-4.26,,adl
2.100992,0.0085,0.0533,0.136,0.0053,-0.0021,-0.0021,-26.64,-22.74,-4.26,,adl
2.121216,0.0085,0.0533,0.136,-0.0021,-0.0011,-0.0037,-26.64,-22.74,-4.26,,adl
2.142691,0.0085,0.0533,0.136,-0.0021,-0.0011,-0.0037,-26.94,-22.68,-4.2,,adl
2.143756,0.0085,0.0533,0.136,-0.0032,0.0091,0.0,-26.94,-22.68,-4.2,,adl
2.159515,0.0085,0.0533,0.136,-0.0032,0.0091,0.0,-26.94,-22.68,-4.2,,adl
2.160366,-0.0188,0.0292,0.1839,-0.0032,0.0091,0.0,-26.94,-22.68,-4.2,,adl
2.162491,-0.0188,0.0292,0.1839,-0.0064,0.0213,-0.0037,-26.94,-22.68,-4.2,,adl
2.183951,-0.0188,0.0292,0.1839,0.0016,0.008,-0.0032,-26.94,-22.68,-4.2,,adl
2.205316,-0.0188,0.0292,0.1839,0.0016,0.008,-0.0032,-27.0,-22.68,-4.38,,adl
2.206477,-0.0188,0.0292,0.1839,0.0,0.0069,-0.0005,-27.0,-22.68,-4.38,,adl
2.22077,-0.0188,0.0292,0.1839,0.0,0.0069,-0.0005,-27.0,-22.68,-4.38,,adl
2.221633,-0.0181,0.053,0.1264,0.0,0.0069,-0.0005,-27.0,-22.68,-4.38,,adl
2.228836,-0.0181,0.053,0.1264,-0.0032,0.0154,0.0021,-27.0,-22.68,-4.38,,adl
2.245318,-0.0181,0.053,0.1264,-0.0133,0.0075,0.0005,-27.0,-22.68,-4.38,,adl
2.266015,-0.0181,0.053,0.1264,-0.0133,0.0075,0.0005,-26.52,-22.5,-4.08,,adl
2.267247,-0.0181,0.053,0.1264,-0.017,-0.0037,-0.0085,-26.52,-22.5,-4.08,,adl
2.282396,-0.0181,0.053,0.1264,-0.017,-0.0037,-0.0085,-26.52,-22.5,-4.08,,adl
2.283524,0.0426,-0.0214,0.171,-0.017,-0.0037,-0.0085,-26.52,-22.5,-4.08,,adl
2.286615,0.0426,-0.0214,0.171,0.0011,-0.0027,-0.0123,-26.52,-22.5,-4.08,,adl
2.306173,0.0426,-0.0214,0.171,0.0075,0.0154,-0.0133,-26.52,-22.5,-4.08,,adl
2.328242,0.0426,-0.0214,0.171,-0.0011,0.0133,-0.0186,-26.52,-22.5,-4.08,,adl
2.329209,0.0426,-0.0214,0.171,-0.0011,0.0133,-0.0186,-26.94,-22.5,-3.72,,adl
2.343826,0.0426,-0.0214,0.171,-0.0011,0.0133,-0.0186,-26.94,-22.5,-3.72,,adl
2.344766,0.0072,-0.037,0.202,-0.0011,0.0133,-0.0186,-26.94,-22.5,-3.72,,adl
2.347738,0.0072,-0.037,0.202,0.0027,0.0117,-0.0154,-26.94,-22.5,-3.72,,adl
2.368201,0.0072,-0.037,0.202,0.0202,0.0101,-0.0059,-26.94,-22.5,-3.72,,adl
2.388883,0.0072,-0.037,0.202,0.0202,0.0101,-0.0059,-26.4,-22.62,-3.96,,adl
2.390031,0.0072,-0.037,0.202,0.0048,-0.0069,0.0053,-26.4,-22.62,-3.96,,adl
2.405185,0.0072,-0.037,0.202,0.0048,-0.0069,0.0053,-26.4,-22.62,-3.96,,adl
2.406228,-0.1419,0.0509,0.1094,0.0048,-0.0069,0.0053,-26.4,-22.62,-3.96,,adl
2.409852,-0.1419,0.0509,0.1094,-0.0091,-0.0181,0.0133,-26.4,-22.62,-3.96,,adl
2.429593,-0.1419,0.0509,0.1094,-0.0059,-0.0085,0.0149,-26.4,-22.62,-3.96,,adl
2.451093,-0.1419,0.0509,0.1094,-0.0059,-0.0085,0.0149,-25.98,-22.56,-3.48,,adl
2.45262,-0.1419,0.0509,0.1094,0.0,-0.0016,0.0107,-25.98,-22.56,-3.48,,adl
2.466625,-0.1419,0.0509,0.1094,0.0,-0.0016,0.0107,-25.98,-22.56,-3.48,,adl
2.467806,0.1382,0.0017,0.1472,0.0,-0.0016,0.0107,-25.98,-22.56,-3.48,,adl
2.470005,0.1382,0.0017,0.1472,-0.0011,-0.0021,0.0016,-25.98,-22.56,-3.48,,adl
2.491562,0.1382,0.0017,0.1472,0.0048,-0.0053,-0.0069,-25.98,-22.56,-3.48,,adl
2.512843,0.1382,0.0017,0.1472,0.0048,-0.0053,-0.0069,-26.28,-22.8,-4.02,,adl
2.514007,0.1382,0.0017,0.1472,0.0048,0.0059,-0.0107,-26.28,-22.8,-4.02,,adl
2.528747,0.1382,0.0017,0.1472,0.0048,0.0059,-0.0107,-26.28,-22.8,-4.02,,adl
2.529761,-0.0199,0.0145,0.1378,0.0048,0.0059,-0.0107,-26.28,-22.8,-4.02,,adl
2.533932,-0.0199,0.0145,0.1378,0.0037,0.0133,-0.008,-26.28,-22.8,-4.02,,adl
2.552915,-0.0199,0.0145,0.1378,0.0011,0.0107,-0.0005,-26.28,-22.8,-4.02,,adl
2.574309,-0.0199,0.0145,0.1378,0.0011,0.0107,-0.0005,-26.34,-22.8,-4.38,,adl
2.575561,-0.0199,0.0145,0.1378,0.0,-0.0059,0.0069,-26.34,-22.8,-4.38,,adl
2.589938,-0.0199,0.0145,0.1378,0.0,-0.0059,0.0069,-26.34,-22.8,-4.38,,adl
2.590994,-0.0397,0.0161,0.1451,0.0,-0.0059,0.0069,-26.34,-22.8,-4.38,,adl
2.594253,-0.0397,0.0161,0.1451,0.0011,-0.0149,0.0075,-26.34,-22.8,-4.38,,adl
2.614446,-0.0397,0.0161,0.1451,-0.0016,-0.0133,0.0048,-26.34,-22.8,-4.38,,adl
2.636062,-0.0397,0.0161,0.1451,-0.0016,0.0,0.0043,-26.34,-22.8,-4.38,,adl
2.637137,-0.0397,0.0161,0.1451,-0.0016,0.0,0.0043,-26.46,-22.62,-4.38,,adl
2.651517,-0.0397,0.0161,0.1451,-0.0016,0.0,0.0043,-26.46,-22.62,-4.38,,adl
2.652528,0.0212,0.0093,0.1642,-0.0016,0.0,0.0043,-26.46,-22.62,-4.38,,adl
2.655283,0.0212,0.0093,0.1642,-0.0027,0.0075,0.0,-26.46,-22.62,-4.38,,adl
2.675809,0.0212,0.0093,0.1642,0.0011,0.0027,-0.0011,-26.46,-22.62,-4.38,,adl
2.697511,0.0212,0.0093,0.1642,0.0016,-0.0075,0.0,-26.46,-22.62,-4.38,,adl
2.698622,0.0212,0.0093,0.1642,0.0016,-0.0075,0.0,-26.7,-22.5,-5.04,,adl
2.712958,0.0212,0.0093,0.1642,0.0016,-0.0075,0.0,-26.7,-22.5,-5.04,,adl
2.71375,-0.0117,0.0189,0.1522,0.0016,-0.0075,0.0,-26.7,-22.5,-5.04,,adl
2.716998,-0.0117,0.0189,0.1522,0.0027,-0.0069,-0.0016,-26.7,-22.5,-5.04,,adl
2.737678,-0.0117,0.0189,0.1522,0.0,0.0,-0.0011,-26.7,-22.5,-5.04,,adl
2.758565,-0.0117,0.0189,0.1522,0.0,0.0,-0.0011,-26.7,-22.08,-4.44,,adl
2.759769,-0.0117,0.0189,0.1522,-0.0005,0.0016,0.0027,-26.7,-22.08,-4.44,,adl
2.775669,-0.0117,0.0189,0.1522,-0.0005,0.0016,0.0027,-26.7,-22.08,-4.44,,adl
2.776963,0.004,0.0019,0.1571,-0.0005,0.0016,0.0027,-26.7,-22.08,-4.44,,adl
2.778666,0.004,0.0019,0.1571,0.0,-0.0011,0.0032,-26.7,-22.08,-4.44,,adl
2.8,0.004,0.0019,0.1571,0.0005,-0.0037,0.0032,-26.7,-22.08,-4.44,,adl
2.820252,0.004,0.0019,0.1571,0.0005,-0.0037,0.0032,-26.76,-22.38,-4.92,,adl
2.821438,0.004,0.0019,0.1571,-0.0011,-0.0032,0.0011,-26.76,-22.38,-4.92,,adl
2.836072,0.004,0.0019,0.1571,-0.0011,-0.0032,0.0011,-26.76,-22.38,-4.92,,adl
2.837045,0.0094,0.0164,0.1451,-0.0011,-0.0032,0.0011,-26.76,-22.38,-4.92,,adl
2.841813,0.0094,0.0164,0.1451,0.0011,0.0016,-0.0005,-26.76,-22.38,-4.92,,adl
2.860862,0.0094,0.0164,0.1451,0.0043,0.0037,-0.0021,-26.76,-22.38,-4.92,,adl
2.882756,0.0094,0.0164,0.1451,0.0043,0.0037,-0.0021,-26.64,-22.32,-5.28,,adl
2.884036,0.0094,0.0164,0.1451,0.0005,-0.0021,0.0011,-26.64,-22.32,-5.28,,adl
2.898014,0.0094,0.0164,0.1451,0.0005,-0.0021,0.0011,-26.64,-22.32,-5.28,,adl
2.899113,-0.0043,0.0671,0.1429,0.0005,-0.0021,0.0011,-26.64,-22.32,-5.28,,adl
2.902392,-0.0043,0.0671,0.1429,0.0005,-0.0016,0.0011,-26.64,-22.32,-5.28,,adl
2.922383,-0.0043,0.0671,0.1429,0.0,-0.0064,-0.0005,-26.64,-22.32,-5.28,,adl
2.944174,-0.0043,0.0671,0.1429,0.0,-0.0064,-0.0005,-27.3,-22.74,-4.92,,adl
2.945098,-0.0043,0.0671,0.1429,-0.0016,-0.0037,0.0027,-27.3,-22.74,-4.92,,adl
2.959535,-0.0043,0.0671,0.1429,-0.0016,-0.0037,0.0027,-27.3,-22.74,-4.92,,adl
2.960536,0.0121,-0.0603,0.1427,-0.0016,-0.0037,0.0027,-27.3,-22.74,-4.92,,adl
2.96374,0.0121,-0.0603,0.1427,-0.0075,0.017,0.0016,-27.3,-22.74,-4.92,,adl
2.983824,0.0121,-0.0603,0.1427,-0.0027,0.0176,-0.0011,-27.3,-22.74,-4.92,,adl
3.004657,0.0121,-0.0603,0.1427,-0.0027,0.0176,-0.0011,-27.0,-22.8,-5.1,,adl
3.005651,0.0121,-0.0603,0.1427,0.0005,-0.0011,0.0005,-27.0,-22.8,-5.1,,adl
3.021037,0.0121,-0.0603,0.1427,0.0005,-0.0011,0.0005,-27.0,-22.8,-5.1,,adl
3.021979,-0.0267,0.035,0.1233,0.0005,-0.0011,0.0005,-27.0,-22.8,-5.1,,adl
3.025133,-0.0267,0.035,0.1233,-0.0027,0.0048,-0.0011,-27.0,-22.8,-5.1,,adl
3.045336,-0.0267,0.035,0.1233,-0.0027,0.0096,0.0021,-27.0,-22.8,-5.1,,adl
3.06756,-0.0267,0.035,0.1233,-0.0027,0.0096,0.0021,-27.06,-22.62,-4.86,,adl
3.070517,-0.0267,0.035,0.1233,0.0,-0.0016,0.0005,-27.06,-22.62,-4.86,,adl
3.084084,-0.0267,0.035,0.1233,0.0,-0.0016,0.0005,-27.06,-22.62,-4.86,,adl
3.086038,-0.005,0.0313,0.1567,0.0,-0.0016,0.0005,-27.06,-22.62,-4.86,,adl
3.087568,-0.005,0.0313,0.1567,0.0005,-0.0069,0.0,-27.06,-22.62,-4.86,,adl
3.108639,-0.005,0.0313,0.1567,0.0021,-0.0085,0.0016,-27.06,-22.62,-4.86,,adl
3.128857,-0.005,0.0313,0.1567,0.0021,-0.0085,0.0016,-27.12,-22.62,-4.32,,adl
3.130588,-0.005,0.0313,0.1567,0.0005,-0.0027,0.0021,-27.12,-22.62,-4.32,,adl
3.144674,-0.005,0.0313,0.1567,0.0005,-0.0027,0.0021,-27.12,-22.62,-4.32,,adl
3.146513,0.0033,-0.0215,0.1471,0.0005,-0.0027,0.0021,-27.12,-22.62,-4.32,,adl
3.148337,0.0033,-0.0215,0.1471,0.0016,0.0,0.0,-27.12,-22.62,-4.32,,adl
3.169194,0.0033,-0.0215,0.1471,0.0053,-0.0005,0.0011,-27.12,-22.62,-4.32,,adl
3.190254,0.0033,-0.0215,0.1471,0.0053,-0.0005,0.0011,-26.82,-22.44,-4.56,,adl
3.191627,0.0033,-0.0215,0.1471,0.0043,-0.0059,-0.0011,-26.82,-22.44,-4.56,,adl
3.206185,0.0033,-0.0215,0.1471,0.0043,-0.0059,-0.0011,-26.82,-22.44,-4.56,,adl
3.207268,-0.0076,0.0314,0.1258,0.0043,-0.0059,-0.0011,-26.82,-22.44,-4.56,,adl
3.210255,-0.0076,0.0314,0.1258,0.0037,-0.0085,-0.0005,-26.82,-22.44,-4.56,,adl
3.230252,-0.0076,0.0314,0.1258,0.0021,0.0005,-0.0005,-26.82,-22.44,-4.56,,adl
3.251844,-0.0076,0.0314,0.1258,0.0021,0.0005,-0.0005,-27.18,-22.8,-4.8,,adl
3.252901,-0.0076,0.0314,0.1258,0.0005,0.0,0.0011,-27.18,-22.8,-4.8,,adl
3.267112,-0.0076,0.0314,0.1258,0.0005,0.0,0.0011,-27.18,-22.8,-4.8,,adl
3.268201,-0.0114,0.0135,0.1667,0.0005,0.0,0.0011,-27.18,-22.8,-4.8,,adl
3.271284,-0.0114,0.0135,0.1667,0.0005,-0.0048,0.0011,-27.18,-22.8,-4.8,,adl
3.293102,-0.0114,0.0135,0.1667,-0.0011,-0.0075,0.0011,-27.18,-22.8,-4.8,,adl
3.312882,-0.0114,0.0135,0.1667,-0.0011,-0.0075,0.0011,-26.82,-22.68,-5.04,,adl
3.31432,-0.0114,0.0135,0.1667,0.0027,-0.0043,-0.0005,-26.82,-22.68,-5.04,,adl
3.328884,-0.0114,0.0135,0.1667,0.0027,-0.0043,-0.0005,-26.82,-22.68,-5.04,,adl
3.330397,0.0307,0.0226,0.1356,0.0027,-0.0043,-0.0005,-26.82,-22.68,-5.04,,adl
3.333116,0.0307,0.0226,0.1356,0.0032,0.0005,-0.0005,-26.82,-22.68,-5.04,,adl
3.353711,0.0307,0.0226,0.1356,0.0011,0.0043,-0.0032,-26.82,-22.68,-5.04,,adl
3.375029,0.0307,0.0226,0.1356,0.0011,0.0043,-0.0032,-27.12,-23.04,-5.52,,adl
3.376708,0.0307,0.0226,0.1356,-0.0005,-0.0011,-0.0005,-27.12,-23.04,-5.52,,adl
3.390928,0.0307,0.0226,0.1356,-0.0005,-0.0011,-0.0005,-27.12,-23.04,-5.52,,adl
3.392655,-0.021,-0.0018,0.1716,-0.0005,-0.0011,-0.0005,-27.12,-23.04,-5.52,,adl
3.394757,-0.021,-0.0018,0.1716,0.0005,-0.0064,-0.0011,-27.12,-23.04,-5.52,,adl
3.415754,-0.021,-0.0018,0.1716,0.0021,-0.0032,0.0005,-27.12,-23.04,-5.52,,adl
3.436973,-0.021,-0.0018,0.1716,0.0021,-0.0032,0.0005,-27.24,-23.34,-5.28,,adl
3.438416,-0.021,-0.0018,0.1716,0.0016,0.0032,0.0005,-27.24,-23.34,-5.28,,adl
3.45234,-0.021,-0.0018,0.1716,0.0016,0.0032,0.0005,-27.24,-23.34,-5.28,,adl
3.45381,-0.0031,0.0142,0.1406,0.0016,0.0032,0.0005,-27.24,-23.34,-5.28,,adl
3.455656,-0.0031,0.0142,0.1406,0.0,-0.0011,0.0016,-27.24,-23.34,-5.28,,adl
3.477751,-0.0031,0.0142,0.1406,0.0021,-0.0016,0.0005,-27.24,-23.34,-5.28,,adl
3.497822,-0.0031,0.0142,0.1406,0.0021,-0.0016,0.0005,-26.64,-22.92,-5.22,,adl
3.499132,-0.0031,0.0142,0.1406,0.0011,-0.0011,0.0011,-26.64,-22.92,-5.22,,adl
3.514694,-0.0031,0.0142,0.1406,0.0011,-0.0011,0.0011,-26.64,-22.92,-5.22,,adl
3.516284,0.0246,0.0231,0.1454,0.0011,-0.0011,0.0011,-26.64,-22.92,-5.22,,adl
3.518511,0.0246,0.0231,0.1454,0.0011,-0.0011,0.0005,-26.64,-22.92,-5.22,,adl
3.539019,0.0246,0.0231,0.1454,0.0011,0.0,-0.0011,-26.64,-22.92,-5.22,,adl
3.560113,0.0246,0.0231,0.1454,0.0011,0.0,-0.0011,-26.58,-23.1,-5.1,,adl
3.561696,0.0246,0.0231,0.1454,0.0021,0.0,0.0,-26.58,-23.1,-5.1,,adl
3.576757,0.0246,0.0231,0.1454,0.0021,0.0,0.0,-26.58,-23.1,-5.1,,adl
3.578278,-0.0091,-0.0015,0.1503,0.0021,0.0,0.0,-26.58,-23.1,-5.1,,adl
3.579664,-0.0091,-0.0015,0.1503,0.0021,-0.0011,0.0,-26.58,-23.1,-5.1,,adl
3.60078,-0.0091,-0.0015,0.1503,0.0016,0.0011,0.0011,-26.58,-23.1,-5.1,,adl
3.621651,-0.0091,-0.0015,0.1503,0.0016,0.0011,0.0011,-26.34,-22.92,-4.8,,adl
3.622904,-0.0091,-0.0015,0.1503,-0.0005,-0.0021,0.0005,-26.34,-22.92,-4.8,,adl
3.637864,-0.0091,-0.0015,0.1503,-0.0005,-0.0021,0.0005,-26.34,-22.92,-4.8,,adl
3.639568,-0.0048,0.0122,0.1408,-0.0005,-0.0021,0.0005,-26.34,-22.92,-4.8,,adl
3.643482,-0.0048,0.0122,0.1408,0.0,-0.0032,-0.0011,-26.34,-22.92,-4.8,,adl
3.662065,-0.0048,0.0122,0.1408,0.0,0.0011,0.0016,-26.34,-22.92,-4.8,,adl
3.682931,-0.0048,0.0122,0.1408,0.0,0.0011,0.0016,-26.04,-22.26,-4.68,,adl
3.684237,-0.0048,0.0122,0.1408,-0.0005,-0.0011,0.0011,-26.04,-22.26,-4.68,,adl
3.698365,-0.0048,0.0122,0.1408,-0.0005,-0.0011,0.0011,-26.04,-22.26,-4.68,,adl
3.699472,0.0159,0.0031,0.1623,-0.0005,-0.0011,0.0011,-26.04,-22.26,-4.68,,adl
3.702347,0.0159,0.0031,0.1623,0.0016,-0.0032,-0.0005,-26.04,-22.26,-4.68,,adl
3.723194,0.0159,0.0031,0.1623,0.0016,0.0016,0.0,-26.04,-22.26,-4.68,,adl
3.74499,0.0159,0.0031,0.1623,0.0016,0.0016,0.0,-26.34,-22.56,-4.5,,adl
3.746802,0.0159,0.0031,0.1623,0.0032,0.0037,0.0005,-26.34,-22.56,-4.5,,adl
3.761061,0.0159,0.0031,0.1623,0.0032,0.0037,0.0005,-26.34,-22.56,-4.5,,adl
3.762775,0.0113,0.0495,0.1481,0.0032,0.0037,0.0005,-26.34,-22.56,-4.5,,adl
3.763818,0.0113,0.0495,0.1481,0.0021,-0.0032,-0.0021,-26.34,-22.56,-4.5,,adl
3.78477,0.0113,0.0495,0.1481,-0.0021,-0.0064,0.0011,-26.34,-22.56,-4.5,,adl
3.806914,0.0113,0.0495,0.1481,-0.0021,-0.0064,0.0011,-26.1,-22.5,-4.38,,adl
3.808632,0.0113,0.0495,0.1481,-0.0085,0.0181,-0.0016,-26.1,-22.5,-4.38,,adl
3.821701,0.0113,0.0495,0.1481,-0.0085,0.0181,-0.0016,-26.1,-22.5,-4.38,,adl
3.822955,-0.0037,0.0105,0.191,-0.0085,0.0181,-0.0016,-26.1,-22.5,-4.38,,adl
3.825359,-0.0037,0.0105,0.191,-0.0032,0.0229,-0.0027,-26.1,-22.5,-4.38,,adl
3.846906,-0.0037,0.0105,0.191,0.0011,-0.0011,-0.0011,-26.1,-22.5,-4.38,,adl
3.868153,-0.0037,0.0105,0.191,0.0011,-0.0011,-0.0011,-26.22,-22.92,-4.44,,adl
3.869795,-0.0037,0.0105,0.191,-0.0011,0.0011,0.0005,-26.22,-22.92,-4.44,,adl
3.88413,-0.0037,0.0105,0.191,-0.0011,0.0011,0.0005,-26.22,-22.92,-4.44,,adl
3.885638,0.0033,0.0468,0.1455,-0.0011,0.0011,0.0005,-26.22,-22.92,-4.44,,adl
3.88808,0.0033,0.0468,0.1455,-0.0027,0.0107,0.0037,-26.22,-22.92,-4.44,,adl
3.907495,0.0033,0.0468,0.1455,-0.0032,0.0027,0.0005,-26.22,-22.92,-4.44,,adl
3.929769,0.0033,0.0468,0.1455,-0.0032,0.0027,0.0005,-26.28,-23.1,-4.92,,adl
3.931194,0.0033,0.0468,0.1455,-0.0037,-0.0075,-0.0016,-26.28,-23.1,-4.92,,adl
3.945142,0.0033,0.0468,0.1455,-0.0037,-0.0075,-0.0016,-26.28,-23.1,-4.92,,adl
3.946745,0.0089,-0.0388,0.1523,-0.0037,-0.0075,-0.0016,-26.28,-23.1,-4.92,,adl
3.948573,0.0089,-0.0388,0.1523,-0.0027,-0.0075,0.0011,-26.28,-23.1,-4.92,,adl
3.970129,0.0089,-0.0388,0.1523,0.0027,-0.0048,0.0011,-26.28,-23.1,-4.92,,adl
3.991713,0.0089,-0.0388,0.1523,0.0027,-0.0048,0.0011,-25.86,-23.04,-5.28,,adl
3.993417,0.0089,-0.0388,0.1523,0.0053,0.0048,0.0,-25.86,-23.04,-5.28,,adl
4.007598,0.0089,-0.0388,0.1523,0.0053,0.0048,0.0,-25.86,-23.04,-5.28,,adl
4.009238,-0.0023,-0.0146,0.145,0.0053,0.0048,0.0,-25.86,-23.04,-5.28,,adl
4.010539,-0.0023,-0.0146,0.145,0.0053,0.0064,-0.0011,-25.86,-23.04,-5.28,,adl
4.031946,-0.0023,-0.0146,0.145,0.0043,-0.0069,0.0,-25.86,-23.04,-5.28,,adl
4.05332,-0.0023,-0.0146,0.145,0.0043,-0.0069,0.0,-26.28,-23.22,-4.98,,adl
4.054882,-0.0023,-0.0146,0.145,0.0021,-0.0107,-0.0005,-26.28,-23.22,-4.98,,adl
4.069216,-0.0023,-0.0146,0.145,0.0021,-0.0107,-0.0005,-26.28,-23.22,-4.98,,adl
4.070612,-0.0069,0.0263,0.1334,0.0021,-0.0107,-0.0005,-26.28,-23.22,-4.98,,adl
4.07162,-0.0069,0.0263,0.1334,0.0005,-0.0005,0.0005,-26.28,-23.22,-4.98,,adl
4.094055,-0.0069,0.0263,0.1334,0.0011,0.0011,0.0016,-26.28,-23.22,-4.98,,adl
4.114621,-0.0069,0.0263,0.1334,0.0011,0.0011,0.0016,-25.86,-22.5,-4.86,,adl
4.116343,-0.0069,0.0263,0.1334,0.0027,-0.0043,0.0,-25.86,-22.5,-4.86,,adl
4.129839,-0.0069,0.0263,0.1334,0.0027,-0.0043,0.0,-25.86,-22.5,-4.86,,adl
4.131542,-0.0004,-0.0005,0.1669,0.0027,-0.0043,0.0,-25.86,-22.5,-4.86,,adl
4.133499,-0.0004,-0.0005,0.1669,0.0043,-0.0037,0.0,-25.86,-22.5,-4.86,,adl
4.15551,-0.0004,-0.0005,0.1669,0.0032,-0.0011,-0.0016,-25.86,-22.5,-4.86,,adl
4.175595,-0.0004,-0.0005,0.1669,0.0021,0.0021,-0.0027,-25.86,-22.5,-4.86,,adl
4.177067,-0.0004,-0.0005,0.1669,0.0021,0.0021,-0.0027,-25.8,-22.38,-4.56,,adl
4.192745,-0.0004,-0.0005,0.1669,0.0021,0.0021,-0.0027,-25.8,-22.38,-4.56,,adl
4.194375,0.0015,-0.0041,0.1408,0.0021,0.0021,-0.0027,-25.8,-22.38,-4.56,,adl
4.19521,0.0015,-0.0041,0.1408,-0.0005,0.0027,-0.0027,-25.8,-22.38,-4.56,,adl
4.216517,0.0015,-0.0041,0.1408,-0.0016,-0.0016,-0.0021,-25.8,-22.38,-4.56,,adl
4.237646,0.0015,-0.0041,0.1408,-0.0016,-0.0016,-0.0021,-26.04,-22.26,-4.26,,adl
4.239161,0.0015,-0.0041,0.1408,-0.0005,-0.0037,-0.0005,-26.04,-22.26,-4.26,,adl
4.253949,0.0015,-0.0041,0.1408,-0.0005,-0.0037,-0.0005,-26.04,-22.26,-4.26,,adl
4.255772,-0.0036,0.0252,0.1598,-0.0005,-0.0037,-0.0005,-26.04,-22.26,-4.26,,adl
4.256714,-0.0036,0.0252,0.1598,0.0016,-0.0021,0.0005,-26.04,-22.26,-4.26,,adl
4.278078,-0.0036,0.0252,0.1598,0.0048,0.0011,0.0011,-26.04,-22.26,-4.26,,adl
4.299076,-0.0036,0.0252,0.1598,0.0048,0.0011,0.0011,-26.1,-22.26,-4.68,,adl
4.30087,-0.0036,0.0252,0.1598,0.0016,0.0011,0.0011,-26.1,-22.26,-4.68,,adl
4.314766,-0.0036,0.0252,0.1598,0.0016,0.0011,0.0011,-26.1,-22.26,-4.68,,adl
4.316343,0.0058,0.0023,0.1361,0.0016,0.0011,0.0011,-26.1,-22.26,-4.68,,adl
4.318944,0.0058,0.0023,0.1361,0.0005,0.0,0.0,-26.1,-22.26,-4.68,,adl
4.339944,0.0058,0.0023,0.1361,-0.0005,-0.0021,0.0,-26.1,-22.26,-4.68,,adl
4.360621,0.0058,0.0023,0.1361,-0.0005,-0.0021,0.0,-26.82,-22.62,-4.8,,adl
4.362137,0.0058,0.0023,0.1361,0.0016,-0.0032,-0.0011,-26.82,-22.62,-4.8,,adl
4.384816,0.0058,0.0023,0.1361,0.0016,-0.0032,-0.0011,-26.82,-22.62,-4.8,,adl
4.385958,0.0024,0.007,0.1672,0.0016,-0.0032,-0.0011,-26.82,-22.62,-4.8,,adl
4.386602,0.0024,0.007,0.1672,0.0016,-0.0005,-0.0027,-26.82,-22.62,-4.8,,adl
4.401996,0.0024,0.007,0.1672,0.0037,0.0032,-0.0021,-26.82,-22.62,-4.8,,adl
4.422431,0.0024,0.007,0.1672,0.0037,0.0032,-0.0021,-26.7,-22.74,-4.8,,adl
4.423508,0.0024,0.007,0.1672,0.0021,0.0005,-0.0005,-26.7,-22.74,-4.8,,adl
4.438509,0.0024,0.007,0.1672,0.0021,0.0005,-0.0005,-26.7,-22.74,-4.8,,adl
4.440169,-0.0158,0.0129,0.1291,0.0021,0.0005,-0.0005,-26.7,-22.74,-4.8,,adl
4.443995,-0.0158,0.0129,0.1291,0.0005,-0.0005,0.0011,-26.7,-22.74,-4.8,,adl
4.463957,-0.0158,0.0129,0.1291,-0.0027,-0.0021,0.0011,-26.7,-22.74,-4.8,,adl
4.483582,-0.0158,0.0129,0.1291,-0.0027,-0.0021,0.0011,-26.82,-22.44,-4.98,,adl
4.485041,-0.0158,0.0129,0.1291,0.0,-0.0043,0.0005,-26.82,-22.44,-4.98,,adl
4.500136,-0.0158,0.0129,0.1291,0.0,-0.0043,0.0005,-26.82,-22.44,-4.98,,adl
4.501634,0.0043,0.0063,0.1601,0.0,-0.0043,0.0005,-26.82,-22.44,-4.98,,adl
4.502778,0.0043,0.0063,0.1601,0.0005,-0.0016,-0.0011,-26.82,-22.44,-4.98,,adl
4.522888,0.0043,0.0063,0.1601,0.0032,0.0021,-0.0011,-26.82,-22.44,-4.98,,adl
4.545266,0.0043,0.0063,0.1601,0.0032,0.0021,-0.0011,-26.64,-21.96,-5.16,,adl
4.546821,0.0043,0.0063,0.1601,0.0,0.0,-0.0016,-26.64,-21.96,-5.16,,adl
4.562373,0.0043,0.0063,0.1601,0.0,0.0,-0.0016,-26.64,-21.96,-5.16,,adl
4.563935,0.0186,0.0035,0.1362,0.0,0.0,-0.0016,-26.64,-21.96,-5.16,,adl
4.564942,0.0186,0.0035,0.1362,0.0005,-0.0016,0.0,-26.64,-21.96,-5.16,,adl
4.584918,0.0186,0.0035,0.1362,0.0011,-0.0021,-0.0016,-26.64,-21.96,-5.16,,adl
4.605842,0.0186,0.0035,0.1362,0.0011,-0.0021,-0.0016,-26.1,-21.96,-5.52,,adl
4.607188,0.0186,0.0035,0.1362,0.0005,0.0,-0.0005,-26.1,-21.96,-5.52,,adl
4.622221,0.0186,0.0035,0.1362,0.0005,0.0,-0.0005,-26.1,-21.96,-5.52,,adl
4.623113,0.0082,0.0578,0.1459,0.0005,0.0,-0.0005,-26.1,-21.96,-5.52,,adl
4.626173,0.0082,0.0578,0.1459,-0.0016,0.0011,0.0005,-26.1,-21.96,-5.52,,adl
4.646163,0.0082,0.0578,0.1459,0.0,-0.0069,0.0,-26.1,-21.96,-5.52,,adl
4.668164,0.0082,0.0578,0.1459,0.0,-0.0069,0.0,-26.1,-21.96,-5.58,,adl
4.669647,0.0082,0.0578,0.1459,-0.0011,-0.0032,0.0011,-26.1,-21.96,-5.58,,adl
4.683554,0.0082,0.0578,0.1459,-0.0011,-0.0032,0.0011,-26.1,-21.96,-5.58,,adl
4.684793,0.0082,-0.0614,0.1551,-0.0011,-0.0032,0.0011,-26.1,-21.96,-5.58,,adl
4.687045,0.0082,-0.0614,0.1551,-0.0085,0.0245,0.0005,-26.1,-21.96,-5.58,,adl
4.708817,0.0082,-0.0614,0.1551,-0.0032,0.017,-0.0021,-26.1,-21.96,-5.58,,adl
4.729078,0.0082,-0.0614,0.1551,-0.0032,0.017,-0.0021,-26.34,-22.2,-5.76,,adl
4.730181,0.0082,-0.0614,0.1551,-0.0016,-0.0037,-0.0021,-26.34,-22.2,-5.76,,adl
4.744722,0.0082,-0.0614,0.1551,-0.0016,-0.0037,-0.0021,-26.34,-22.2,-5.76,,adl
4.745133,-0.0272,0.0252,0.126,-0.0016,-0.0037,-0.0021,-26.34,-22.2,-5.76,,adl
4.748602,-0.0272,0.0252,0.126,-0.0048,0.0053,0.0005,-26.34,-22.2,-5.76,,adl
4.769613,-0.0272,0.0252,0.126,-0.0021,0.0112,0.0037,-26.34,-22.2,-5.76,,adl
4.790962,-0.0272,0.0252,0.126,-0.0021,0.0112,0.0037,-26.46,-22.38,-5.46,,adl
4.792447,-0.0272,0.0252,0.126,-0.0005,0.0016,0.0005,-26.46,-22.38,-5.46,,adl
4.806824,-0.0272,0.0252,0.126,-0.0005,0.0016,0.0005,-26.46,-22.38,-5.46,,adl
4.807833,0.0097,-0.0133,0.1545,-0.0005,0.0016,0.0005,-26.46,-22.38,-5.46,,adl
4.810546,0.0097,-0.0133,0.1545,-0.0032,-0.0059,0.0,-26.46,-22.38,-5.46,,adl
4.831266,0.0097,-0.0133,0.1545,0.0016,-0.0069,0.0,-26.46,-22.38,-5.46,,adl
4.852374,0.0097,-0.0133,0.1545,0.0016,-0.0069,0.0,-26.46,-22.26,-5.4,,adl
4.853638,0.0097,-0.0133,0.1545,0.0043,0.0,0.0,-26.46,-22.26,-5.4,,adl
4.868415,0.0097,-0.0133,0.1545,0.0043,0.0,0.0,-26.46,-22.26,-5.4,,adl
4.869701,0.0162,-0.0238,0.1471,0.0043,0.0,0.0,-26.46,-22.26,-5.4,,adl
4.872534,0.0162,-0.0238,0.1471,0.0032,0.0085,-0.0016,-26.46,-22.26,-5.4,,adl
4.892635,0.0162,-0.0238,0.1471,0.0032,0.0005,-0.0005,-26.46,-22.26,-5.4,,adl
4.913554,0.0162,-0.0238,0.1471,0.0032,0.0005,-0.0005,-26.52,-21.96,-5.52,,adl
4.914022,0.0162,-0.0238,0.1471,0.0059,-0.0117,-0.0021,-26.52,-21.96,-5.52,,adl
4.929509,0.0162,-0.0238,0.1471,0.0059,-0.0117,-0.0021,-26.52,-21.96,-5.52,,adl
4.929934,-0.0249,0.0431,0.1306,0.0059,-0.0117,-0.0021,-26.52,-21.96,-5.52,,adl
4.933018,-0.0249,0.0431,0.1306,0.0005,-0.0096,0.0,-26.52,-21.96,-5.52,,adl
4.954697,-0.0249,0.0431,0.1306,-0.0021,0.0021,0.0016,-26.52,-21.96,-5.52,,adl
4.975485,-0.0249,0.0431,0.1306,-0.0021,0.0021,0.0016,-26.34,-21.9,-5.58,,adl
4.976755,-0.0249,0.0431,0.1306,0.0011,-0.0021,0.0016,-26.34,-21.9,-5.58,,adl
4.991796,-0.0249,0.0431,0.1306,0.0011,-0.0021,0.0016,-26.34,-21.9,-5.58,,adl
4.993,-0.0146,0.0075,0.1713,0.0011,-0.0021,0.0016,-26.34,-21.9,-5.58,,adl
4.995803,-0.0146,0.0075,0.1713,0.0027,-0.0075,0.0,-26.34,-21.9,-5.58,,adl
5.015608,-0.0146,0.0075,0.1713,0.0043,-0.0032,0.0005,-26.34,-21.9,-5.58,,adl
5.036984,-0.0146,0.0075,0.1713,0.0043,-0.0032,0.0005,-26.46,-22.08,-5.64,,adl
5.037434,-0.0146,0.0075,0.1713,0.0005,0.0011,-0.0016,-26.46,-22.08,-5.64,,adl
5.053002,-0.0146,0.0075,0.1713,0.0005,0.0011,-0.0016,-26.46,-22.08,-5.64,,adl
5.054244,0.0359,0.03,0.1308,0.0005,0.0011,-0.0016,-26.46,-22.08,-5.64,,adl
5.056743,0.0359,0.03,0.1308,0.0021,0.0027,-0.0011,-26.46,-22.08,-5.64,,adl
5.077619,0.0359,0.03,0.1308,0.0011,0.0027,-0.0032,-26.46,-22.08,-5.64,,adl
5.098999,0.0359,0.03,0.1308,0.0011,0.0027,-0.0032,-27.12,-22.38,-5.52,,adl
5.10146,0.0359,0.03,0.1308,-0.0016,-0.0021,-0.0021,-27.12,-22.38,-5.52,,adl
5.116873,0.0359,0.03,0.1308,-0.0016,-0.0021,-0.0021,-27.12,-22.38,-5.52,,adl
5.119158,-0.0231,0.0177,0.1811,-0.0016,-0.0021,-0.0021,-27.12,-22.38,-5.52,,adl
5.120091,-0.0231,0.0177,0.1811,0.0021,-0.0048,0.0,-27.12,-22.38,-5.52,,adl
5.13959,-0.0231,0.0177,0.1811,0.0011,-0.0032,0.0005,-27.12,-22.38,-5.52,,adl
5.161219,-0.0231,0.0177,0.1811,0.0011,-0.0032,0.0005,-26.82,-22.62,-5.58,,adl
5.163797,-0.0231,0.0177,0.1811,0.0016,0.0016,0.0032,-26.82,-22.62,-5.58,,adl
5.178316,-0.0231,0.0177,0.1811,0.0016,0.0016,0.0032,-26.82,-22.62,-5.58,,adl
5.181523,-0.003,0.0143,0.1286,0.0016,0.0016,0.0032,-26.82,-22.62,-5.58,,adl
5.182899,-0.003,0.0143,0.1286,0.0011,0.0016,0.0016,-26.82,-22.62,-5.58,,adl
5.20103,-0.003,0.0143,0.1286,0.0011,-0.0032,0.0021,-26.82,-22.62,-5.58,,adl
5.221876,-0.003,0.0143,0.1286,0.0011,-0.0032,0.0021,-27.06,-23.22,-5.28,,adl
5.223706,-0.003,0.0143,0.1286,0.0016,-0.0059,-0.0005,-27.06,-23.22,-5.28,,adl
5.238607,-0.003,0.0143,0.1286,0.0016,-0.0059,-0.0005,-27.06,-23.22,-5.28,,adl
5.242235,0.0146,0.0018,0.1478,0.0016,-0.0059,-0.0005,-27.06,-23.22,-5.28,,adl
5.244054,0.0146,0.0018,0.1478,0.0016,0.0005,-0.0021,-27.06,-23.22,-5.28,,adl
5.262688,0.0146,0.0018,0.1478,0.0032,0.0027,-0.0021,-27.06,-23.22,-5.28,,adl
5.284094,0.0146,0.0018,0.1478,0.0032,0.0027,-0.0021,-26.58,-22.74,-5.58,,adl
5.285932,0.0146,0.0018,0.1478,0.0037,0.0021,-0.0032,-26.58,-22.74,-5.58,,adl
5.300053,0.0146,0.0018,0.1478,0.0037,0.0021,-0.0032,-26.58,-22.74,-5.58,,adl
5.301926,-0.0222,-0.0088,0.1431,0.0037,0.0021,-0.0032,-26.58,-22.74,-5.58,,adl
5.303324,-0.0222,-0.0088,0.1431,0.0011,-0.0037,0.0005,-26.58,-22.74,-5.58,,adl
5.324165,-0.0222,-0.0088,0.1431,-0.0011,-0.0027,0.0011,-26.58,-22.74,-5.58,,adl
5.344964,-0.0222,-0.0088,0.1431,-0.0011,-0.0027,0.0011,-26.28,-22.74,-5.34,,adl
5.346625,-0.0222,-0.0088,0.1431,-0.0011,-0.0037,0.0032,-26.28,-22.74,-5.34,,adl
5.361572,-0.0222,-0.0088,0.1431,-0.0011,-0.0037,0.0032,-26.28,-22.74,-5.34,,adl
5.364343,0.0163,0.018,0.1575,-0.0011,-0.0037,0.0032,-26.28,-22.74,-5.34,,adl
5.366132,0.0163,0.018,0.1575,-0.0016,-0.0021,-0.0005,-26.28,-22.74,-5.34,,adl
5.385988,0.0163,0.018,0.1575,0.0011,0.0016,-0.0021,-26.28,-22.74,-5.34,,adl
5.408023,0.0163,0.018,0.1575,0.0011,0.0016,-0.0021,-26.64,-22.68,-5.52,,adl
5.410786,0.0163,0.018,0.1575,0.0021,0.0032,-0.0021,-26.64,-22.68,-5.52,,adl
5.424248,0.0163,0.018,0.1575,0.0021,0.0032,-0.0021,-26.64,-22.68,-5.52,,adl
5.426451,-0.0046,0.02,0.1575,0.0021,0.0032,-0.0021,-26.64,-22.68,-5.52,,adl
5.428461,-0.0046,0.02,0.1575,0.0027,0.0,-0.0032,-26.64,-22.68,-5.52,,adl
5.447876,-0.0046,0.02,0.1575,0.0032,-0.0005,-0.0005,-26.64,-22.68,-5.52,,adl
5.468591,-0.0046,0.02,0.1575,0.0032,-0.0005,-0.0005,-26.22,-22.32,-5.58,,adl
5.471731,-0.0046,0.02,0.1575,0.0005,0.0011,-0.0016,-26.22,-22.32,-5.58,,adl
5.484787,-0.0046,0.02,0.1575,0.0005,0.0011,-0.0016,-26.22,-22.32,-5.58,,adl
5.486934,-0.009,-0.0071,0.1552,0.0005,0.0011,-0.0016,-26.22,-22.32,-5.58,,adl
5.488758,-0.009,-0.0071,0.1552,0.0005,0.0,-0.0027,-26.22,-22.32,-5.58,,adl
5.508755,-0.009,-0.0071,0.1552,-0.0005,-0.0043,0.0005,-26.22,-22.32,-5.58,,adl
5.530842,-0.009,-0.0071,0.1552,-0.0005,-0.0043,0.0005,-26.58,-22.38,-4.98,,adl
5.533171,-0.009,-0.0071,0.1552,0.0016,-0.0011,0.0016,-26.58,-22.38,-4.98,,adl
5.546091,-0.009,-0.0071,0.1552,0.0016,-0.0011,0.0016,-26.58,-22.38,-4.98,,adl
5.547931,0.0232,0.0686,0.1481,0.0016,-0.0011,0.0016,-26.58,-22.38,-4.98,,adl
5.549155,0.0232,0.0686,0.1481,0.0027,-0.0016,0.0,-26.58,-22.38,-4.98,,adl
5.570517,0.0232,0.0686,0.1481,-0.0032,-0.0064,-0.0021,-26.58,-22.38,-4.98,,adl
5.592102,0.0232,0.0686,0.1481,-0.0032,-0.0064,-0.0021,-26.28,-22.32,-5.22,,adl
5.59511,0.0232,0.0686,0.1481,-0.0053,0.0107,-0.0021,-26.28,-22.32,-5.22,,adl
5.609942,0.0232,0.0686,0.1481,-0.0053,0.0107,-0.0021,-26.28,-22.32,-5.22,,adl
5.612364,-0.0049,0.0147,0.1863,-0.0053,0.0107,-0.0021,-26.28,-22.32,-5.22,,adl
5.614026,-0.0049,0.0147,0.1863,-0.0043,0.0245,-0.0021,-26.28,-22.32,-5.22,,adl
5.631932,-0.0049,0.0147,0.1863,0.0005,0.0032,-0.0021,-26.28,-22.32,-5.22,,adl
5.654238,-0.0049,0.0147,0.1863,0.0005,0.0032,-0.0021,-26.16,-22.68,-4.74,,adl
5.655982,-0.0049,0.0147,0.1863,-0.0016,-0.0005,-0.0005,-26.16,-22.68,-4.74,,adl
5.670387,-0.0049,0.0147,0.1863,-0.0016,-0.0005,-0.0005,-26.16,-22.68,-4.74,,adl
5.672137,-0.0136,0.0464,0.1312,-0.0016,-0.0005,-0.0005,-26.16,-22.68,-4.74,,adl
5.673535,-0.0136,0.0464,0.1312,-0.0005,0.0117,0.0,-26.16,-22.68,-4.74,,adl
5.695097,-0.0136,0.0464,0.1312,-0.0032,0.0075,0.0005,-26.16,-22.68,-4.74,,adl
5.715798,-0.0136,0.0464,0.1312,-0.0032,0.0075,0.0005,-25.86,-22.5,-4.8,,adl
5.717239,-0.0136,0.0464,0.1312,-0.0037,-0.0059,-0.0016,-25.86,-22.5,-4.8,,adl
5.732158,-0.0136,0.0464,0.1312,-0.0037,-0.0059,-0.0016,-25.86,-22.5,-4.8,,adl
5.733711,0.0057,-0.0305,0.1548,-0.0037,-0.0059,-0.0016,-25.86,-22.5,-4.8,,adl
5.736565,0.0057,-0.0305,0.1548,0.0,-0.008,-0.0011,-25.86,-22.5,-4.8,,adl
5.755929,0.0057,-0.0305,0.1548,0.0005,-0.0032,0.0,-25.86,-22.5,-4.8,,adl
5.777188,0.0057,-0.0305,0.1548,0.0005,-0.0032,0.0,-25.8,-22.92,-5.4,,adl
5.778654,0.0057,-0.0305,0.1548,0.0032,0.0048,-0.0016,-25.8,-22.92,-5.4,,adl
5.794267,0.0057,-0.0305,0.1548,0.0032,0.0048,-0.0016,-25.8,-22.92,-5.4,,adl
5.79574,0.0067,-0.027,0.1451,0.0032,0.0048,-0.0016,-25.8,-22.92,-5.4,,adl
5.796589,0.0067,-0.027,0.1451,0.0037,0.0075,-0.0016,-25.8,-22.92,-5.4,,adl
5.817818,0.0067,-0.027,0.1451,0.0053,-0.0037,-0.0016,-25.8,-22.92,-5.4,,adl
5.838726,0.0067,-0.027,0.1451,0.0053,-0.0037,-0.0016,-26.16,-22.86,-5.58,,adl
5.840612,0.0067,-0.027,0.1451,0.0048,-0.0133,-0.0011,-26.16,-22.86,-5.58,,adl
5.854587,0.0067,-0.027,0.1451,0.0048,-0.0133,-0.0011,-26.16,-22.86,-5.58,,adl
5.85562,-0.0094,0.0185,0.1406,0.0048,-0.0133,-0.0011,-26.16,-22.86,-5.58,,adl
5.857914,-0.0094,0.0185,0.1406,-0.0011,-0.0043,-0.0005,-26.16,-22.86,-5.58,,adl
5.87961,-0.0094,0.0185,0.1406,0.0005,0.0011,0.0011,-26.16,-22.86,-5.58,,adl
5.901045,-0.0094,0.0185,0.1406,0.0005,0.0011,0.0011,-26.22,-22.5,-6.0,,adl
5.902532,-0.0094,0.0185,0.1406,0.0011,-0.0037,0.0005,-26.22,-22.5,-6.0,,adl
5.916966,-0.0094,0.0185,0.1406,0.0011,-0.0037,0.0005,-26.22,-22.5,-6.0,,adl
5.91881,-0.0012,0.0232,0.155,0.0011,-0.0037,0.0005,-26.22,-22.5,-6.0,,adl
5.919661,-0.0012,0.0232,0.155,0.0016,-0.0048,-0.0011,-26.22,-22.5,-6.0,,adl
5.939606,-0.0012,0.0232,0.155,0.0021,-0.0011,-0.0032,-26.22,-22.5,-6.0,,adl
5.960628,-0.0012,0.0232,0.155,0.0021,-0.0011,-0.0032,-27.24,-22.92,-5.82,,adl
5.961439,-0.0012,0.0232,0.155,0.0027,0.0005,-0.0037,-27.24,-22.92,-5.82,,adl
5.976783,-0.0012,0.0232,0.155,0.0027,0.0005,-0.0037,-27.24,-22.92,-5.82,,adl
5.977271,0.0214,-0.0178,0.1431,0.0027,0.0005,-0.0037,-27.24,-22.92,-5.82,,adl
5.980559,0.0214,-0.0178,0.1431,-0.0005,0.0011,-0.0043,-27.24,-22.92,-5.82,,adl
6.001244,0.0214,-0.0178,0.1431,0.0,0.0032,-0.0032,-27.24,-22.92,-5.82,,adl
6.022871,0.0214,-0.0178,0.1431,0.0,0.0032,-0.0032,-26.94,-22.62,-5.7,,adl
6.023968,0.0214,-0.0178,0.1431,0.0005,-0.0011,-0.0005,-26.94,-22.62,-5.7,,adl
6.039112,0.0214,-0.0178,0.1431,0.0005,-0.0011,-0.0005,-26.94,-22.62,-5.7,,adl
6.039777,0.0006,0.0137,0.1789,0.0005,-0.0011,-0.0005,-26.94,-22.62,-5.7,,adl
6.041779,0.0006,0.0137,0.1789,0.0016,-0.0037,-0.0027,-26.94,-22.62,-5.7,,adl
6.063654,0.0006,0.0137,0.1789,0.0027,0.0,-0.0021,-26.94,-22.62,-5.7,,adl
6.08509,0.0006,0.0137,0.1789,0.0027,0.0,-0.0021,-26.52,-22.8,-5.46,,adl
6.086584,0.0006,0.0137,0.1789,0.0016,0.0037,-0.0016,-26.52,-22.8,-5.46,,adl
6.10108,0.0006,0.0137,0.1789,0.0016,0.0037,-0.0016,-26.52,-22.8,-5.46,,adl
6.102636,-0.004,0.0293,0.1528,0.0016,0.0037,-0.0016,-26.52,-22.8,-5.46,,adl
6.10458,-0.004,0.0293,0.1528,-0.0016,0.0005,0.0,-26.52,-22.8,-5.46,,adl
6.124923,-0.004,0.0293,0.1528,0.0011,-0.0043,-0.0005,-26.52,-22.8,-5.46,,adl
6.146957,-0.004,0.0293,0.1528,0.0011,-0.0043,-0.0005,-26.46,-22.8,-5.1,,adl
6.148558,-0.004,0.0293,0.1528,0.0005,-0.0005,-0.0011,-26.46,-22.8,-5.1,,adl
6.163056,-0.004,0.0293,0.1528,0.0005,-0.0005,-0.0011,-26.46,-22.8,-5.1,,adl
6.164777,0.0023,0.0008,0.1455,0.0005,-0.0005,-0.0011,-26.46,-22.8,-5.1,,adl
6.165663,0.0023,0.0008,0.1455,0.0027,0.0053,-0.0032,-26.46,-22.8,-5.1,,adl
6.18704,0.0023,0.0008,0.1455,0.0021,0.0043,-0.0016,-26.46,-22.8,-5.1,,adl
6.208931,0.0023,0.0008,0.1455,0.0021,0.0043,-0.0016,-25.68,-22.56,-5.16,,adl
6.210488,0.0023,0.0008,0.1455,0.0032,0.0011,-0.0027,-25.68,-22.56,-5.16,,adl
6.224844,0.0023,0.0008,0.1455,0.0032,0.0011,-0.0027,-25.68,-22.56,-5.16,,adl
6.225834,-0.0073,0.0043,0.1577,0.0032,0.0011,-0.0027,-25.68,-22.56,-5.16,,adl
6.230229,-0.0073,0.0043,0.1577,0.0027,0.0005,-0.0016,-25.68,-22.56,-5.16,,adl
6.248741,-0.0073,0.0043,0.1577,-0.0005,0.0032,-0.0027,-25.68,-22.56,-5.16,,adl
6.270117,-0.0073,0.0043,0.1577,-0.0005,0.0032,-0.0027,-25.98,-22.38,-4.92,,adl
6.271652,-0.0073,0.0043,0.1577,0.0005,0.0021,-0.0027,-25.98,-22.38,-4.92,,adl
6.285919,-0.0073,0.0043,0.1577,0.0005,0.0021,-0.0027,-25.98,-22.38,-4.92,,adl
6.28722,-0.0059,0.023,0.153,0.0005,0.0021,-0.0027,-25.98,-22.38,-4.92,,adl
6.288315,-0.0059,0.023,0.153,-0.0021,0.0005,-0.0011,-25.98,-22.38,-4.92,,adl
6.312103,-0.0059,0.023,0.153,0.0,-0.0005,-0.0011,-25.98,-22.38,-4.92,,adl
6.331795,-0.0059,0.023,0.153,0.0,-0.0005,-0.0011,-26.16,-22.14,-4.98,,adl
6.333441,-0.0059,0.023,0.153,0.0005,0.0032,-0.0016,-26.16,-22.14,-4.98,,adl
6.347684,-0.0059,0.023,0.153,0.0005,0.0032,-0.0016,-26.16,-22.14,-4.98,,adl
6.349408,0.0067,0.0019,0.1457,0.0005,0.0032,-0.0016,-26.16,-22.14,-4.98,,adl
6.350455,0.0067,0.0019,0.1457,0.0,0.0027,-0.0011,-26.16,-22.14,-4.98,,adl
6.371987,0.0067,0.0019,0.1457,0.0021,0.0032,-0.0005,-26.16,-22.14,-4.98,,adl
6.393577,0.0067,0.0019,0.1457,0.0021,0.0032,-0.0005,-26.22,-22.2,-5.22,,adl
6.395191,0.0067,0.0019,0.1457,0.0011,0.0005,0.0,-26.22,-22.2,-5.22,,adl
6.410541,0.0067,0.0019,0.1457,0.0011,0.0005,0.0,-26.22,-22.2,-5.22,,adl
6.412203,-0.0111,0.03,0.1602,0.0011,0.0005,0.0,-26.22,-22.2,-5.22,,adl
6.41312,-0.0111,0.03,0.1602,0.0005,0.0011,0.0,-26.22,-22.2,-5.22,,adl
6.434687,-0.0111,0.03,0.1602,0.0027,0.0016,0.0005,-26.22,-22.2,-5.22,,adl
6.454629,-0.0111,0.03,0.1602,0.0027,0.0016,0.0005,-26.4,-22.56,-5.22,,adl
6.456374,-0.0111,0.03,0.1602,0.0,-0.0027,-0.0011,-26.4,-22.56,-5.22,,adl
6.470875,-0.0111,0.03,0.1602,0.0,-0.0027,-0.0011,-26.4,-22.56,-5.22,,adl
6.472492,-0.0034,-0.1056,0.1567,0.0,-0.0027,-0.0011,-26.4,-22.56,-5.22,,adl
6.476602,-0.0034,-0.1056,0.1567,-0.0027,0.0048,-0.0005,-26.4,-22.56,-5.22,,adl
6.494465,-0.0034,-0.1056,0.1567,-0.0064,0.0224,0.0005,-26.4,-22.56,-5.22,,adl
6.516111,-0.0034,-0.1056,0.1567,-0.0064,0.0224,0.0005,-26.4,-22.92,-4.86,,adl
6.517607,-0.0034,-0.1056,0.1567,-0.0016,0.0144,-0.0037,-26.4,-22.92,-4.86,,adl
6.53189,-0.0034,-0.1056,0.1567,-0.0016,0.0144,-0.0037,-26.4,-22.92,-4.86,,adl
6.533393,-0.0352,0.0618,0.1181,-0.0016,0.0144,-0.0037,-26.4,-22.92,-4.86,,adl
6.535798,-0.0352,0.0618,0.1181,0.0005,-0.0021,-0.0021,-26.4,-22.92,-4.86,,adl
6.556195,-0.0352,0.0618,0.1181,-0.0053,0.0112,0.0021,-26.4,-22.92,-4.86,,adl
6.577499,-0.0352,0.0618,0.1181,-0.0053,0.0112,0.0021,-26.52,-23.04,-4.68,,adl
6.578839,-0.0352,0.0618,0.1181,-0.0048,0.0112,0.0032,-26.52,-23.04,-4.68,,adl
6.594867,-0.0352,0.0618,0.1181,-0.0048,0.0112,0.0032,-26.52,-23.04,-4.68,,adl
6.596503,0.04,0.0512,0.1682,-0.0048,0.0112,0.0032,-26.52,-23.04,-4.68,,adl
6.598019,0.04,0.0512,0.1682,-0.0059,-0.0043,-0.0016,-26.52,-23.04,-4.68,,adl
6.618116,0.04,0.0512,0.1682,0.0005,-0.0112,-0.0011,-26.52,-23.04,-4.68,,adl
6.639706,0.04,0.0512,0.1682,0.0005,-0.0112,-0.0011,-26.7,-23.16,-4.38,,adl
6.641378,0.04,0.0512,0.1682,0.0053,-0.0048,0.0005,-26.7,-23.16,-4.38,,adl
6.655253,0.04,0.0512,0.1682,0.0053,-0.0048,0.0005,-26.7,-23.16,-4.38,,adl
6.656304,0.0161,-0.0409,0.137,0.0053,-0.0048,0.0005,-26.7,-23.16,-4.38,,adl
6.659737,0.0161,-0.0409,0.137,0.0005,0.0048,0.0011,-26.7,-23.16,-4.38,,adl
6.679745,0.0161,-0.0409,0.137,0.0016,0.0069,0.0011,-26.7,-23.16,-4.38,,adl
6.700861,0.0161,-0.0409,0.137,0.0016,0.0069,0.0011,-26.82,-22.98,-4.68,,adl
6.702367,0.0161,-0.0409,0.137,0.0048,-0.0048,-0.0011,-26.82,-22.98,-4.68,,adl
6.717196,0.0161,-0.0409,0.137,0.0048,-0.0048,-0.0011,-26.82,-22.98,-4.68,,adl
6.718718,-0.0397,0.0367,0.1491,0.0048,-0.0048,-0.0011,-26.82,-22.98,-4.68,,adl
6.71996,-0.0397,0.0367,0.1491,0.0043,-0.0165,0.0,-26.82,-22.98,-4.68,,adl
6.740878,-0.0397,0.0367,0.1491,0.0005,-0.0016,0.0027,-26.82,-22.98,-4.68,,adl
6.762647,-0.0397,0.0367,0.1491,0.0005,-0.0016,0.0027,-26.7,-22.86,-4.92,,adl
6.764296,-0.0397,0.0367,0.1491,0.0005,0.0053,0.0027,-26.7,-22.86,-4.92,,adl
6.779064,-0.0397,0.0367,0.1491,0.0005,0.0053,0.0027,-26.7,-22.86,-4.92,,adl
6.780653,-0.011,0.0403,0.1684,0.0005,0.0053,0.0027,-26.7,-22.86,-4.92,,adl
6.781639,-0.011,0.0403,0.1684,-0.0005,-0.0037,0.0005,-26.7,-22.86,-4.92,,adl
6.803624,-0.011,0.0403,0.1684,0.0,-0.0069,0.0021,-26.7,-22.86,-4.92,,adl
6.824075,-0.011,0.0403,0.1684,0.0,-0.0069,0.0021,-26.64,-22.92,-5.1,,adl
6.825708,-0.011,0.0403,0.1684,0.0005,0.0,0.0011,-26.64,-22.92,-5.1,,adl
6.840375,-0.011,0.0403,0.1684,0.0005,0.0,0.0011,-26.64,-22.92,-5.1,,adl
6.84141,0.0225,0.056,0.1302,0.0005,0.0,0.0011,-26.64,-22.92,-5.1,,adl
6.845441,0.0225,0.056,0.1302,0.0011,0.0016,-0.0021,-26.64,-22.92,-5.1,,adl
6.865833,0.0225,0.056,0.1302,0.0,0.0037,-0.0027,-26.64,-22.92,-5.1,,adl
6.886051,0.0225,0.056,0.1302,0.0,0.0037,-0.0027,-26.16,-22.68,-4.86,,adl
6.887625,0.0225,0.056,0.1302,-0.0016,0.0011,-0.0011,-26.16,-22.68,-4.86,,adl
6.902076,0.0225,0.056,0.1302,-0.0016,0.0011,-0.0011,-26.16,-22.68,-4.86,,adl
6.903691,-0.0191,-0.0085,0.1566,-0.0016,0.0011,-0.0011,-26.16,-22.68,-4.86,,adl
6.904545,-0.0191,-0.0085,0.1566,0.0005,-0.0016,0.0005,-26.16,-22.68,-4.86,,adl
6.926328,-0.0191,-0.0085,0.1566,-0.0016,-0.0027,0.0021,-26.16,-22.68,-4.86,,adl
6.947292,-0.0191,-0.0085,0.1566,-0.0016,-0.0027,0.0021,-25.74,-22.38,-4.5,,adl
6.948843,-0.0191,-0.0085,0.1566,0.0021,-0.0027,0.0016,-25.74,-22.38,-4.5,,adl
6.966028,-0.0191,-0.0085,0.1566,0.0021,-0.0027,0.0016,-25.74,-22.38,-4.5,,adl
6.967682,-0.0063,0.0272,0.1422,0.0021,-0.0027,0.0016,-25.74,-22.38,-4.5,,adl
6.96852,-0.0063,0.0272,0.1422,0.0016,-0.0005,0.0021,-25.74,-22.38,-4.5,,adl
6.98765,-0.0063,0.0272,0.1422,-0.0016,0.0016,0.0027,-25.74,-22.38,-4.5,,adl
7.00937,-0.0063,0.0272,0.1422,-0.0016,0.0016,0.0027,-25.74,-22.38,-4.44,,adl
7.010864,-0.0063,0.0272,0.1422,0.0,0.0016,0.0021,-25.74,-22.38,-4.44,,adl
7.024735,-0.0063,0.0272,0.1422,0.0,0.0016,0.0021,-25.74,-22.38,-4.44,,adl
7.025706,0.0084,0.0248,0.1518,0.0,0.0016,0.0021,-25.74,-22.38,-4.44,,adl
7.029628,0.0084,0.0248,0.1518,-0.0011,-0.0005,0.0011,-25.74,-22.38,-4.44,,adl
7.049615,0.0084,0.0248,0.1518,0.0011,-0.0032,0.0,-25.74,-22.38,-4.44,,adl
7.070059,0.0084,0.0248,0.1518,0.0011,-0.0032,0.0,-25.74,-22.32,-4.68,,adl
7.071658,0.0084,0.0248,0.1518,0.0011,-0.0011,-0.0016,-25.74,-22.32,-4.68,,adl
7.08675,0.0084,0.0248,0.1518,0.0011,-0.0011,-0.0016,-25.74,-22.32,-4.68,,adl
7.088278,-0.0093,0.0126,0.159,0.0011,-0.0011,-0.0016,-25.74,-22.32,-4.68,,adl
7.089127,-0.0093,0.0126,0.159,0.0032,0.0021,0.0016,-25.74,-22.32,-4.68,,adl
7.110791,-0.0093,0.0126,0.159,0.0016,0.0005,0.0021,-25.74,-22.32,-4.68,,adl
7.131546,-0.0093,0.0126,0.159,0.0016,0.0005,0.0021,-26.16,-22.56,-4.74,,adl
7.133015,-0.0093,0.0126,0.159,0.0011,-0.0011,0.0027,-26.16,-22.56,-4.74,,adl
7.148205,-0.0093,0.0126,0.159,0.0011,-0.0011,0.0027,-26.16,-22.56,-4.74,,adl
7.149573,0.0124,0.0021,0.1448,0.0011,-0.0011,0.0027,-26.16,-22.56,-4.74,,adl
7.150428,0.0124,0.0021,0.1448,0.0005,-0.0027,0.0016,-26.16,-22.56,-4.74,,adl
7.172713,0.0124,0.0021,0.1448,0.0,0.0,0.0011,-26.16,-22.56,-4.74,,adl
7.194267,0.0124,0.0021,0.1448,0.0,0.0,0.0011,-26.7,-23.1,-4.38,,adl
7.195777,0.0124,0.0021,0.1448,0.0011,0.0011,0.0011,-26.7,-23.1,-4.38,,adl
7.210855,0.0124,0.0021,0.1448,0.0011,0.0011,0.0011,-26.7,-23.1,-4.38,,adl
7.212373,0.0047,0.0068,0.152,0.0011,0.0011,0.0011,-26.7,-23.1,-4.38,,adl
7.213422,0.0047,0.0068,0.152,-0.0027,0.0,0.0,-26.7,-23.1,-4.38,,adl
7.234076,0.0047,0.0068,0.152,0.0027,0.0005,0.0011,-26.7,-23.1,-4.38,,adl
7.255491,0.0047,0.0068,0.152,0.0027,0.0005,0.0011,-26.88,-23.34,-4.74,,adl
7.257189,0.0047,0.0068,0.152,0.0011,-0.0011,0.0011,-26.88,-23.34,-4.74,,adl
7.270478,0.0047,0.0068,0.152,0.0011,-0.0011,0.0011,-26.88,-23.34,-4.74,,adl
7.271887,0.0161,0.0657,0.1449,0.0011,-0.0011,0.0011,-26.88,-23.34,-4.74,,adl
7.274605,0.0161,0.0657,0.1449,0.0005,0.0037,0.0016,-26.88,-23.34,-4.74,,adl
7.295582,0.0161,0.0657,0.1449,0.0021,-0.0027,0.0,-26.88,-23.34,-4.74,,adl
7.317494,0.0161,0.0657,0.1449,0.0021,-0.0027,0.0,-26.76,-23.04,-4.38,,adl
7.31913,0.0161,0.0657,0.1449,0.0005,-0.008,0.0,-26.76,-23.04,-4.38,,adl
7.333035,0.0161,0.0657,0.1449,0.0005,-0.008,0.0,-26.76,-23.04,-4.38,,adl
7.334609,0.0159,-0.0819,0.1445,0.0005,-0.008,0.0,-26.76,-23.04,-4.38,,adl
7.336226,0.0159,-0.0819,0.1445,-0.0032,0.0085,0.0016,-26.76,-23.04,-4.38,,adl
7.357038,0.0159,-0.0819,0.1445,-0.0048,0.0245,-0.0005,-26.76,-23.04,-4.38,,adl
7.378595,0.0159,-0.0819,0.1445,-0.0048,0.0245,-0.0005,-26.58,-23.04,-4.8,,adl
7.380337,0.0159,-0.0819,0.1445,0.0011,0.0048,0.0016,-26.58,-23.04,-4.8,,adl
7.393657,0.0159,-0.0819,0.1445,0.0011,0.0048,0.0016,-26.58,-23.04,-4.8,,adl
7.395159,-0.0269,0.044,0.1204,0.0011,0.0048,0.0016,-26.58,-23.04,-4.8,,adl
7.397098,-0.0269,0.044,0.1204,-0.0016,-0.0021,0.0021,-26.58,-23.04,-4.8,,adl
7.419058,-0.0269,0.044,0.1204,-0.0037,0.0096,0.0027,-26.58,-23.04,-4.8,,adl
7.439628,-0.0269,0.044,0.1204,-0.0037,0.0096,0.0027,-25.86,-22.62,-5.16,,adl
7.441489,-0.0269,0.044,0.1204,-0.0011,0.0021,0.0005,-25.86,-22.62,-5.16,,adl
7.455753,-0.0269,0.044,0.1204,-0.0011,0.0021,0.0005,-25.86,-22.62,-5.16,,adl
7.456752,0.0108,0.0405,0.1705,-0.0011,0.0021,0.0005,-25.86,-22.62,-5.16,,adl
7.460221,0.0108,0.0405,0.1705,-0.0027,-0.0069,-0.0011,-25.86,-22.62,-5.16,,adl
7.479607,0.0108,0.0405,0.1705,0.0016,-0.0075,0.0011,-25.86,-22.62,-5.16,,adl
7.501932,0.0108,0.0405,0.1705,0.0016,-0.0075,0.0011,-26.28,-22.92,-4.98,,adl
7.503626,0.0108,0.0405,0.1705,0.0021,-0.0032,-0.0016,-26.28,-22.92,-4.98,,adl
7.517041,0.0108,0.0405,0.1705,0.0021,-0.0032,-0.0016,-26.28,-22.92,-4.98,,adl
7.518533,0.0072,-0.0167,0.1585,0.0021,-0.0032,-0.0016,-26.28,-22.92,-4.98,,adl
7.52079,0.0072,-0.0167,0.1585,0.0021,0.0011,0.0011,-26.28,-22.92,-4.98,,adl
7.543265,0.0072,-0.0167,0.1585,0.0016,0.0005,0.0016,-26.28,-22.92,-4.98,,adl
7.562419,0.0072,-0.0167,0.1585,0.0016,0.0005,0.0016,-26.64,-23.16,-4.68,,adl
7.563889,0.0072,-0.0167,0.1585,0.0032,-0.0064,-0.0021,-26.64,-23.16,-4.68,,adl
7.57897,0.0072,-0.0167,0.1585,0.0032,-0.0064,-0.0021,-26.64,-23.16,-4.68,,adl
7.580527,-0.0223,0.0417,0.1539,0.0032,-0.0064,-0.0021,-26.64,-23.16,-4.68,,adl
7.583102,-0.0223,0.0417,0.1539,0.0053,-0.0112,-0.0016,-26.64,-23.16,-4.68,,adl
7.602629,-0.0223,0.0417,0.1539,0.0005,-0.0043,0.0016,-26.64,-23.16,-4.68,,adl
7.625065,-0.0223,0.0417,0.1539,0.0005,-0.0043,0.0016,-26.64,-22.74,-4.68,,adl
7.626791,-0.0223,0.0417,0.1539,0.0,-0.0005,0.0005,-26.64,-22.74,-4.68,,adl
7.640826,-0.0223,0.0417,0.1539,0.0,-0.0005,0.0005,-26.64,-22.74,-4.68,,adl
7.641902,-0.0272,0.0166,0.154,0.0,-0.0005,0.0005,-26.64,-22.74,-4.68,,adl
7.646484,-0.0272,0.0166,0.154,0.0,-0.0037,0.0027,-26.64,-22.74,-4.68,,adl
7.665154,-0.0272,0.0166,0.154,-0.0005,-0.0064,0.0011,-26.64,-22.74,-4.68,,adl
7.686117,-0.0272,0.0166,0.154,-0.0005,-0.0064,0.0011,-26.88,-22.56,-4.44,,adl
7.687746,-0.0272,0.0166,0.154,-0.0016,-0.0059,0.0005,-26.88,-22.56,-4.44,,adl
7.702169,-0.0272,0.0166,0.154,-0.0016,-0.0059,0.0005,-26.88,-22.56,-4.44,,adl
7.703847,0.0245,0.0314,0.1515,-0.0016,-0.0059,0.0005,-26.88,-22.56,-4.44,,adl
7.705923,0.0245,0.0314,0.1515,0.0027,-0.0027,-0.0016,-26.88,-22.56,-4.44,,adl
7.72646,0.0245,0.0314,0.1515,-0.0005,0.0011,-0.0016,-26.88,-22.56,-4.44,,adl
7.747717,0.0245,0.0314,0.1515,-0.0005,0.0011,-0.0016,-26.28,-21.66,-4.56,,adl
7.749113,0.0245,0.0314,0.1515,0.0,0.0021,-0.0011,-26.28,-21.66,-4.56,,adl
7.763958,0.0245,0.0314,0.1515,0.0,0.0021,-0.0011,-26.28,-21.66,-4.56,,adl
7.765432,-0.0135,-0.0071,0.1659,0.0,0.0021,-0.0011,-26.28,-21.66,-4.56,,adl
7.766702,-0.0135,-0.0071,0.1659,0.0,-0.0011,-0.0016,-26.28,-21.66,-4.56,,adl
7.78957,-0.0135,-0.0071,0.1659,0.0021,-0.0043,-0.0005,-26.28,-21.66,-4.56,,adl
7.809875,-0.0135,-0.0071,0.1659,0.0021,-0.0043,-0.0005,-26.22,-22.08,-5.04,,adl
7.81125,-0.0135,-0.0071,0.1659,-0.0005,-0.0016,0.0016,-26.22,-22.08,-5.04,,adl
7.824968,-0.0135,-0.0071,0.1659,-0.0005,-0.0016,0.0016,-26.22,-22.08,-5.04,,adl
7.825851,-0.0052,0.0189,0.142,-0.0005,-0.0016,0.0016,-26.22,-22.08,-5.04,,adl
7.828655,-0.0052,0.0189,0.142,0.0,0.0005,0.0,-26.22,-22.08,-5.04,,adl
7.848565,-0.0052,0.0189,0.142,0.0005,-0.0005,0.0016,-26.22,-22.08,-5.04,,adl
7.870481,-0.0052,0.0189,0.142,0.0005,-0.0005,0.0016,-26.22,-22.5,-4.56,,adl
7.872195,-0.0052,0.0189,0.142,0.0005,-0.0011,0.0016,-26.22,-22.5,-4.56,,adl
7.886387,-0.0052,0.0189,0.142,0.0005,-0.0011,0.0016,-26.22,-22.5,-4.56,,adl
7.887757,0.0254,0.0259,0.1492,0.0005,-0.0011,0.0016,-26.22,-22.5,-4.56,,adl
7.890193,0.0254,0.0259,0.1492,0.0021,0.0,0.0005,-26.22,-22.5,-4.56,,adl
7.911015,0.0254,0.0259,0.1492,0.0027,0.0032,-0.0016,-26.22,-22.5,-4.56,,adl
7.93201,0.0254,0.0259,0.1492,0.0027,0.0032,-0.0016,-26.28,-22.68,-4.92,,adl
7.933428,0.0254,0.0259,0.1492,0.0016,0.0005,-0.0021,-26.28,-22.68,-4.92,,adl
7.948804,0.0254,0.0259,0.1492,0.0016,0.0005,-0.0021,-26.28,-22.68,-4.92,,adl
7.95026,-0.0215,0.0009,0.1518,0.0016,0.0005,-0.0021,-26.28,-22.68,-4.92,,adl
7.952761,-0.0215,0.0009,0.1518,0.0021,-0.0027,-0.0016,-26.28,-22.68,-4.92,,adl
7.973068,-0.0215,0.0009,0.1518,0.0,-0.0016,0.0011,-26.28,-22.68,-4.92,,adl
7.994037,-0.0215,0.0009,0.1518,0.0,-0.0016,0.0011,-26.46,-23.46,-4.8,,adl
7.995648,-0.0215,0.0009,0.1518,0.0005,-0.0005,0.0011,-26.46,-23.46,-4.8,,adl
8.010389,-0.0215,0.0009,0.1518,0.0005,-0.0005,0.0011,-26.46,-23.46,-4.8,,adl
8.012054,-0.0009,0.0123,0.1423,0.0005,-0.0005,0.0011,-26.46,-23.46,-4.8,,adl
8.014258,-0.0009,0.0123,0.1423,0.0021,-0.0005,0.0011,-26.46,-23.46,-4.8,,adl
8.034294,-0.0009,0.0123,0.1423,0.0,0.0,-0.0005,-26.46,-23.46,-4.8,,adl
8.055962,-0.0009,0.0123,0.1423,0.0,0.0,-0.0005,-26.4,-22.8,-4.62,,adl
8.057709,-0.0009,0.0123,0.1423,0.0011,-0.0053,-0.0011,-26.4,-22.8,-4.62,,adl
8.071285,-0.0009,0.0123,0.1423,0.0011,-0.0053,-0.0011,-26.4,-22.8,-4.62,,adl
8.072378,0.0195,0.0189,0.1519,0.0011,-0.0053,-0.0011,-26.4,-22.8,-4.62,,adl
8.07593,0.0195,0.0189,0.1519,-0.0005,-0.0048,-0.0021,-26.4,-22.8,-4.62,,adl
8.096185,0.0195,0.0189,0.1519,0.0027,0.0,-0.0021,-26.4,-22.8,-4.62,,adl
8.117495,0.0195,0.0189,0.1519,0.0027,0.0,-0.0021,-26.88,-22.62,-4.56,,adl
8.119069,0.0195,0.0189,0.1519,0.0027,0.0032,-0.0021,-26.88,-22.62,-4.56,,adl
8.133875,0.0195,0.0189,0.1519,0.0027,0.0032,-0.0021,-26.88,-22.62,-4.56,,adl
8.135489,-0.0094,-0.0103,0.1663,0.0027,0.0032,-0.0021,-26.88,-22.62,-4.56,,adl
8.136621,-0.0094,-0.0103,0.1663,0.0016,-0.0021,-0.0021,-26.88,-22.62,-4.56,,adl
8.158766,-0.0094,-0.0103,0.1663,0.0027,-0.0037,0.0005,-26.88,-22.62,-4.56,,adl
8.178947,-0.0094,-0.0103,0.1663,0.0027,-0.0037,0.0005,-26.82,-22.5,-4.56,,adl
8.180665,-0.0094,-0.0103,0.1663,0.0011,0.0,0.0,-26.82,-22.5,-4.56,,adl
8.194578,-0.0094,-0.0103,0.1663,0.0011,0.0,0.0,-26.82,-22.5,-4.56,,adl
8.196317,0.0086,0.0461,0.1449,0.0011,0.0,0.0,-26.82,-22.5,-4.56,,adl
8.199111,0.0086,0.0461,0.1449,0.0027,-0.0064,-0.0016,-26.82,-22.5,-4.56,,adl
8.219251,0.0086,0.0461,0.1449,-0.0011,-0.0043,0.0,-26.82,-22.5,-4.56,,adl
8.240941,0.0086,0.0461,0.1449,-0.0011,-0.0043,0.0,-26.34,-22.08,-4.26,,adl
8.242457,0.0086,0.0461,0.1449,-0.0069,0.0176,0.0,-26.34,-22.08,-4.26,,adl
8.25683,0.0086,0.0461,0.1449,-0.0069,0.0176,0.0,-26.34,-22.08,-4.26,,adl
8.258005,0.0051,0.0492,0.1927,-0.0069,0.0176,0.0,-26.34,-22.08,-4.26,,adl
8.262139,0.0051,0.0492,0.1927,-0.0032,0.017,-0.0027,-26.34,-22.08,-4.26,,adl
8.281321,0.0051,0.0492,0.1927,0.0021,-0.0048,-0.0037,-26.34,-22.08,-4.26,,adl
8.301149,0.0051,0.0492,0.1927,0.0021,-0.0048,-0.0037,-26.4,-22.5,-4.74,,adl
8.302488,0.0051,0.0492,0.1927,-0.0005,0.0048,-0.0011,-26.4,-22.5,-4.74,,adl
8.317174,0.0051,0.0492,0.1927,-0.0005,0.0048,-0.0011,-26.4,-22.5,-4.74,,adl
8.318595,0.0152,0.0575,0.1354,-0.0005,0.0048,-0.0011,-26.4,-22.5,-4.74,,adl
8.320873,0.0152,0.0575,0.1354,-0.0016,0.0144,0.0011,-26.4,-22.5,-4.74,,adl
8.342401,0.0152,0.0575,0.1354,-0.0053,0.0016,-0.0021,-26.4,-22.5,-4.74,,adl
8.36311,0.0152,0.0575,0.1354,-0.0053,0.0016,-0.0021,-26.04,-22.38,-5.52,,adl
8.364594,0.0152,0.0575,0.1354,-0.0005,-0.0069,-0.0021,-26.04,-22.38,-5.52,,adl
8.379891,0.0152,0.0575,0.1354,-0.0005,-0.0069,-0.0021,-26.04,-22.38,-5.52,,adl
8.381151,-0.014,-0.0363,0.1543,-0.0005,-0.0069,-0.0021,-26.04,-22.38,-5.52,,adl
8.382055,-0.014,-0.0363,0.1543,0.0043,-0.008,0.0,-26.04,-22.38,-5.52,,adl
8.404237,-0.014,-0.0363,0.1543,0.0021,0.0011,-0.0005,-26.04,-22.38,-5.52,,adl
8.425503,-0.014,-0.0363,0.1543,0.0021,0.0011,-0.0005,-26.1,-22.44,-5.58,,adl
8.427046,-0.014,-0.0363,0.1543,0.0032,0.0048,-0.0005,-26.1,-22.44,-5.58,,adl
8.441461,-0.014,-0.0363,0.1543,0.0032,0.0048,-0.0005,-26.1,-22.44,-5.58,,adl
8.442372,0.0023,-0.0016,0.1617,0.0032,0.0048,-0.0005,-26.1,-22.44,-5.58,,adl
8.446408,0.0023,-0.0016,0.1617,0.0032,0.0037,-0.0011,-26.1,-22.44,-5.58,,adl
8.466238,0.0023,-0.0016,0.1617,0.0043,-0.0085,-0.0005,-26.1,-22.44,-5.58,,adl
8.487294,0.0023,-0.0016,0.1617,0.0043,-0.0085,-0.0005,-26.88,-22.74,-5.94,,adl
8.488998,0.0023,-0.0016,0.1617,0.0037,-0.0123,-0.0011,-26.88,-22.74,-5.94,,adl
8.503034,0.0023,-0.0016,0.1617,0.0037,-0.0123,-0.0011,-26.88,-22.74,-5.94,,adl
8.50476,-0.0057,0.0179,0.1308,0.0037,-0.0123,-0.0011,-26.88,-22.74,-5.94,,adl
8.505618,-0.0057,0.0179,0.1308,0.0,0.0,0.0,-26.88,-22.74,-5.94,,adl
8.527758,-0.0057,0.0179,0.1308,-0.0005,0.0037,0.0005,-26.88,-22.74,-5.94,,adl
8.548502,-0.0057,0.0179,0.1308,-0.0005,0.0037,0.0005,-26.52,-22.92,-5.7,,adl
8.549985,-0.0057,0.0179,0.1308,0.0021,-0.0032,0.0005,-26.52,-22.92,-5.7,,adl
8.564564,-0.0057,0.0179,0.1308,0.0021,-0.0032,0.0005,-26.52,-22.92,-5.7,,adl
8.566077,-0.0056,0.0199,0.1548,0.0021,-0.0032,0.0005,-26.52,-22.92,-5.7,,adl
8.568655,-0.0056,0.0199,0.1548,0.0016,-0.0053,0.0011,-26.52,-22.92,-5.7,,adl
8.588658,-0.0056,0.0199,0.1548,0.0011,-0.0021,0.0005,-26.52,-22.92,-5.7,,adl
8.61049,-0.0056,0.0199,0.1548,0.0011,-0.0021,0.0005,-26.64,-22.92,-5.64,,adl
8.612058,-0.0056,0.0199,0.1548,0.0,0.0027,-0.0011,-26.64,-22.92,-5.64,,adl
8.627215,-0.0056,0.0199,0.1548,0.0,0.0027,-0.0011,-26.64,-22.92,-5.64,,adl
8.628766,0.0053,-0.0111,0.1476,0.0,0.0027,-0.0011,-26.64,-22.92,-5.64,,adl
8.629575,0.0053,-0.0111,0.1476,0.0,0.0043,-0.0005,-26.64,-22.92,-5.64,,adl
8.651239,0.0053,-0.0111,0.1476,-0.0011,0.0005,-0.0011,-26.64,-22.92,-5.64,,adl
8.671883,0.0053,-0.0111,0.1476,-0.0011,0.0005,-0.0011,-26.34,-22.86,-5.7,,adl
8.673517,0.0053,-0.0111,0.1476,0.0021,-0.0059,-0.0005,-26.34,-22.86,-5.7,,adl
8.687181,0.0053,-0.0111,0.1476,0.0021,-0.0059,-0.0005,-26.34,-22.86,-5.7,,adl
8.688216,0.0051,0.0129,0.1644,0.0021,-0.0059,-0.0005,-26.34,-22.86,-5.7,,adl
8.690766,0.0051,0.0129,0.1644,0.0027,0.0,0.0,-26.34,-22.86,-5.7,,adl
8.711542,0.0051,0.0129,0.1644,0.0032,0.0048,0.0021,-26.34,-22.86,-5.7,,adl
8.734074,0.0051,0.0129,0.1644,0.0032,0.0048,0.0021,-25.98,-22.86,-5.52,,adl
8.735775,0.0051,0.0129,0.1644,0.0,0.0053,0.0005,-25.98,-22.86,-5.52,,adl
8.749544,0.0051,0.0129,0.1644,0.0,0.0053,0.0005,-25.98,-22.86,-5.52,,adl
8.751083,-0.0001,0.0165,0.1382,0.0,0.0053,0.0005,-25.98,-22.86,-5.52,,adl
8.752577,-0.0001,0.0165,0.1382,0.0005,-0.0005,0.0016,-25.98,-22.86,-5.52,,adl
8.774395,-0.0001,0.0165,0.1382,-0.0005,-0.0027,0.0005,-25.98,-22.86,-5.52,,adl
8.794558,-0.0001,0.0165,0.1382,-0.0005,-0.0027,0.0005,-25.62,-22.44,-5.22,,adl
8.796297,-0.0001,0.0165,0.1382,-0.0011,-0.0021,0.0,-25.62,-22.44,-5.22,,adl
8.810548,-0.0001,0.0165,0.1382,-0.0011,-0.0021,0.0,-25.62,-22.44,-5.22,,adl
8.812044,-0.0012,0.0143,0.1573,-0.0011,-0.0021,0.0,-25.62,-22.44,-5.22,,adl
8.813726,-0.0012,0.0143,0.1573,0.0021,0.0005,-0.0027,-25.62,-22.44,-5.22,,adl
8.835341,-0.0012,0.0143,0.1573,0.0027,0.0011,-0.0011,-25.62,-22.44,-5.22,,adl
8.857114,-0.0012,0.0143,0.1573,0.0027,0.0011,-0.0011,-25.74,-22.56,-4.8,,adl
8.858997,-0.0012,0.0143,0.1573,0.0011,0.0,0.0011,-25.74,-22.56,-4.8,,adl
8.872221,-0.0012,0.0143,0.1573,0.0011,0.0,0.0011,-25.74,-22.56,-4.8,,adl
8.873168,-0.0008,-0.0008,0.1478,0.0011,0.0,0.0011,-25.74,-22.56,-4.8,,adl
8.877204,-0.0008,-0.0008,0.1478,-0.0005,-0.0016,0.0021,-25.74,-22.56,-4.8,,adl
8.897391,-0.0008,-0.0008,0.1478,0.0016,-0.0021,0.0016,-25.74,-22.56,-4.8,,adl
8.918144,-0.0008,-0.0008,0.1478,0.0016,-0.0021,0.0016,-26.4,-22.68,-4.5,,adl
8.919796,-0.0008,-0.0008,0.1478,0.0021,0.0021,-0.0005,-26.4,-22.68,-4.5,,adl
8.933397,-0.0008,-0.0008,0.1478,0.0021,0.0021,-0.0005,-26.4,-22.68,-4.5,,adl
8.935026,0.0059,0.0131,0.1551,0.0021,0.0021,-0.0005,-26.4,-22.68,-4.5,,adl
8.938316,0.0059,0.0131,0.1551,0.0016,0.0016,-0.0005,-26.4,-22.68,-4.5,,adl
8.959531,0.0059,0.0131,0.1551,0.0027,0.0011,0.0005,-26.4,-22.68,-4.5,,adl
8.98002,0.0059,0.0131,0.1551,0.0027,0.0011,0.0005,-26.34,-22.62,-4.62,,adl
8.981593,0.0059,0.0131,0.1551,-0.0005,-0.0005,0.0005,-26.34,-22.62,-4.62,,adl
8.995316,0.0059,0.0131,0.1551,-0.0005,-0.0005,0.0005,-26.34,-22.62,-4.62,,adl
8.996703,0.0038,-0.0015,0.1575,-0.0005,-0.0005,0.0005,-26.34,-22.62,-4.62,,adl
8.998618,0.0038,-0.0015,0.1575,0.0016,0.0027,-0.0005,-26.34,-22.62,-4.62,,adl
9.019195,0.0038,-0.0015,0.1575,0.0005,0.0021,0.0005,-26.34,-22.62,-4.62,,adl
9.041027,0.0038,-0.0015,0.1575,0.0005,0.0021,0.0005,-26.76,-22.74,-4.86,,adl
9.042581,0.0038,-0.0015,0.1575,0.0005,0.0032,0.0011,-26.76,-22.74,-4.86,,adl
9.057637,0.0038,-0.0015,0.1575,0.0005,0.0032,0.0011,-26.76,-22.74,-4.86,,adl
9.058713,0.0099,0.074,0.1768,0.0005,0.0032,0.0011,-26.76,-22.74,-4.86,,adl
9.062821,0.0099,0.074,0.1768,0.0037,-0.0016,-0.0011,-26.76,-22.74,-4.86,,adl
9.082043,0.0099,0.074,0.1768,0.0016,-0.0053,-0.0005,-26.76,-22.74,-4.86,,adl
9.102718,0.0099,0.074,0.1768,0.0016,-0.0053,-0.0005,-26.58,-22.56,-5.16,,adl
9.104536,0.0099,0.074,0.1768,-0.0032,0.0027,-0.0016,-26.58,-22.56,-5.16,,adl
9.117294,0.0099,0.074,0.1768,-0.0032,0.0027,-0.0016,-26.58,-22.56,-5.16,,adl
9.117754,-0.0053,-0.0651,0.1789,-0.0032,0.0027,-0.0016,-26.58,-22.56,-5.16,,adl
9.120981,-0.0053,-0.0651,0.1789,-0.0064,0.0176,-0.0032,-26.58,-22.56,-5.16,,adl
9.142893,-0.0053,-0.0651,0.1789,0.0037,0.0165,-0.0043,-26.58,-22.56,-5.16,,adl
9.164339,-0.0053,-0.0651,0.1789,0.0037,0.0165,-0.0043,-26.16,-22.44,-5.52,,adl
9.165873,-0.0053,-0.0651,0.1789,0.0016,0.0027,-0.0021,-26.16,-22.44,-5.52,,adl
9.180673,-0.0053,-0.0651,0.1789,0.0016,0.0027,-0.0021,-26.16,-22.44,-5.52,,adl
9.182019,-0.0379,0.0665,0.1119,0.0016,0.0027,-0.0021,-26.16,-22.44,-5.52,,adl
9.183301,-0.0379,0.0665,0.1119,-0.0064,0.0091,0.0005,-26.16,-22.44,-5.52,,adl
9.204931,-0.0379,0.0665,0.1119,-0.0075,0.0069,-0.0005,-26.16,-22.44,-5.52,,adl
9.226421,-0.0379,0.0665,0.1119,-0.0075,0.0069,-0.0005,-25.98,-22.32,-5.7,,adl
9.22836,-0.0379,0.0665,0.1119,0.0,-0.0021,-0.0005,-25.98,-22.32,-5.7,,adl
9.244198,-0.0379,0.0665,0.1119,0.0,-0.0021,-0.0005,-25.98,-22.32,-5.7,,adl
9.245621,0.027,-0.012,0.1546,0.0,-0.0021,-0.0005,-25.98,-22.32,-5.7,,adl
9.246772,0.027,-0.012,0.1546,0.0021,-0.0037,-0.0011,-25.98,-22.32,-5.7,,adl
9.267292,0.027,-0.012,0.1546,0.0027,-0.0032,-0.0021,-25.98,-22.32,-5.7,,adl
9.286906,0.027,-0.012,0.1546,0.0027,-0.0032,-0.0021,-25.86,-22.38,-5.88,,adl
9.288415,0.027,-0.012,0.1546,0.0021,0.0021,0.0,-25.86,-22.38,-5.88,,adl
9.302997,0.027,-0.012,0.1546,0.0021,0.0021,0.0,-25.86,-22.38,-5.88,,adl
9.304429,0.0019,-0.0216,0.1498,0.0021,0.0021,0.0,-25.86,-22.38,-5.88,,adl
9.306891,0.0019,-0.0216,0.1498,0.0053,0.0075,0.0005,-25.86,-22.38,-5.88,,adl
9.328181,0.0019,-0.0216,0.1498,0.0016,0.0043,0.0021,-25.86,-22.38,-5.88,,adl
9.348809,0.0019,-0.0216,0.1498,0.0016,0.0043,0.0021,-26.04,-22.8,-5.58,,adl
9.3503,0.0019,-0.0216,0.1498,0.0027,-0.0037,0.0,-26.04,-22.8,-5.58,,adl
9.365449,0.0019,-0.0216,0.1498,0.0027,-0.0037,0.0,-26.04,-22.8,-5.58,,adl
9.366885,-0.0229,0.0435,0.1261,0.0027,-0.0037,0.0,-26.04,-22.8,-5.58,,adl
9.367931,-0.0229,0.0435,0.1261,0.0,-0.0069,0.0005,-26.04,-22.8,-5.58,,adl
9.390438,-0.0229,0.0435,0.1261,-0.0021,-0.0005,0.0005,-26.04,-22.8,-5.58,,adl
9.410408,-0.0229,0.0435,0.1261,-0.0021,-0.0005,0.0005,-26.4,-22.74,-5.58,,adl
9.411726,-0.0229,0.0435,0.1261,0.0011,-0.0011,0.0021,-26.4,-22.74,-5.58,,adl
9.427798,-0.0229,0.0435,0.1261,0.0011,-0.0011,0.0021,-26.4,-22.74,-5.58,,adl
9.429308,-0.0171,0.0009,0.1524,0.0011,-0.0011,0.0021,-26.4,-22.74,-5.58,,adl
9.430428,-0.0171,0.0009,0.1524,-0.0016,0.0016,0.0032,-26.4,-22.74,-5.58,,adl
9.451541,-0.0171,0.0009,0.1524,-0.0021,-0.0016,0.0005,-26.4,-22.74,-5.58,,adl
9.47276,-0.0171,0.0009,0.1524,-0.0021,-0.0016,0.0005,-26.4,-22.92,-5.34,,adl
9.474537,-0.0171,0.0009,0.1524,0.0043,-0.0091,-0.0027,-26.4,-22.92,-5.34,,adl
9.488471,-0.0171,0.0009,0.1524,0.0043,-0.0091,-0.0027,-26.4,-22.92,-5.34,,adl
9.48942,0.0077,-0.0533,0.1304,0.0043,-0.0091,-0.0027,-26.4,-22.92,-5.34,,adl
9.4941,0.0077,-0.0533,0.1304,0.0059,0.0005,-0.0005,-26.4,-22.92,-5.34,,adl
9.513452,0.0077,-0.0533,0.1304,-0.0027,0.0181,0.0021,-26.4,-22.92,-5.34,,adl
9.533699,0.0077,-0.0533,0.1304,-0.0027,0.0181,0.0021,-26.64,-22.92,-4.86,,adl
9.535272,0.0077,-0.0533,0.1304,-0.0064,-0.0032,0.0,-26.64,-22.92,-4.86,,adl
9.550578,0.0077,-0.0533,0.1304,-0.0064,-0.0032,0.0,-26.64,-22.92,-4.86,,adl
9.552338,-0.0179,0.0313,0.1806,-0.0064,-0.0032,0.0,-26.64,-22.92,-4.86,,adl
9.553457,-0.0179,0.0313,0.1806,-0.0027,-0.0197,-0.0011,-26.64,-22.92,-4.86,,adl
9.574623,-0.0179,0.0313,0.1806,0.0037,0.0,0.0005,-26.64,-22.92,-4.86,,adl
9.596037,-0.0179,0.0313,0.1806,0.0037,0.0,0.0005,-26.04,-22.5,-4.86,,adl
9.597592,-0.0179,0.0313,0.1806,0.0043,0.0091,0.0,-26.04,-22.5,-4.86,,adl
9.611428,-0.0179,0.0313,0.1806,0.0043,0.0091,0.0,-26.04,-22.5,-4.86,,adl
9.612754,-0.0056,0.0445,0.1448,0.0043,0.0091,0.0,-26.04,-22.5,-4.86,,adl
9.613822,-0.0056,0.0445,0.1448,0.0,-0.0005,0.0021,-26.04,-22.5,-4.86,,adl
9.636745,-0.0056,0.0445,0.1448,-0.0005,-0.0032,0.0016,-26.04,-22.5,-4.86,,adl
9.657633,-0.0056,0.0445,0.1448,-0.0005,-0.0032,0.0016,-26.04,-22.5,-5.22,,adl
9.659266,-0.0056,0.0445,0.1448,0.0021,-0.0021,0.0,-26.04,-22.5,-5.22,,adl
9.67402,-0.0056,0.0445,0.1448,0.0021,-0.0021,0.0,-26.04,-22.5,-5.22,,adl
9.674988,0.0075,-0.0223,0.1281,0.0021,-0.0021,0.0,-26.04,-22.5,-5.22,,adl
9.678966,0.0075,-0.0223,0.1281,0.0027,0.0011,0.0,-26.04,-22.5,-5.22,,adl
9.697862,0.0075,-0.0223,0.1281,0.0016,0.0016,-0.0005,-26.04,-22.5,-5.22,,adl
9.718705,0.0075,-0.0223,0.1281,0.0016,0.0016,-0.0005,-26.28,-22.68,-5.46,,adl
9.720406,0.0075,-0.0223,0.1281,-0.0005,-0.008,0.0,-26.28,-22.68,-5.46,,adl
9.735266,0.0075,-0.0223,0.1281,-0.0005,-0.008,0.0,-26.28,-22.68,-5.46,,adl
9.736873,-0.0197,0.0321,0.176,-0.0005,-0.008,0.0,-26.28,-22.68,-5.46,,adl
9.737977,-0.0197,0.0321,0.176,0.0021,-0.0032,-0.0011,-26.28,-22.68,-5.46,,adl
9.760098,-0.0197,0.0321,0.176,0.0032,0.0043,0.0005,-26.28,-22.68,-5.46,,adl
9.780573,-0.0197,0.0321,0.176,0.0032,0.0043,0.0005,-25.92,-22.5,-6.06,,adl
9.782151,-0.0197,0.0321,0.176,0.0005,0.0011,0.0,-25.92,-22.5,-6.06,,adl
9.795574,-0.0197,0.0321,0.176,0.0005,0.0011,0.0,-25.92,-22.5,-6.06,,adl
9.796954,0.0047,0.0237,0.1379,0.0005,0.0011,0.0,-25.92,-22.5,-6.06,,adl
9.800528,0.0047,0.0237,0.1379,-0.0016,-0.0075,0.0011,-25.92,-22.5,-6.06,,adl
9.820035,0.0047,0.0237,0.1379,0.0,-0.0048,0.0005,-25.92,-22.5,-6.06,,adl
9.842199,0.0047,0.0237,0.1379,0.0,-0.0048,0.0005,-26.46,-22.38,-6.3,,adl
9.843897,0.0047,0.0237,0.1379,0.0005,0.0027,-0.0011,-26.46,-22.38,-6.3,,adl
9.857383,0.0047,0.0237,0.1379,0.0005,0.0027,-0.0011,-26.46,-22.38,-6.3,,adl
9.85826,-0.0139,0.0097,0.157,0.0005,0.0027,-0.0011,-26.46,-22.38,-6.3,,adl
9.861786,-0.0139,0.0097,0.157,0.0005,0.0032,-0.0005,-26.46,-22.38,-6.3,,adl
9.882765,-0.0139,0.0097,0.157,0.0005,-0.0011,0.0005,-26.46,-22.38,-6.3,,adl
9.903599,-0.0139,0.0097,0.157,0.0005,-0.0011,0.0005,-26.76,-22.62,-5.22,,adl
9.905228,-0.0139,0.0097,0.157,0.0027,-0.0016,0.0005,-26.76,-22.62,-5.22,,adl
9.918212,-0.0139,0.0097,0.157,0.0027,-0.0016,0.0005,-26.76,-22.62,-5.22,,adl
9.919731,-0.0111,-0.0003,0.1403,0.0027,-0.0016,0.0005,-26.76,-22.62,-5.22,,adl
9.922825,-0.0111,-0.0003,0.1403,0.0005,-0.0032,-0.0005,-26.76,-22.62,-5.22,,adl
9.943845,-0.0111,-0.0003,0.1403,0.0016,0.0021,0.0016,-26.76,-22.62,-5.22,,adl
9.965242,-0.0111,-0.0003,0.1403,0.0016,0.0021,0.0016,-26.76,-22.38,-4.86,,adl
9.9668,-0.0111,-0.0003,0.1403,0.0032,-0.0016,0.0005,-26.76,-22.38,-4.86,,adl
9.981197,-0.0111,-0.0003,0.1403,0.0032,-0.0016,0.0005,-26.76,-22.38,-4.86,,adl
9.982456,0.0028,-0.0078,0.1475,0.0032,-0.0016,0.0005,-26.76,-22.38,-4.86,,adl
9.98397,0.0028,-0.0078,0.1475,-0.0005,-0.0091,0.0,-26.76,-22.38,-4.86,,adl
10.005253,0.0028,-0.0078,0.1475,-0.0059,0.008,0.0,-26.76,-22.38,-4.86,,adl
10.026314,0.0028,-0.0078,0.1475,-0.0059,0.008,0.0,-27.24,-22.86,-4.02,,adl
10.027933,0.0028,-0.0078,0.1475,-0.0048,0.0293,0.0005,-27.24,-22.86,-4.02,,adl
10.043827,0.0028,-0.0078,0.1475,-0.0048,0.0293,0.0005,-27.24,-22.86,-4.02,,adl
10.045271,-0.0155,0.0613,0.1856,-0.0048,0.0293,0.0005,-27.24,-22.86,-4.02,,adl
10.046127,-0.0155,0.0613,0.1856,0.0016,0.0043,0.0,-27.24,-22.86,-4.02,,adl
10.0668,-0.0155,0.0613,0.1856,-0.0021,-0.0048,-0.0011,-27.24,-22.86,-4.02,,adl
10.08834,-0.0155,0.0613,0.1856,-0.0021,-0.0048,-0.0011,-27.12,-23.22,-4.08,,adl
10.089838,-0.0155,0.0613,0.1856,-0.0021,0.008,0.0032,-27.12,-23.22,-4.08,,adl
10.104533,-0.0155,0.0613,0.1856,-0.0021,0.008,0.0032,-27.12,-23.22,-4.08,,adl
10.106033,0.0004,0.0589,0.1377,-0.0021,0.008,0.0032,-27.12,-23.22,-4.08,,adl
10.109932,0.0004,0.0589,0.1377,-0.0037,0.0064,0.0011,-27.12,-23.22,-4.08,,adl
10.12828,0.0004,0.0589,0.1377,-0.0005,-0.0011,0.0,-27.12,-23.22,-4.08,,adl
10.148932,0.0004,0.0589,0.1377,-0.0005,-0.0011,0.0,-26.58,-22.98,-4.56,,adl
10.150469,0.0004,0.0589,0.1377,0.0,-0.0048,0.0011,-26.58,-22.98,-4.56,,adl
10.165911,0.0004,0.0589,0.1377,0.0,-0.0048,0.0011,-26.58,-22.98,-4.56,,adl
10.167355,0.0076,-0.0097,0.1567,0.0,-0.0048,0.0011,-26.58,-22.98,-4.56,,adl
10.169655,0.0076,-0.0097,0.1567,0.0,-0.0059,0.0011,-26.58,-22.98,-4.56,,adl
10.189842,0.0076,-0.0097,0.1567,0.0011,0.0005,0.0,-26.58,-22.98,-4.56,,adl
10.210611,0.0076,-0.0097,0.1567,0.0011,0.0005,0.0,-26.16,-22.68,-4.74,,adl
10.212265,0.0076,-0.0097,0.1567,0.0043,0.0016,-0.0011,-26.16,-22.68,-4.74,,adl
10.22632,0.0076,-0.0097,0.1567,0.0043,0.0016,-0.0011,-26.16,-22.68,-4.74,,adl
10.227764,-0.0027,0.0108,0.1473,0.0043,0.0016,-0.0011,-26.16,-22.68,-4.74,,adl
10.230339,-0.0027,0.0108,0.1473,0.0053,-0.0011,-0.0011,-26.16,-22.68,-4.74,,adl
10.252166,-0.0027,0.0108,0.1473,0.0048,-0.0053,-0.0011,-26.16,-22.68,-4.74,,adl
10.272972,-0.0027,0.0108,0.1473,0.0048,-0.0053,-0.0011,-26.22,-22.2,-4.86,,adl
10.274717,-0.0027,0.0108,0.1473,0.0,-0.0053,-0.0005,-26.22,-22.2,-4.86,,adl
10.287908,-0.0027,0.0108,0.1473,0.0,-0.0053,-0.0005,-26.22,-22.2,-4.86,,adl
10.288857,-0.0096,-0.0005,0.1523,0.0,-0.0053,-0.0005,-26.22,-22.2,-4.86,,adl
10.291901,-0.0096,-0.0005,0.1523,0.0,-0.0005,0.0,-26.22,-22.2,-4.86,,adl
10.312308,-0.0096,-0.0005,0.1523,0.0016,-0.0016,0.0005,-26.22,-22.2,-4.86,,adl
10.333322,-0.0096,-0.0005,0.1523,0.0016,-0.0016,0.0005,-26.46,-22.2,-4.8,,adl
10.334658,-0.0096,-0.0005,0.1523,0.0032,-0.0043,-0.0011,-26.46,-22.2,-4.8,,adl
10.349103,-0.0096,-0.0005,0.1523,0.0032,-0.0043,-0.0011,-26.46,-22.2,-4.8,,adl
10.35072,-0.0061,0.044,0.1524,0.0032,-0.0043,-0.0011,-26.46,-22.2,-4.8,,adl
10.352743,-0.0061,0.044,0.1524,0.0021,-0.0048,0.0011,-26.46,-22.2,-4.8,,adl
10.37391,-0.0061,0.044,0.1524,0.0027,-0.0032,-0.0005,-26.46,-22.2,-4.8,,adl
10.394566,-0.0061,0.044,0.1524,0.0027,-0.0032,-0.0005,-26.82,-22.5,-4.92,,adl
10.395928,-0.0061,0.044,0.1524,0.0,0.0005,-0.0005,-26.82,-22.5,-4.92,,adl
10.410911,-0.0061,0.044,0.1524,0.0,0.0005,-0.0005,-26.82,-22.5,-4.92,,adl
10.412308,0.0044,-0.0093,0.1549,0.0,0.0005,-0.0005,-26.82,-22.5,-4.92,,adl
10.415333,0.0044,-0.0093,0.1549,0.0005,0.0021,-0.0016,-26.82,-22.5,-4.92,,adl
10.435354,0.0044,-0.0093,0.1549,-0.0005,-0.0005,-0.0021,-26.82,-22.5,-4.92,,adl
10.457874,0.0044,-0.0093,0.1549,-0.0005,-0.0005,-0.0021,-27.54,-22.68,-5.22,,adl
10.459297,0.0044,-0.0093,0.1549,0.0,-0.0059,0.0,-27.54,-22.68,-5.22,,adl
10.472992,0.0044,-0.0093,0.1549,0.0,-0.0059,0.0,-27.54,-22.68,-5.22,,adl
10.473859,-0.0011,0.029,0.174,0.0,-0.0059,0.0,-27.54,-22.68,-5.22,,adl
10.476932,-0.0011,0.029,0.174,0.0032,-0.0037,0.0005,-27.54,-22.68,-5.22,,adl
10.497605,-0.0011,0.029,0.174,0.0032,0.0011,0.0005,-27.54,-22.68,-5.22,,adl
10.518218,-0.0011,0.029,0.174,0.0032,0.0011,0.0005,-27.36,-22.86,-5.58,,adl
10.520544,-0.0011,0.029,0.174,-0.0005,-0.0011,0.0011,-27.36,-22.86,-5.58,,adl
10.533768,-0.0011,0.029,0.174,-0.0005,-0.0011,0.0011,-27.36,-22.86,-5.58,,adl
10.535019,0.0005,-0.0053,0.1502,-0.0005,-0.0011,0.0011,-27.36,-22.86,-5.58,,adl
10.537593,0.0005,-0.0053,0.1502,-0.0021,-0.0053,0.0011,-27.36,-22.86,-5.58,,adl
10.558754,0.0005,-0.0053,0.1502,0.0005,-0.0075,0.0011,-27.36,-22.86,-5.58,,adl
10.5803,0.0005,-0.0053,0.1502,0.0005,-0.0075,0.0011,-26.82,-22.38,-5.34,,adl
10.58267,0.0005,-0.0053,0.1502,-0.0011,-0.0016,-0.0016,-26.82,-22.38,-5.34,,adl
10.596478,0.0005,-0.0053,0.1502,-0.0011,-0.0016,-0.0016,-26.82,-22.38,-5.34,,adl
10.599371,0.0048,0.0168,0.1525,-0.0011,-0.0016,-0.0016,-26.82,-22.38,-5.34,,adl
10.601227,0.0048,0.0168,0.1525,0.0021,0.0005,-0.0011,-26.82,-22.38,-5.34,,adl
10.62109,0.0048,0.0168,0.1525,0.0011,0.0,-0.0011,-26.82,-22.38,-5.34,,adl
10.641467,0.0048,0.0168,0.1525,0.0011,0.0,-0.0011,-26.46,-22.68,-5.16,,adl
10.643636,0.0048,0.0168,0.1525,-0.0005,-0.0037,-0.0021,-26.46,-22.68,-5.16,,adl
10.659747,0.0048,0.0168,0.1525,-0.0005,-0.0037,-0.0021,-26.46,-22.68,-5.16,,adl
10.661646,0.0089,-0.0047,0.1741,-0.0005,-0.0037,-0.0021,-26.46,-22.68,-5.16,,adl
10.663253,0.0089,-0.0047,0.1741,0.0005,-0.0043,-0.0021,-26.46,-22.68,-5.16,,adl
10.682229,0.0089,-0.0047,0.1741,0.0027,-0.0021,-0.0005,-26.46,-22.68,-5.16,,adl
10.703549,0.0089,-0.0047,0.1741,0.0027,-0.0021,-0.0005,-26.28,-23.04,-5.1,,adl
10.705881,0.0089,-0.0047,0.1741,0.0027,0.0,-0.0021,-26.28,-23.04,-5.1,,adl
10.719539,0.0089,-0.0047,0.1741,0.0027,0.0,-0.0021,-26.28,-23.04,-5.1,,adl
10.721804,-0.0114,0.0205,0.1503,0.0027,0.0,-0.0021,-26.28,-23.04,-5.1,,adl
10.72315,-0.0114,0.0205,0.1503,0.0005,-0.0016,0.0,-26.28,-23.04,-5.1,,adl
10.744007,-0.0114,0.0205,0.1503,0.0,-0.0021,-0.0005,-26.28,-23.04,-5.1,,adl
10.765505,-0.0114,0.0205,0.1503,0.0,-0.0021,-0.0005,-25.98,-22.86,-5.16,,adl
10.767258,-0.0114,0.0205,0.1503,0.0005,0.0005,0.0,-25.98,-22.86,-5.16,,adl
10.780634,-0.0114,0.0205,0.1503,0.0005,0.0005,0.0,-25.98,-22.86,-5.16,,adl
10.78235,0.0212,0.0039,0.1431,0.0005,0.0005,0.0,-25.98,-22.86,-5.16,,adl
10.784456,0.0212,0.0039,0.1431,0.0021,0.0,-0.0005,-25.98,-22.86,-5.16,,adl
10.804985,0.0212,0.0039,0.1431,0.0005,-0.0016,-0.0027,-25.98,-22.86,-5.16,,adl
10.826873,0.0212,0.0039,0.1431,0.0005,-0.0016,-0.0027,-26.4,-23.28,-5.34,,adl
10.829155,0.0212,0.0039,0.1431,0.0011,0.0,-0.0005,-26.4,-23.28,-5.34,,adl
10.842176,0.0212,0.0039,0.1431,0.0011,0.0,-0.0005,-26.4,-23.28,-5.34,,adl
10.844258,0.0132,0.0786,0.1601,0.0011,0.0,-0.0005,-26.4,-23.28,-5.34,,adl
10.84624,0.0132,0.0786,0.1601,0.0011,-0.0016,-0.0016,-26.4,-23.28,-5.34,,adl
10.866939,0.0132,0.0786,0.1601,-0.0011,-0.0085,-0.0021,-26.4,-23.28,-5.34,,adl
10.887935,0.0132,0.0786,0.1601,-0.0011,-0.0085,-0.0021,-26.7,-23.04,-5.28,,adl
10.891014,0.0132,0.0786,0.1601,-0.0032,0.0043,-0.0016,-26.7,-23.04,-5.28,,adl
10.903974,0.0132,0.0786,0.1601,-0.0032,0.0043,-0.0016,-26.7,-23.04,-5.28,,adl
10.905686,-0.0046,-0.0281,0.1743,-0.0032,0.0043,-0.0016,-26.7,-23.04,-5.28,,adl
10.907798,-0.0046,-0.0281,0.1743,-0.0075,0.024,-0.0005,-26.7,-23.04,-5.28,,adl
10.928706,-0.0046,-0.0281,0.1743,0.0005,0.0069,-0.0053,-26.7,-23.04,-5.28,,adl
10.949759,-0.0046,-0.0281,0.1743,0.0005,0.0069,-0.0053,-26.64,-22.8,-4.92,,adl
10.952059,-0.0046,-0.0281,0.1743,-0.0005,-0.0064,-0.0032,-26.64,-22.8,-4.92,,adl
10.965891,-0.0046,-0.0281,0.1743,-0.0005,-0.0064,-0.0032,-26.64,-22.8,-4.92,,adl
10.9683,-0.021,0.038,0.1286,-0.0005,-0.0064,-0.0032,-26.64,-22.8,-4.92,,adl
10.970017,-0.021,0.038,0.1286,-0.0032,0.0112,0.0,-26.64,-22.8,-4.92,,adl
10.990769,-0.021,0.038,0.1286,-0.0027,0.0128,0.0027,-26.64,-22.8,-4.92,,adl
11.011369,-0.021,0.038,0.1286,-0.0027,0.0128,0.0027,-26.64,-22.8,-5.16,,adl
11.014116,-0.021,0.038,0.1286,-0.0053,-0.0053,-0.0021,-26.64,-22.8,-5.16,,adl
11.028284,-0.021,0.038,0.1286,-0.0053,-0.0053,-0.0021,-26.64,-22.8,-5.16,,adl
11.031139,-0.0005,-0.0144,0.1786,-0.0053,-0.0053,-0.0021,-26.64,-22.8,-5.16,,adl
11.034452,-0.0005,-0.0144,0.1786,0.0005,-0.0101,0.0011,-26.64,-22.8,-5.16,,adl
11.050841,-0.0005,-0.0144,0.1786,0.0037,-0.0059,-0.0016,-26.64,-22.8,-5.16,,adl
11.07328,-0.0005,-0.0144,0.1786,0.0037,0.0053,-0.0016,-26.64,-22.8,-5.16,,adl
11.07573,-0.0005,-0.0144,0.1786,0.0037,0.0053,-0.0016,-26.64,-22.92,-4.92,,adl
11.089763,-0.0005,-0.0144,0.1786,0.0037,0.0053,-0.0016,-26.64,-22.92,-4.92,,adl
11.092543,0.0115,-0.026,0.1498,0.0037,0.0053,-0.0016,-26.64,-22.92,-4.92,,adl
11.094093,0.0115,-0.026,0.1498,0.0032,0.0085,-0.0011,-26.64,-22.92,-4.92,,adl
11.112802,0.0115,-0.026,0.1498,0.0037,-0.0021,-0.0011,-26.64,-22.92,-4.92,,adl
11.134232,0.0115,-0.026,0.1498,0.0048,-0.0117,-0.0005,-26.64,-22.92,-4.92,,adl
11.136456,0.0115,-0.026,0.1498,0.0048,-0.0117,-0.0005,-26.88,-22.98,-4.92,,adl
11.150044,0.0115,-0.026,0.1498,0.0048,-0.0117,-0.0005,-26.88,-22.98,-4.92,,adl
11.152286,-0.0202,0.006,0.126,0.0048,-0.0117,-0.0005,-26.88,-22.98,-4.92,,adl
11.153731,-0.0202,0.006,0.126,0.0,-0.0037,-0.0016,-26.88,-22.98,-4.92,,adl
11.174194,-0.0202,0.006,0.126,0.0,0.0059,-0.0011,-26.88,-22.98,-4.92,,adl
11.196425,-0.0202,0.006,0.126,0.0,0.0059,-0.0011,-26.34,-22.92,-5.22,,adl
11.19861,-0.0202,0.006,0.126,0.0,-0.0048,-0.0005,-26.34,-22.92,-5.22,,adl
11.211965,-0.0202,0.006,0.126,0.0,-0.0048,-0.0005,-26.34,-22.92,-5.22,,adl
11.214278,-0.0108,0.0182,0.1595,0.0,-0.0048,-0.0005,-26.34,-22.92,-5.22,,adl
11.216674,-0.0108,0.0182,0.1595,0.0016,-0.0064,0.0005,-26.34,-22.92,-5.22,,adl
11.236081,-0.0108,0.0182,0.1595,0.0021,-0.0005,0.0,-26.34,-22.92,-5.22,,adl
11.256959,-0.0108,0.0182,0.1595,0.0021,-0.0005,0.0,-26.46,-22.92,-4.8,,adl
11.258255,-0.0108,0.0182,0.1595,0.0016,0.0053,-0.0016,-26.46,-22.92,-4.8,,adl
11.273078,-0.0108,0.0182,0.1595,0.0016,0.0053,-0.0016,-26.46,-22.92,-4.8,,adl
11.273933,0.0176,0.0244,0.1477,0.0016,0.0053,-0.0016,-26.46,-22.92,-4.8,,adl
11.276678,0.0176,0.0244,0.1477,-0.0021,0.0,-0.0032,-26.46,-22.92,-4.8,,adl
11.298516,0.0176,0.0244,0.1477,-0.0005,-0.0005,-0.0037,-26.46,-22.92,-4.8,,adl
11.319754,0.0176,0.0244,0.1477,-0.0005,-0.0005,-0.0037,-26.04,-22.62,-5.28,,adl
11.321332,0.0176,0.0244,0.1477,0.0,-0.0016,-0.0027,-26.04,-22.62,-5.28,,adl
11.334967,0.0176,0.0244,0.1477,0.0,-0.0016,-0.0027,-26.04,-22.62,-5.28,,adl
11.336512,0.0031,0.0081,0.1596,0.0,-0.0016,-0.0027,-26.04,-22.62,-5.28,,adl
11.338002,0.0031,0.0081,0.1596,0.0032,-0.0011,-0.0027,-26.04,-22.62,-5.28,,adl
11.359539,0.0031,0.0081,0.1596,0.0021,0.0016,0.0011,-26.04,-22.62,-5.28,,adl
11.381222,0.0031,0.0081,0.1596,0.0021,0.0016,0.0011,-25.56,-22.38,-5.58,,adl
11.382674,0.0031,0.0081,0.1596,0.0021,0.0043,0.0005,-25.56,-22.38,-5.58,,adl
11.397436,0.0031,0.0081,0.1596,0.0021,0.0043,0.0005,-25.56,-22.38,-5.58,,adl
11.398854,-0.0103,0.0138,0.1358,0.0021,0.0043,0.0005,-25.56,-22.38,-5.58,,adl
11.401407,-0.0103,0.0138,0.1358,-0.0005,0.0016,0.0005,-25.56,-22.38,-5.58,,adl
11.421437,-0.0103,0.0138,0.1358,-0.0005,-0.0032,0.0011,-25.56,-22.38,-5.58,,adl
11.443027,-0.0103,0.0138,0.1358,-0.0005,-0.0032,0.0011,-25.92,-22.2,-5.76,,adl
11.444712,-0.0103,0.0138,0.1358,-0.0021,-0.0016,0.0005,-25.92,-22.2,-5.76,,adl
11.459317,-0.0103,0.0138,0.1358,-0.0021,-0.0016,0.0005,-25.92,-22.2,-5.76,,adl
11.460723,0.0105,0.0193,0.1597,-0.0021,-0.0016,0.0005,-25.92,-22.2,-5.76,,adl
11.461777,0.0105,0.0193,0.1597,0.0011,0.0032,-0.0011,-25.92,-22.2,-5.76,,adl
11.483638,0.0105,0.0193,0.1597,0.0016,0.0021,-0.0027,-25.92,-22.2,-5.76,,adl
11.505377,0.0105,0.0193,0.1597,0.0016,0.0021,-0.0027,-25.98,-22.5,-5.82,,adl
11.507098,0.0105,0.0193,0.1597,0.0021,0.0011,-0.0011,-25.98,-22.5,-5.82,,adl
11.520574,0.0105,0.0193,0.1597,0.0021,0.0011,-0.0011,-25.98,-22.5,-5.82,,adl
11.522234,-0.026,-0.0005,0.143,0.0021,0.0011,-0.0011,-25.98,-22.5,-5.82,,adl
11.523576,-0.026,-0.0005,0.143,0.0,0.0011,0.0011,-25.98,-22.5,-5.82,,adl
11.544907,-0.026,-0.0005,0.143,-0.0011,-0.0021,-0.0005,-25.98,-22.5,-5.82,,adl
11.566519,-0.026,-0.0005,0.143,-0.0011,-0.0021,-0.0005,-26.52,-22.38,-5.7,,adl
11.568218,-0.026,-0.0005,0.143,-0.0027,-0.0016,0.0016,-26.52,-22.38,-5.7,,adl
11.582238,-0.026,-0.0005,0.143,-0.0027,-0.0016,0.0016,-26.52,-22.38,-5.7,,adl
11.583715,-0.0095,0.0055,0.1596,-0.0027,-0.0016,0.0016,-26.52,-22.38,-5.7,,adl
11.58455,-0.0095,0.0055,0.1596,0.0021,0.0016,0.0005,-26.52,-22.38,-5.7,,adl
11.607588,-0.0095,0.0055,0.1596,0.0,0.0005,0.0005,-26.52,-22.38,-5.7,,adl
11.627267,-0.0095,0.0055,0.1596,0.0,0.0005,0.0005,-26.94,-22.38,-5.4,,adl
11.628804,-0.0095,0.0055,0.1596,0.0016,0.0011,0.0011,-26.94,-22.38,-5.4,,adl
11.64434,-0.0095,0.0055,0.1596,0.0016,0.0011,0.0011,-26.94,-22.38,-5.4,,adl
11.645743,0.0102,-0.0019,0.1525,0.0016,0.0011,0.0011,-26.94,-22.38,-5.4,,adl
11.646583,0.0102,-0.0019,0.1525,0.0021,0.0021,-0.0011,-26.94,-22.38,-5.4,,adl
11.668145,0.0102,-0.0019,0.1525,0.0016,0.0027,0.0,-26.94,-22.38,-5.4,,adl
11.689724,0.0102,-0.0019,0.1525,0.0016,0.0027,0.0,-26.64,-22.44,-4.92,,adl
11.691464,0.0102,-0.0019,0.1525,0.0032,0.0021,0.0011,-26.64,-22.44,-4.92,,adl
11.705896,0.0102,-0.0019,0.1525,0.0032,0.0021,0.0011,-26.64,-22.44,-4.92,,adl
11.707037,-0.0028,0.0446,0.1479,0.0032,0.0021,0.0011,-26.64,-22.44,-4.92,,adl
11.708196,-0.0028,0.0446,0.1479,0.0,-0.0069,0.0011,-26.64,-22.44,-4.92,,adl
11.731003,-0.0028,0.0446,0.1479,-0.0037,-0.0085,0.0,-26.64,-22.44,-4.92,,adl
11.750303,-0.0028,0.0446,0.1479,-0.0037,-0.0085,0.0,-26.94,-22.14,-4.56,,adl
11.751659,-0.0028,0.0446,0.1479,-0.0043,0.0133,0.0016,-26.94,-22.14,-4.56,,adl
11.766831,-0.0028,0.0446,0.1479,-0.0043,0.0133,0.0016,-26.94,-22.14,-4.56,,adl
11.7685,0.0062,0.0389,0.1979,-0.0043,0.0133,0.0016,-26.94,-22.14,-4.56,,adl
11.769588,0.0062,0.0389,0.1979,-0.0043,0.0229,-0.0005,-26.94,-22.14,-4.56,,adl
11.790571,0.0062,0.0389,0.1979,0.0032,-0.0011,0.0016,-26.94,-22.14,-4.56,,adl
11.812181,0.0062,0.0389,0.1979,0.0032,-0.0011,0.0016,-26.7,-22.32,-4.44,,adl
11.813663,0.0062,0.0389,0.1979,-0.0011,-0.0011,0.0,-26.7,-22.32,-4.44,,adl
11.828454,0.0062,0.0389,0.1979,-0.0011,-0.0011,0.0,-26.7,-22.32,-4.44,,adl
11.829975,-0.0064,0.0226,0.1261,-0.0011,-0.0011,0.0,-26.7,-22.32,-4.44,,adl
11.831627,-0.0064,0.0226,0.1261,-0.0016,0.0144,0.0032,-26.7,-22.32,-4.44,,adl
11.853064,-0.0064,0.0226,0.1261,-0.0021,0.0059,0.0032,-26.7,-22.32,-4.44,,adl
11.873437,-0.0064,0.0226,0.1261,-0.0021,0.0059,0.0032,-26.46,-22.8,-4.44,,adl
11.875013,-0.0064,0.0226,0.1261,0.0,-0.0096,-0.0005,-26.46,-22.8,-4.44,,adl
11.889797,-0.0064,0.0226,0.1261,0.0,-0.0096,-0.0005,-26.46,-22.8,-4.44,,adl
11.890744,-0.0021,-0.0308,0.1618,0.0,-0.0096,-0.0005,-26.46,-22.8,-4.44,,adl
11.894539,-0.0021,-0.0308,0.1618,0.0016,-0.0096,0.0005,-26.46,-22.8,-4.44,,adl
11.914164,-0.0021,-0.0308,0.1618,0.0043,-0.0011,0.0011,-26.46,-22.8,-4.44,,adl
11.934898,-0.0021,-0.0308,0.1618,0.0043,-0.0011,0.0011,-26.88,-22.98,-4.5,,adl
11.93655,-0.0021,-0.0308,0.1618,0.0021,0.0069,0.0,-26.88,-22.98,-4.5,,adl
11.951303,-0.0021,-0.0308,0.1618,0.0021,0.0069,0.0,-26.88,-22.98,-4.5,,adl
11.953007,0.0136,-0.0027,0.1642,0.0021,0.0069,0.0,-26.88,-22.98,-4.5,,adl
11.954273,0.0136,-0.0027,0.1642,0.0032,-0.0021,0.0011,-26.88,-22.98,-4.5,,adl
11.975772,0.0136,-0.0027,0.1642,0.0027,-0.0123,0.0005,-26.88,-22.98,-4.5,,adl
11.997261,0.0136,-0.0027,0.1642,0.0027,-0.0123,0.0005,-26.52,-23.16,-4.98,,adl
11.998774,0.0136,-0.0027,0.1642,0.0037,-0.0128,0.0005,-26.52,-23.16,-4.98,,adl
12.013478,0.0136,-0.0027,0.1642,0.0037,-0.0128,0.0005,-26.52,-23.16,-4.98,,adl
12.015066,-0.0109,0.0172,0.1381,0.0037,-0.0128,0.0005,-26.52,-23.16,-4.98,,adl
12.016249,-0.0109,0.0172,0.1381,0.0,-0.0005,0.0011,-26.52,-23.16,-4.98,,adl
12.037475,-0.0109,0.0172,0.1381,0.0011,0.0021,0.0016,-26.52,-23.16,-4.98,,adl
12.058852,-0.0109,0.0172,0.1381,0.0011,0.0021,0.0016,-26.88,-23.28,-4.98,,adl
12.060763,-0.0109,0.0172,0.1381,-0.0005,-0.008,0.0,-26.88,-23.28,-4.98,,adl
12.073756,-0.0109,0.0172,0.1381,-0.0005,-0.008,0.0,-26.88,-23.28,-4.98,,adl
12.074605,-0.0026,0.0031,0.1596,-0.0005,-0.008,0.0,-26.88,-23.28,-4.98,,adl
12.077679,-0.0026,0.0031,0.1596,0.0005,-0.0059,0.0021,-26.88,-23.28,-4.98,,adl
12.099196,-0.0026,0.0031,0.1596,0.0005,0.0,0.0016,-26.88,-23.28,-4.98,,adl
12.120059,-0.0026,0.0031,0.1596,0.0005,0.0,0.0016,-27.0,-22.98,-4.74,,adl
12.121718,-0.0026,0.0031,0.1596,0.0,-0.0005,-0.0005,-27.0,-22.98,-4.74,,adl
12.136282,-0.0026,0.0031,0.1596,0.0,-0.0005,-0.0005,-27.0,-22.98,-4.74,,adl
12.137858,0.0152,0.0196,0.162,0.0,-0.0005,-0.0005,-27.0,-22.98,-4.74,,adl
12.139133,0.0152,0.0196,0.162,0.0016,0.0,-0.0011,-27.0,-22.98,-4.74,,adl
12.160041,0.0152,0.0196,0.162,-0.0011,-0.0027,0.0005,-27.0,-22.98,-4.74,,adl
12.181932,0.0152,0.0196,0.162,-0.0011,-0.0027,0.0005,-26.64,-22.5,-4.8,,adl
12.183612,0.0152,0.0196,0.162,0.0011,0.0,0.0016,-26.64,-22.5,-4.8,,adl
12.197327,0.0152,0.0196,0.162,0.0011,0.0,0.0016,-26.64,-22.5,-4.8,,adl
12.198695,-0.0045,0.0076,0.162,0.0011,0.0,0.0016,-26.64,-22.5,-4.8,,adl
12.200431,-0.0045,0.0076,0.162,0.0027,-0.0011,0.0,-26.64,-22.5,-4.8,,adl
12.222302,-0.0045,0.0076,0.162,0.0,-0.0011,-0.0021,-26.64,-22.5,-4.8,,adl
12.243613,-0.0045,0.0076,0.162,0.0,-0.0011,-0.0021,-26.52,-22.38,-4.56,,adl
12.245038,-0.0045,0.0076,0.162,0.0,-0.0016,0.0,-26.52,-22.38,-4.56,,adl
12.260515,-0.0045,0.0076,0.162,0.0,-0.0016,0.0,-26.52,-22.38,-4.56,,adl
12.262006,-0.0052,0.0026,0.1453,0.0,-0.0016,0.0,-26.52,-22.38,-4.56,,adl
12.26481,-0.0052,0.0026,0.1453,-0.0011,-0.0053,0.0021,-26.52,-22.38,-4.56,,adl
12.283352,-0.0052,0.0026,0.1453,-0.0011,-0.0021,0.0011,-26.52,-22.38,-4.56,,adl
12.305075,-0.0052,0.0026,0.1453,-0.0011,-0.0021,0.0011,-26.04,-22.38,-4.26,,adl
12.306786,-0.0052,0.0026,0.1453,0.0011,-0.0016,-0.0005,-26.04,-22.38,-4.26,,adl
12.321087,-0.0052,0.0026,0.1453,0.0011,-0.0016,-0.0005,-26.04,-22.38,-4.26,,adl
12.322764,-0.0045,0.0079,0.162,0.0011,-0.0016,-0.0005,-26.04,-22.38,-4.26,,adl
12.32667,-0.0045,0.0079,0.162,0.0005,0.0005,-0.0005,-26.04,-22.38,-4.26,,adl
12.345724,-0.0045,0.0079,0.162,0.0032,0.0005,-0.0011,-26.04,-22.38,-4.26,,adl
12.366108,-0.0045,0.0079,0.162,0.0032,0.0005,-0.0011,-25.68,-22.2,-4.32,,adl
12.367519,-0.0045,0.0079,0.162,0.0021,0.0011,-0.0005,-25.68,-22.2,-4.32,,adl
12.382443,-0.0045,0.0079,0.162,0.0021,0.0011,-0.0005,-25.68,-22.2,-4.32,,adl
12.383902,-0.0134,0.0094,0.1525,0.0021,0.0011,-0.0005,-25.68,-22.2,-4.32,,adl
12.386076,-0.0134,0.0094,0.1525,0.0016,0.0021,-0.0011,-25.68,-22.2,-4.32,,adl
12.406821,-0.0134,0.0094,0.1525,0.0,-0.0037,-0.0005,-25.68,-22.2,-4.32,,adl
12.427948,-0.0134,0.0094,0.1525,0.0,-0.0037,-0.0005,-25.92,-22.56,-4.44,,adl
12.42949,-0.0134,0.0094,0.1525,0.0005,-0.0027,0.0016,-25.92,-22.56,-4.44,,adl
12.444419,-0.0134,0.0094,0.1525,0.0005,-0.0027,0.0016,-25.92,-22.56,-4.44,,adl
12.445935,-0.0023,0.0162,0.1478,0.0005,-0.0027,0.0016,-25.92,-22.56,-4.44,,adl
12.446859,-0.0023,0.0162,0.1478,0.0011,-0.0005,-0.0016,-25.92,-22.56,-4.44,,adl
12.468715,-0.0023,0.0162,0.1478,0.0016,-0.0016,0.0,-25.92,-22.56,-4.44,,adl
12.489728,-0.0023,0.0162,0.1478,0.0016,-0.0016,0.0,-26.16,-22.62,-4.74,,adl
12.491607,-0.0023,0.0162,0.1478,0.0005,-0.0027,0.0011,-26.16,-22.62,-4.74,,adl
12.505877,-0.0023,0.0162,0.1478,0.0005,-0.0027,0.0011,-26.16,-22.62,-4.74,,adl
12.506922,-0.0032,0.0061,0.155,0.0005,-0.0027,0.0011,-26.16,-22.62,-4.74,,adl
12.511025,-0.0032,0.0061,0.155,0.0016,0.0,-0.0005,-26.16,-22.62,-4.74,,adl
12.530022,-0.0032,0.0061,0.155,0.0011,0.0005,0.0,-26.16,-22.62,-4.74,,adl
12.551707,-0.0032,0.0061,0.155,0.0011,0.0005,0.0,-26.52,-22.86,-4.8,,adl
12.553292,-0.0032,0.0061,0.155,0.0011,-0.0005,-0.0005,-26.52,-22.86,-4.8,,adl
12.567553,-0.0032,0.0061,0.155,0.0011,-0.0005,-0.0005,-26.52,-22.86,-4.8,,adl
12.569059,-0.003,0.0601,0.1552,0.0011,-0.0005,-0.0005,-26.52,-22.86,-4.8,,adl
12.569891,-0.003,0.0601,0.1552,0.0011,-0.0043,0.0,-26.52,-22.86,-4.8,,adl
12.591145,-0.003,0.0601,0.1552,0.0,-0.0075,0.0,-26.52,-22.86,-4.8,,adl
12.612415,-0.003,0.0601,0.1552,0.0,-0.0075,0.0,-27.18,-23.22,-4.8,,adl
12.613766,-0.003,0.0601,0.1552,-0.0032,-0.0043,-0.0005,-27.18,-23.22,-4.8,,adl
12.629708,-0.003,0.0601,0.1552,-0.0032,-0.0043,-0.0005,-27.18,-23.22,-4.8,,adl
12.631229,-0.0104,-0.0594,0.1477,-0.0032,-0.0043,-0.0005,-27.18,-23.22,-4.8,,adl
12.633946,-0.0104,-0.0594,0.1477,-0.0107,0.0213,-0.0011,-27.18,-23.22,-4.8,,adl
12.653453,-0.0104,-0.0594,0.1477,-0.0027,0.0154,-0.0011,-27.18,-23.22,-4.8,,adl
12.674713,-0.0104,-0.0594,0.1477,-0.0027,0.0154,-0.0011,-27.0,-23.28,-4.8,,adl
12.676376,-0.0104,-0.0594,0.1477,-0.0011,-0.0043,-0.0027,-27.0,-23.28,-4.8,,adl
12.690499,-0.0104,-0.0594,0.1477,-0.0011,-0.0043,-0.0027,-27.0,-23.28,-4.8,,adl
12.691631,-0.0181,0.0369,0.1305,-0.0011,-0.0043,-0.0027,-27.0,-23.28,-4.8,,adl
12.695668,-0.0181,0.0369,0.1305,-0.0011,0.0027,0.0027,-27.0,-23.28,-4.8,,adl
12.714008,-0.0181,0.0369,0.1305,-0.0021,0.0101,0.0021,-27.0,-23.28,-4.8,,adl
12.735947,-0.0181,0.0369,0.1305,-0.0021,0.0101,0.0021,-27.0,-23.04,-4.8,,adl
12.737411,-0.0181,0.0369,0.1305,-0.0027,0.0,-0.0005,-27.0,-23.04,-4.8,,adl
12.752221,-0.0181,0.0369,0.1305,-0.0027,0.0,-0.0005,-27.0,-23.04,-4.8,,adl
12.753316,0.0035,-0.0,0.1543,-0.0027,0.0,-0.0005,-27.0,-23.04,-4.8,,adl
12.755048,0.0035,-0.0,0.1543,-0.0011,-0.0069,0.0,-27.0,-23.04,-4.8,,adl
12.771286,0.0035,-0.0,0.1543,-0.0011,-0.0069,0.0,-27.0,-23.04,-4.8,,adl
12.772592,0.0093,-0.0378,0.1614,-0.0011,-0.0069,0.0,-27.0,-23.04,-4.8,,adl
12.779199,0.0093,-0.0378,0.1614,0.0,-0.0048,0.0,-27.0,-23.04,-4.8,,adl
12.796597,0.0093,-0.0378,0.1614,0.0,-0.0048,0.0,-27.0,-23.04,-4.8,,adl
12.797881,0.0107,-0.0253,0.1542,0.0,-0.0048,0.0,-27.0,-23.04,-4.8,,adl
12.798891,0.0107,-0.0253,0.1542,0.0,-0.0048,0.0,-26.94,-22.74,-5.34,,adl
12.799685,0.0107,-0.0253,0.1542,0.0027,0.0005,-0.0021,-26.94,-22.74,-5.34,,adl
12.812826,0.0107,-0.0253,0.1542,0.0027,0.0005,-0.0021,-26.94,-22.74,-5.34,,adl
12.814227,0.0203,-0.0109,0.1589,0.0027,0.0005,-0.0021,-26.94,-22.74,-5.34,,adl
12.816361,0.0203,-0.0109,0.1589,0.0027,0.0048,-0.0016,-26.94,-22.74,-5.34,,adl
12.833389,0.0203,-0.0109,0.1589,0.0027,0.0048,-0.0016,-26.94,-22.74,-5.34,,adl
12.834739,-0.0051,0.0057,0.159,0.0027,0.0048,-0.0016,-26.94,-22.74,-5.34,,adl
12.836859,-0.0051,0.0057,0.159,0.0048,0.0027,-0.0011,-26.94,-22.74,-5.34,,adl
12.854053,-0.0051,0.0057,0.159,0.0048,0.0027,-0.0011,-26.94,-22.74,-5.34,,adl
12.85593,-0.038,0.0312,0.1519,0.0048,0.0027,-0.0011,-26.94,-22.74,-5.34,,adl
12.859267,-0.038,0.0312,0.1519,0.0048,0.0027,-0.0011,-26.16,-22.38,-5.82,,adl
12.860649,-0.038,0.0312,0.1519,0.0048,-0.0075,-0.0011,-26.16,-22.38,-5.82,,adl
12.874317,-0.038,0.0312,0.1519,0.0048,-0.0075,-0.0011,-26.16,-22.38,-5.82,,adl
12.875337,-0.0178,0.0232,0.1281,0.0048,-0.0075,-0.0011,-26.16,-22.38,-5.82,,adl
12.878971,-0.0178,0.0232,0.1281,0.0021,-0.0101,-0.0016,-26.16,-22.38,-5.82,,adl
12.895635,-0.0178,0.0232,0.1281,0.0021,-0.0101,-0.0016,-26.16,-22.38,-5.82,,adl
12.897113,0.0066,0.0132,0.1449,0.0021,-0.0101,-0.0016,-26.16,-22.38,-5.82,,adl
12.899291,0.0066,0.0132,0.1449,0.0,-0.0011,0.0005,-26.16,-22.38,-5.82,,adl
12.916172,0.0066,0.0132,0.1449,0.0,-0.0011,0.0005,-26.16,-22.38,-5.82,,adl
12.917629,-0.0103,-0.001,0.1544,0.0,-0.0011,0.0005,-26.16,-22.38,-5.82,,adl
12.920049,-0.0103,-0.001,0.1544,0.0,-0.0011,0.0005,-26.52,-22.62,-6.18,,adl
12.921,-0.0103,-0.001,0.1544,0.0,0.0,0.0011,-26.52,-22.62,-6.18,,adl
12.936027,-0.0103,-0.001,0.1544,0.0,0.0,0.0011,-26.52,-22.62,-6.18,,adl
12.937473,-0.0103,0.0158,0.1664,0.0,0.0,0.0011,-26.52,-22.62,-6.18,,adl
12.939346,-0.0103,0.0158,0.1664,0.0,-0.0069,-0.0005,-26.52,-22.62,-6.18,,adl
12.957633,-0.0103,0.0158,0.1664,0.0,-0.0069,-0.0005,-26.52,-22.62,-6.18,,adl
12.959326,0.0003,0.0398,0.1544,0.0,-0.0069,-0.0005,-26.52,-22.62,-6.18,,adl
12.96064,0.0003,0.0398,0.1544,0.0032,-0.0059,-0.0021,-26.52,-22.62,-6.18,,adl
12.977196,0.0003,0.0398,0.1544,0.0032,-0.0059,-0.0021,-26.52,-22.62,-6.18,,adl
12.978525,0.0112,0.0559,0.1305,0.0032,-0.0059,-0.0021,-26.52,-22.62,-6.18,,adl
12.981941,0.0112,0.0559,0.1305,0.0032,-0.0059,-0.0021,-26.4,-22.74,-6.54,,adl
12.982935,0.0112,0.0559,0.1305,0.0021,-0.0032,-0.0021,-26.4,-22.74,-6.54,,adl
12.998347,0.0112,0.0559,0.1305,0.0021,-0.0032,-0.0021,-26.4,-22.74,-6.54,,adl
13.000199,0.0345,0.0291,0.133,0.0021,-0.0032,-0.0021,-26.4,-22.74,-6.54,,adl
13.001255,0.0345,0.0291,0.133,-0.0016,0.0011,-0.0021,-26.4,-22.74,-6.54,,adl
13.018577,0.0345,0.0291,0.133,-0.0016,0.0011,-0.0021,-26.4,-22.74,-6.54,,adl
13.02034,0.0132,-0.0137,0.1497,-0.0016,0.0011,-0.0021,-26.4,-22.74,-6.54,,adl
13.021177,0.0132,-0.0137,0.1497,-0.0011,0.0005,-0.0048,-26.4,-22.74,-6.54,,adl
13.039309,0.0132,-0.0137,0.1497,-0.0011,0.0005,-0.0048,-26.4,-22.74,-6.54,,adl
13.041087,-0.0201,-0.0182,0.1736,-0.0011,0.0005,-0.0048,-26.4,-22.74,-6.54,,adl
13.042787,-0.0201,-0.0182,0.1736,-0.0011,0.0005,-0.0048,-26.22,-23.28,-6.36,,adl
13.043809,-0.0201,-0.0182,0.1736,-0.0011,0.0016,-0.0043,-26.22,-23.28,-6.36,,adl
13.059328,-0.0201,-0.0182,0.1736,-0.0011,0.0016,-0.0043,-26.22,-23.28,-6.36,,adl
13.060671,-0.0148,-0.013,0.1664,-0.0011,0.0016,-0.0043,-26.22,-23.28,-6.36,,adl
13.06279,-0.0148,-0.013,0.1664,0.0005,-0.0005,-0.0011,-26.22,-23.28,-6.36,,adl
13.079888,-0.0148,-0.013,0.1664,0.0005,-0.0005,-0.0011,-26.22,-23.28,-6.36,,adl
13.081403,-0.0101,0.0158,0.1616,0.0005,-0.0005,-0.0011,-26.22,-23.28,-6.36,,adl
13.083342,-0.0101,0.0158,0.1616,0.0027,-0.0032,0.0005,-26.22,-23.28,-6.36,,adl
13.099625,-0.0101,0.0158,0.1616,0.0027,-0.0032,0.0005,-26.22,-23.28,-6.36,,adl
13.100935,-0.0083,0.0153,0.1569,0.0027,-0.0032,0.0005,-26.22,-23.28,-6.36,,adl
13.104678,-0.0083,0.0153,0.1569,0.0027,-0.0032,0.0005,-26.94,-23.4,-6.66,,adl
13.105523,-0.0083,0.0153,0.1569,0.0016,0.0027,-0.0016,-26.94,-23.4,-6.66,,adl
13.120935,-0.0083,0.0153,0.1569,0.0016,0.0027,-0.0016,-26.94,-23.4,-6.66,,adl
13.122315,-0.0149,0.0198,0.1306,0.0016,0.0027,-0.0016,-26.94,-23.4,-6.66,,adl
13.126004,-0.0149,0.0198,0.1306,0.0005,0.008,0.0,-26.94,-23.4,-6.66,,adl
13.142874,-0.0149,0.0198,0.1306,0.0005,0.008,0.0,-26.94,-23.4,-6.66,,adl
13.144318,-0.0085,0.0221,0.1426,0.0005,0.008,0.0,-26.94,-23.4,-6.66,,adl
13.145374,-0.0085,0.0221,0.1426,-0.0011,0.0016,-0.0005,-26.94,-23.4,-6.66,,adl
13.161264,-0.0085,0.0221,0.1426,-0.0011,0.0016,-0.0005,-26.94,-23.4,-6.66,,adl
13.16179,0.0062,0.0271,0.1617,-0.0011,0.0016,-0.0005,-26.94,-23.4,-6.66,,adl
13.16569,0.0062,0.0271,0.1617,-0.0011,0.0016,-0.0005,-26.64,-23.22,-6.78,,adl
13.165984,0.0062,0.0271,0.1617,-0.0032,-0.0048,0.0,-26.64,-23.22,-6.78,,adl
13.181786,0.0062,0.0271,0.1617,-0.0032,-0.0048,0.0,-26.64,-23.22,-6.78,,adl
13.182762,-0.0067,0.0182,0.1592,-0.0032,-0.0048,0.0,-26.64,-23.22,-6.78,,adl
13.185493,-0.0067,0.0182,0.1592,-0.0005,-0.0032,-0.0011,-26.64,-23.22,-6.78,,adl
13.201931,-0.0067,0.0182,0.1592,-0.0005,-0.0032,-0.0011,-26.64,-23.22,-6.78,,adl
13.20234,0.0095,0.0183,0.164,-0.0005,-0.0032,-0.0011,-26.64,-23.22,-6.78,,adl
13.205901,0.0095,0.0183,0.164,0.0021,0.0043,-0.0027,-26.64,-23.22,-6.78,,adl
13.223041,0.0095,0.0183,0.164,0.0021,0.0043,-0.0027,-26.64,-23.22,-6.78,,adl
13.223776,-0.0136,0.0059,0.1545,0.0021,0.0043,-0.0027,-26.64,-23.22,-6.78,,adl
13.227919,-0.0136,0.0059,0.1545,0.0021,0.0043,-0.0027,-26.22,-23.46,-6.6,,adl
13.228407,-0.0136,0.0059,0.1545,0.0032,0.0037,-0.0027,-26.22,-23.46,-6.6,,adl
13.244499,-0.0136,0.0059,0.1545,0.0032,0.0037,-0.0027,-26.22,-23.46,-6.6,,adl
13.245209,-0.0152,0.0077,0.145,0.0032,0.0037,-0.0027,-26.22,-23.46,-6.6,,adl
13.248127,-0.0152,0.0077,0.145,0.0032,-0.0005,-0.0027,-26.22,-23.46,-6.6,,adl
13.264935,-0.0152,0.0077,0.145,0.0032,-0.0005,-0.0027,-26.22,-23.46,-6.6,,adl
13.266253,-0.0104,0.0142,0.1355,0.0032,-0.0005,-0.0027,-26.22,-23.46,-6.6,,adl
13.268484,-0.0104,0.0142,0.1355,0.0011,0.0005,-0.0011,-26.22,-23.46,-6.6,,adl
13.285872,-0.0104,0.0142,0.1355,0.0011,0.0005,-0.0011,-26.22,-23.46,-6.6,,adl
13.287144,-0.0102,0.0117,0.1522,0.0011,0.0005,-0.0011,-26.22,-23.46,-6.6,,adl
13.290382,-0.0102,0.0117,0.1522,0.0011,0.0005,-0.0011,-26.04,-22.8,-6.9,,adl
13.291272,-0.0102,0.0117,0.1522,-0.0016,-0.0021,-0.0011,-26.04,-22.8,-6.9,,adl
13.30562,-0.0102,0.0117,0.1522,-0.0016,-0.0021,-0.0011,-26.04,-22.8,-6.9,,adl
13.306732,-0.0034,0.0025,0.157,-0.0016,-0.0021,-0.0011,-26.04,-22.8,-6.9,,adl
13.309926,-0.0034,0.0025,0.157,0.0,-0.0005,0.0005,-26.04,-22.8,-6.9,,adl
13.327233,-0.0034,0.0025,0.157,0.0,-0.0005,0.0005,-26.04,-22.8,-6.9,,adl
13.328774,0.0037,0.0049,0.1618,0.0,-0.0005,0.0005,-26.04,-22.8,-6.9,,adl
13.330072,0.0037,0.0049,0.1618,0.0021,0.0011,0.0,-26.04,-22.8,-6.9,,adl
13.34704,0.0037,0.0049,0.1618,0.0021,0.0011,0.0,-26.04,-22.8,-6.9,,adl
13.348379,0.0063,0.0237,0.1522,0.0021,0.0011,0.0,-26.04,-22.8,-6.9,,adl
13.351569,0.0063,0.0237,0.1522,0.0021,0.0011,0.0,-25.2,-22.56,-6.9,,adl
13.352418,0.0063,0.0237,0.1522,0.0005,-0.0011,-0.0021,-25.2,-22.56,-6.9,,adl
13.367151,0.0063,0.0237,0.1522,0.0005,-0.0011,-0.0021,-25.2,-22.56,-6.9,,adl
13.368767,-0.0058,0.0188,0.1475,0.0005,-0.0011,-0.0021,-25.2,-22.56,-6.9,,adl
13.371911,-0.0058,0.0188,0.1475,0.0016,0.0005,-0.0027,-25.2,-22.56,-6.9,,adl
13.38808,-0.0058,0.0188,0.1475,0.0016,0.0005,-0.0027,-25.2,-22.56,-6.9,,adl
13.389603,-0.0152,0.0304,0.1451,0.0016,0.0005,-0.0027,-25.2,-22.56,-6.9,,adl
13.393694,-0.0152,0.0304,0.1451,0.0021,0.0027,-0.0005,-25.2,-22.56,-6.9,,adl
13.409418,-0.0152,0.0304,0.1451,0.0021,0.0027,-0.0005,-25.2,-22.56,-6.9,,adl
13.410662,-0.0075,0.006,0.1308,0.0021,0.0027,-0.0005,-25.2,-22.56,-6.9,,adl
13.412399,-0.0075,0.006,0.1308,0.0021,0.0027,-0.0005,-25.2,-22.74,-6.78,,adl
13.413189,-0.0075,0.006,0.1308,0.0011,-0.0005,-0.0005,-25.2,-22.74,-6.78,,adl
13.429771,-0.0075,0.006,0.1308,0.0011,-0.0005,-0.0005,-25.2,-22.74,-6.78,,adl
13.431549,-0.01,0.0082,0.1476,0.0011,-0.0005,-0.0005,-25.2,-22.74,-6.78,,adl
13.432921,-0.01,0.0082,0.1476,0.0,-0.0037,0.0,-25.2,-22.74,-6.78,,adl
13.449972,-0.01,0.0082,0.1476,0.0,-0.0037,0.0,-25.2,-22.74,-6.78,,adl
13.451707,-0.0107,0.037,0.1548,0.0,-0.0037,0.0,-25.2,-22.74,-6.78,,adl
13.452938,-0.0107,0.037,0.1548,-0.0011,-0.0011,0.0,-25.2,-22.74,-6.78,,adl
13.47075,-0.0107,0.037,0.1548,-0.0011,-0.0011,0.0,-25.2,-22.74,-6.78,,adl
13.472402,-0.0061,0.0825,0.1476,-0.0011,-0.0011,0.0,-25.2,-22.74,-6.78,,adl
13.476573,-0.0061,0.0825,0.1476,-0.0011,-0.0011,0.0,-25.44,-22.74,-6.72,,adl
13.478126,-0.0061,0.0825,0.1476,0.0027,-0.0005,0.0011,-25.44,-22.74,-6.72,,adl
13.491262,-0.0061,0.0825,0.1476,0.0027,-0.0005,0.0011,-25.44,-22.74,-6.72,,adl
13.492438,0.0106,-0.021,0.1477,0.0027,-0.0005,0.0011,-25.44,-22.74,-6.72,,adl
13.496276,0.0106,-0.021,0.1477,0.0005,-0.0053,-0.0016,-25.44,-22.74,-6.72,,adl
13.510726,0.0106,-0.021,0.1477,0.0005,-0.0053,-0.0016,-25.44,-22.74,-6.72,,adl
13.512181,0.0191,-0.1161,0.15,0.0005,-0.0053,-0.0016,-25.44,-22.74,-6.72,,adl
13.514368,0.0191,-0.1161,0.15,-0.0016,0.0027,-0.0005,-25.44,-22.74,-6.72,,adl
13.531854,0.0191,-0.1161,0.15,-0.0016,0.0027,-0.0005,-25.44,-22.74,-6.72,,adl
13.533294,-0.0044,-0.0358,0.1642,-0.0016,0.0027,-0.0005,-25.44,-22.74,-6.72,,adl
13.536499,-0.0044,-0.0358,0.1642,-0.0016,0.0027,-0.0005,-25.8,-22.68,-6.84,,adl
13.537489,-0.0044,-0.0358,0.1642,-0.0064,0.0245,0.0005,-25.8,-22.68,-6.84,,adl
13.552624,-0.0044,-0.0358,0.1642,-0.0064,0.0245,0.0005,-25.8,-22.68,-6.84,,adl
13.554223,-0.0162,0.0804,0.1808,-0.0064,0.0245,0.0005,-25.8,-22.68,-6.84,,adl
13.555502,-0.0162,0.0804,0.1808,-0.0016,0.0112,-0.0043,-25.8,-22.68,-6.84,,adl
13.573406,-0.0162,0.0804,0.1808,-0.0016,0.0112,-0.0043,-25.8,-22.68,-6.84,,adl
13.575026,-0.0235,0.0712,0.1185,-0.0016,0.0112,-0.0043,-25.8,-22.68,-6.84,,adl
13.576079,-0.0235,0.0712,0.1185,-0.0011,-0.0043,-0.0027,-25.8,-22.68,-6.84,,adl
13.594141,-0.0235,0.0712,0.1185,-0.0011,-0.0043,-0.0027,-25.8,-22.68,-6.84,,adl
13.596008,-0.0194,0.0378,0.1161,-0.0011,-0.0043,-0.0027,-25.8,-22.68,-6.84,,adl
13.597273,-0.0194,0.0378,0.1161,-0.0011,-0.0043,-0.0027,-25.74,-22.62,-6.6,,adl
13.59816,-0.0194,0.0378,0.1161,-0.0021,0.0154,0.0011,-25.74,-22.62,-6.6,,adl
13.613651,-0.0194,0.0378,0.1161,-0.0021,0.0154,0.0011,-25.74,-22.62,-6.6,,adl
13.61496,0.0148,0.0621,0.1519,-0.0021,0.0154,0.0011,-25.74,-22.62,-6.6,,adl
13.617869,0.0148,0.0621,0.1519,-0.0043,0.0123,-0.0005,-25.74,-22.62,-6.6,,adl
13.635047,0.0148,0.0621,0.1519,-0.0043,0.0123,-0.0005,-25.74,-22.62,-6.6,,adl
13.636727,0.0076,0.0412,0.1806,-0.0043,0.0123,-0.0005,-25.74,-22.62,-6.6,,adl
13.637862,0.0076,0.0412,0.1806,-0.0027,-0.0037,-0.0032,-25.74,-22.62,-6.6,,adl
13.655169,0.0076,0.0412,0.1806,-0.0027,-0.0037,-0.0032,-25.74,-22.62,-6.6,,adl
13.656792,-0.0122,-0.0134,0.1805,-0.0027,-0.0037,-0.0032,-25.74,-22.62,-6.6,,adl
13.659806,-0.0122,-0.0134,0.1805,-0.0027,-0.0037,-0.0032,-25.92,-22.32,-6.48,,adl
13.660931,-0.0122,-0.0134,0.1805,0.0016,-0.0096,-0.0016,-25.92,-22.32,-6.48,,adl
13.676804,-0.0122,-0.0134,0.1805,0.0016,-0.0096,-0.0016,-25.92,-22.32,-6.48,,adl
13.678224,-0.0069,-0.04,0.1374,0.0016,-0.0096,-0.0016,-25.92,-22.32,-6.48,,adl
13.679303,-0.0069,-0.04,0.1374,0.0037,-0.0037,-0.0016,-25.92,-22.32,-6.48,,adl
13.697102,-0.0069,-0.04,0.1374,0.0037,-0.0037,-0.0016,-25.92,-22.32,-6.48,,adl
13.69869,-0.0004,-0.0284,0.1614,0.0037,-0.0037,-0.0016,-25.92,-22.32,-6.48,,adl
13.700088,-0.0004,-0.0284,0.1614,0.0011,0.0032,0.0005,-25.92,-22.32,-6.48,,adl
13.717308,-0.0004,-0.0284,0.1614,0.0011,0.0032,0.0005,-25.92,-22.32,-6.48,,adl
13.718915,0.0003,-0.0163,0.1566,0.0011,0.0032,0.0005,-25.92,-22.32,-6.48,,adl
13.720204,0.0003,-0.0163,0.1566,0.0011,0.0032,0.0005,-26.28,-22.56,-6.96,,adl
13.721233,0.0003,-0.0163,0.1566,0.0021,0.0027,-0.0005,-26.28,-22.56,-6.96,,adl
13.736714,0.0003,-0.0163,0.1566,0.0021,0.0027,-0.0005,-26.28,-22.56,-6.96,,adl
13.738271,-0.0016,0.0242,0.1662,0.0021,0.0027,-0.0005,-26.28,-22.56,-6.96,,adl
13.740689,-0.0016,0.0242,0.1662,0.0037,-0.0027,-0.0011,-26.28,-22.56,-6.96,,adl
13.757466,-0.0016,0.0242,0.1662,0.0037,-0.0027,-0.0011,-26.28,-22.56,-6.96,,adl
13.758981,-0.014,0.0402,0.1376,0.0037,-0.0027,-0.0011,-26.28,-22.56,-6.96,,adl
13.761095,-0.014,0.0402,0.1376,0.0037,-0.0133,-0.0016,-26.28,-22.56,-6.96,,adl
13.777625,-0.014,0.0402,0.1376,0.0037,-0.0133,-0.0016,-26.28,-22.56,-6.96,,adl
13.779066,-0.0071,0.018,0.1353,0.0037,-0.0133,-0.0016,-26.28,-22.56,-6.96,,adl
13.78231,-0.0071,0.018,0.1353,0.0037,-0.0133,-0.0016,-25.98,-22.92,-6.66,,adl
13.783135,-0.0071,0.018,0.1353,0.0,-0.0043,-0.0021,-25.98,-22.92,-6.66,,adl
13.798408,-0.0071,0.018,0.1353,0.0,-0.0043,-0.0021,-25.98,-22.92,-6.66,,adl
13.800142,-0.0055,0.0227,0.1592,0.0,-0.0043,-0.0021,-25.98,-22.92,-6.66,,adl
13.80171,-0.0055,0.0227,0.1592,0.0005,0.0037,-0.0016,-25.98,-22.92,-6.66,,adl
13.818219,-0.0055,0.0227,0.1592,0.0005,0.0037,-0.0016,-25.98,-22.92,-6.66,,adl
13.819603,-0.0119,0.025,0.1664,0.0005,0.0037,-0.0016,-25.98,-22.92,-6.66,,adl
13.822487,-0.0119,0.025,0.1664,0.0011,-0.0011,-0.0005,-25.98,-22.92,-6.66,,adl
13.839969,-0.0119,0.025,0.1664,0.0011,-0.0011,-0.0005,-25.98,-22.92,-6.66,,adl
13.841652,-0.0097,0.02,0.1641,0.0011,-0.0011,-0.0005,-25.98,-22.92,-6.66,,adl
13.843142,-0.0097,0.02,0.1641,-0.0005,-0.0059,0.0,-25.98,-22.92,-6.66,,adl
13.844103,-0.0097,0.02,0.1641,-0.0005,-0.0059,0.0,-26.46,-23.1,-6.3,,adl
13.859178,-0.0097,0.02,0.1641,-0.0005,-0.0059,0.0,-26.46,-23.1,-6.3,,adl
13.859934,-0.0061,0.0249,0.1377,-0.0005,-0.0059,0.0,-26.46,-23.1,-6.3,,adl
13.86314,-0.0061,0.0249,0.1377,0.0021,-0.0016,0.0,-26.46,-23.1,-6.3,,adl
13.880516,-0.0061,0.0249,0.1377,0.0021,-0.0016,0.0,-26.46,-23.1,-6.3,,adl
13.881611,0.0128,0.046,0.1426,0.0021,-0.0016,0.0,-26.46,-23.1,-6.3,,adl
13.883664,0.0128,0.046,0.1426,0.0016,-0.0005,-0.0011,-26.46,-23.1,-6.3,,adl
13.900323,0.0128,0.046,0.1426,0.0016,-0.0005,-0.0011,-26.46,-23.1,-6.3,,adl
13.90132,0.0103,0.029,0.1474,0.0016,-0.0005,-0.0011,-26.46,-23.1,-6.3,,adl
13.904929,0.0103,0.029,0.1474,0.0016,-0.0005,-0.0011,-26.28,-23.4,-6.54,,adl
13.905453,0.0103,0.029,0.1474,-0.0005,0.0021,-0.0027,-26.28,-23.4,-6.54,,adl
13.920669,0.0103,0.029,0.1474,-0.0005,0.0021,-0.0027,-26.28,-23.4,-6.54,,adl
13.921508,0.0108,-0.0116,0.1713,-0.0005,0.0021,-0.0027,-26.28,-23.4,-6.54,,adl
13.925031,0.0108,-0.0116,0.1713,-0.0011,0.0032,0.0,-26.28,-23.4,-6.54,,adl
13.941507,0.0108,-0.0116,0.1713,-0.0011,0.0032,0.0,-26.28,-23.4,-6.54,,adl
13.943005,-0.0101,-0.009,0.1665,-0.0011,0.0032,0.0,-26.28,-23.4,-6.54,,adl
13.945224,-0.0101,-0.009,0.1665,-0.0005,-0.0027,-0.0005,-26.28,-23.4,-6.54,,adl
13.961805,-0.0101,-0.009,0.1665,-0.0005,-0.0027,-0.0005,-26.28,-23.4,-6.54,,adl
13.962731,-0.0034,0.0103,0.1545,-0.0005,-0.0027,-0.0005,-26.28,-23.4,-6.54,,adl
13.966014,-0.0034,0.0103,0.1545,-0.0005,-0.0027,-0.0005,-26.34,-23.46,-6.48,,adl
13.96638,-0.0034,0.0103,0.1545,0.0005,-0.0027,0.0005,-26.34,-23.46,-6.48,,adl
13.98228,-0.0034,0.0103,0.1545,0.0005,-0.0027,0.0005,-26.34,-23.46,-6.48,,adl
13.98318,-0.0064,0.0079,0.1473,0.0005,-0.0027,0.0005,-26.34,-23.46,-6.48,,adl
13.986203,-0.0064,0.0079,0.1473,0.0021,0.0032,0.0016,-26.34,-23.46,-6.48,,adl
14.003092,-0.0064,0.0079,0.1473,0.0021,0.0032,0.0016,-26.34,-23.46,-6.48,,adl
14.004421,-0.0153,0.0123,0.1378,0.0021,0.0032,0.0016,-26.34,-23.46,-6.48,,adl
14.007919,-0.0153,0.0123,0.1378,0.0027,0.0032,0.0016,-26.34,-23.46,-6.48,,adl
14.026992,-0.0153,0.0123,0.1378,0.0027,0.0032,0.0016,-26.34,-23.46,-6.48,,adl
14.028513,-0.0099,0.0214,0.1403,0.0027,0.0032,0.0016,-26.34,-23.46,-6.48,,adl
14.029312,-0.0099,0.0214,0.1403,0.0027,0.0032,0.0016,-26.58,-23.04,-6.54,,adl
14.030037,-0.0099,0.0214,0.1403,-0.0016,0.0011,0.0027,-26.58,-23.04,-6.54,,adl
14.044293,-0.0099,0.0214,0.1403,-0.0016,0.0011,0.0027,-26.58,-23.04,-6.54,,adl
14.045591,0.007,0.0241,0.145,-0.0016,0.0011,0.0027,-26.58,-23.04,-6.54,,adl
14.04781,0.007,0.0241,0.145,-0.0011,-0.0032,0.0016,-26.58,-23.04,-6.54,,adl
14.065142,0.007,0.0241,0.145,-0.0011,-0.0032,0.0016,-26.58,-23.04,-6.54,,adl
14.066425,0.0063,0.0195,0.145,-0.0011,-0.0032,0.0016,-26.58,-23.04,-6.54,,adl
14.068888,0.0063,0.0195,0.145,-0.0005,-0.0016,0.0005,-26.58,-23.04,-6.54,,adl
14.085667,0.0063,0.0195,0.145,-0.0005,-0.0016,0.0005,-26.58,-23.04,-6.54,,adl
14.087028,0.0084,0.0244,0.1569,-0.0005,-0.0016,0.0005,-26.58,-23.04,-6.54,,adl
14.090013,0.0084,0.0244,0.1569,-0.0005,-0.0016,0.0005,-26.58,-23.1,-7.2,,adl
14.090809,0.0084,0.0244,0.1569,0.0,0.0005,-0.0016,-26.58,-23.1,-7.2,,adl
14.105832,0.0084,0.0244,0.1569,0.0,0.0005,-0.0016,-26.58,-23.1,-7.2,,adl
14.106915,-0.0083,0.0052,0.1593,0.0,0.0005,-0.0016,-26.58,-23.1,-7.2,,adl
14.110143,-0.0083,0.0052,0.1593,0.0032,0.0021,-0.0021,-26.58,-23.1,-7.2,,adl
14.12699,-0.0083,0.0052,0.1593,0.0032,0.0021,-0.0021,-26.58,-23.1,-7.2,,adl
14.128559,-0.0269,-0.0025,0.1474,0.0032,0.0021,-0.0021,-26.58,-23.1,-7.2,,adl
14.130518,-0.0269,-0.0025,0.1474,0.0005,0.0016,0.0016,-26.58,-23.1,-7.2,,adl
14.146699,-0.0269,-0.0025,0.1474,0.0005,0.0016,0.0016,-26.58,-23.1,-7.2,,adl
14.148055,-0.005,-0.0073,0.1427,0.0005,0.0016,0.0016,-26.58,-23.1,-7.2,,adl
14.151346,-0.005,-0.0073,0.1427,0.0005,0.0016,0.0016,-26.34,-22.92,-6.6,,adl
14.152121,-0.005,-0.0073,0.1427,-0.0011,-0.0011,0.0011,-26.34,-22.92,-6.6,,adl
14.16763,-0.005,-0.0073,0.1427,-0.0011,-0.0011,0.0011,-26.34,-22.92,-6.6,,adl
14.168723,-0.0052,0.0026,0.1474,-0.0011,-0.0011,0.0011,-26.34,-22.92,-6.6,,adl
14.171181,-0.0052,0.0026,0.1474,0.0,-0.0016,0.0037,-26.34,-22.92,-6.6,,adl
14.187583,-0.0052,0.0026,0.1474,0.0,-0.0016,0.0037,-26.34,-22.92,-6.6,,adl
14.188034,-0.0032,0.0051,0.1522,0.0,-0.0016,0.0037,-26.34,-22.92,-6.6,,adl
14.191842,-0.0032,0.0051,0.1522,-0.0005,-0.0016,0.0021,-26.34,-22.92,-6.6,,adl
14.208856,-0.0032,0.0051,0.1522,-0.0005,-0.0016,0.0021,-26.34,-22.92,-6.6,,adl
14.2097,-0.0011,0.0196,0.1498,-0.0005,-0.0016,0.0021,-26.34,-22.92,-6.6,,adl
14.213258,-0.0011,0.0196,0.1498,-0.0005,-0.0016,0.0021,-25.68,-22.44,-6.78,,adl
14.213825,-0.0011,0.0196,0.1498,0.0027,0.0011,0.0005,-25.68,-22.44,-6.78,,adl
14.229324,-0.0011,0.0196,0.1498,0.0027,0.0011,0.0005,-25.68,-22.44,-6.78,,adl
14.23047,-0.0009,0.0239,0.1642,0.0027,0.0011,0.0005,-25.68,-22.44,-6.78,,adl
14.232944,-0.0009,0.0239,0.1642,0.0011,0.0011,-0.0005,-25.68,-22.44,-6.78,,adl
14.249927,-0.0009,0.0239,0.1642,0.0011,0.0011,-0.0005,-25.68,-22.44,-6.78,,adl
14.251116,-0.0055,0.0284,0.1523,0.0011,0.0011,-0.0005,-25.68,-22.44,-6.78,,adl
14.254305,-0.0055,0.0284,0.1523,0.0027,0.0016,0.0011,-25.68,-22.44,-6.78,,adl
14.270388,-0.0055,0.0284,0.1523,0.0027,0.0016,0.0011,-25.68,-22.44,-6.78,,adl
14.272112,-0.0028,0.0183,0.1475,0.0027,0.0016,0.0011,-25.68,-22.44,-6.78,,adl
14.276292,-0.0028,0.0183,0.1475,0.0027,0.0016,0.0011,-25.86,-22.62,-6.72,,adl
14.277617,-0.0028,0.0183,0.1475,0.0011,0.0005,-0.0005,-25.86,-22.62,-6.72,,adl
14.293286,-0.0028,0.0183,0.1475,0.0011,0.0005,-0.0005,-25.86,-22.62,-6.72,,adl
14.294761,-0.0003,0.0085,0.1524,0.0011,0.0005,-0.0005,-25.86,-22.62,-6.72,,adl
14.29574,-0.0003,0.0085,0.1524,0.0005,-0.0005,0.0027,-25.86,-22.62,-6.72,,adl
14.311642,-0.0003,0.0085,0.1524,0.0005,-0.0005,0.0027,-25.86,-22.62,-6.72,,adl
14.313091,-0.0148,0.006,0.1452,0.0005,-0.0005,0.0027,-25.86,-22.62,-6.72,,adl
14.315781,-0.0148,0.006,0.1452,-0.0011,-0.0021,0.0032,-25.86,-22.62,-6.72,,adl
14.331942,-0.0148,0.006,0.1452,-0.0011,-0.0021,0.0032,-25.86,-22.62,-6.72,,adl
14.333427,0.0062,0.0517,0.1475,-0.0011,-0.0021,0.0032,-25.86,-22.62,-6.72,,adl
14.336326,0.0062,0.0517,0.1475,-0.0011,-0.0021,0.0032,-25.86,-22.62,-6.66,,adl
14.337121,0.0062,0.0517,0.1475,0.0021,-0.0011,0.0027,-25.86,-22.62,-6.66,,adl
14.353052,0.0062,0.0517,0.1475,0.0021,-0.0011,0.0027,-25.86,-22.62,-6.66,,adl
14.354502,0.0227,0.0298,0.1524,0.0021,-0.0011,0.0027,-25.86,-22.62,-6.66,,adl
14.356733,0.0227,0.0298,0.1524,0.0016,-0.0048,-0.0011,-25.86,-22.62,-6.66,,adl
14.373387,0.0227,0.0298,0.1524,0.0016,-0.0048,-0.0011,-25.86,-22.62,-6.66,,adl
14.374924,0.0002,-0.0732,0.1452,0.0016,-0.0048,-0.0011,-25.86,-22.62,-6.66,,adl
14.376773,0.0002,-0.0732,0.1452,0.0,-0.0032,0.0005,-25.86,-22.62,-6.66,,adl
14.393376,0.0002,-0.0732,0.1452,0.0,-0.0032,0.0005,-25.86,-22.62,-6.66,,adl
14.394682,0.0114,-0.0675,0.1475,0.0,-0.0032,0.0005,-25.86,-22.62,-6.66,,adl
14.398347,0.0114,-0.0675,0.1475,0.0,-0.0032,0.0005,-25.68,-22.62,-7.02,,adl
14.399342,0.0114,-0.0675,0.1475,-0.0053,0.0154,0.0011,-25.68,-22.62,-7.02,,adl
14.414508,0.0114,-0.0675,0.1475,-0.0053,0.0154,0.0011,-25.68,-22.62,-7.02,,adl
14.416062,-0.0072,0.0463,0.1784,-0.0053,0.0154,0.0011,-25.68,-22.62,-7.02,,adl
14.417511,-0.0072,0.0463,0.1784,-0.0048,0.0202,-0.0011,-25.68,-22.62,-7.02,,adl
14.435502,-0.0072,0.0463,0.1784,-0.0048,0.0202,-0.0011,-25.68,-22.62,-7.02,,adl
14.437006,-0.0438,0.052,0.152,-0.0048,0.0202,-0.0011,-25.68,-22.62,-7.02,,adl
14.43854,-0.0438,0.052,0.152,-0.0005,-0.0005,0.0021,-25.68,-22.62,-7.02,,adl
14.455257,-0.0438,0.052,0.152,-0.0005,-0.0005,0.0021,-25.68,-22.62,-7.02,,adl
14.456758,-0.0319,0.0258,0.1137,-0.0005,-0.0005,0.0021,-25.68,-22.62,-7.02,,adl
14.459162,-0.0319,0.0258,0.1137,-0.0005,-0.0005,0.0021,-26.16,-22.92,-6.6,,adl
14.460061,-0.0319,0.0258,0.1137,-0.0016,0.0037,0.0016,-26.16,-22.92,-6.6,,adl
14.475717,-0.0319,0.0258,0.1137,-0.0016,0.0037,0.0016,-26.16,-22.92,-6.6,,adl
14.476971,-0.0072,0.0428,0.1376,-0.0016,0.0037,0.0016,-26.16,-22.92,-6.6,,adl
14.480365,-0.0072,0.0428,0.1376,-0.0053,0.0107,0.0043,-26.16,-22.92,-6.6,,adl
14.496844,-0.0072,0.0428,0.1376,-0.0053,0.0107,0.0043,-26.16,-22.92,-6.6,,adl
14.498327,0.014,0.07,0.1782,-0.0053,0.0107,0.0043,-26.16,-22.92,-6.6,,adl
14.501284,0.014,0.07,0.1782,-0.0037,-0.0021,0.0,-26.16,-22.92,-6.6,,adl
14.516728,0.014,0.07,0.1782,-0.0037,-0.0021,0.0,-26.16,-22.92,-6.6,,adl
14.518184,-0.0032,0.0204,0.1781,-0.0037,-0.0021,0.0,-26.16,-22.92,-6.6,,adl
14.521363,-0.0032,0.0204,0.1781,-0.0037,-0.0021,0.0,-25.56,-22.98,-7.08,,adl
14.522278,-0.0032,0.0204,0.1781,0.0,-0.0107,0.0011,-25.56,-22.98,-7.08,,adl
14.537398,-0.0032,0.0204,0.1781,0.0,-0.0107,0.0011,-25.56,-22.98,-7.08,,adl
14.538939,0.0018,-0.0298,0.1565,0.0,-0.0107,0.0011,-25.56,-22.98,-7.08,,adl
14.541982,0.0018,-0.0298,0.1565,0.0021,-0.0064,0.0005,-25.56,-22.98,-7.08,,adl
14.558512,0.0018,-0.0298,0.1565,0.0021,-0.0064,0.0005,-25.56,-22.98,-7.08,,adl
14.559852,-0.0066,-0.0253,0.1374,0.0021,-0.0064,0.0005,-25.56,-22.98,-7.08,,adl
14.561254,-0.0066,-0.0253,0.1374,0.0016,0.0021,0.0011,-25.56,-22.98,-7.08,,adl
14.579031,-0.0066,-0.0253,0.1374,0.0016,0.0021,0.0011,-25.56,-22.98,-7.08,,adl
14.580355,0.0153,-0.0182,0.1542,0.0016,0.0021,0.0011,-25.56,-22.98,-7.08,,adl
14.582157,0.0153,-0.0182,0.1542,0.0016,0.0021,0.0011,-25.5,-23.16,-6.48,,adl
14.58289,0.0153,-0.0182,0.1542,0.0011,0.0005,0.0016,-25.5,-23.16,-6.48,,adl
14.598361,0.0153,-0.0182,0.1542,0.0011,0.0005,0.0016,-25.5,-23.16,-6.48,,adl
14.599198,0.0106,0.001,0.1662,0.0011,0.0005,0.0016,-25.5,-23.16,-6.48,,adl
14.602482,0.0106,0.001,0.1662,0.0032,-0.0016,0.0,-25.5,-23.16,-6.48,,adl
14.618534,0.0106,0.001,0.1662,0.0032,-0.0016,0.0,-25.5,-23.16,-6.48,,adl
14.618951,0.0007,0.0339,0.1543,0.0032,-0.0016,0.0,-25.5,-23.16,-6.48,,adl
14.62255,0.0007,0.0339,0.1543,0.0059,-0.0075,0.0011,-25.5,-23.16,-6.48,,adl
14.63931,0.0007,0.0339,0.1543,0.0059,-0.0075,0.0011,-25.5,-23.16,-6.48,,adl
14.639877,-0.0104,0.04,0.1496,0.0059,-0.0075,0.0011,-25.5,-23.16,-6.48,,adl
14.643848,-0.0104,0.04,0.1496,0.0059,-0.0075,0.0011,-25.8,-23.16,-6.24,,adl
14.644228,-0.0104,0.04,0.1496,0.0048,-0.0085,-0.0011,-25.8,-23.16,-6.24,,adl
14.659704,-0.0104,0.04,0.1496,0.0048,-0.0085,-0.0011,-25.8,-23.16,-6.24,,adl
14.660188,-0.0049,0.0198,0.1425,0.0048,-0.0085,-0.0011,-25.8,-23.16,-6.24,,adl
14.663299,-0.0049,0.0198,0.1425,0.0027,-0.0005,-0.0005,-25.8,-23.16,-6.24,,adl
14.680049,-0.0049,0.0198,0.1425,0.0027,-0.0005,-0.0005,-25.8,-23.16,-6.24,,adl
14.680585,-0.0146,0.0241,0.1618,0.0027,-0.0005,-0.0005,-25.8,-23.16,-6.24,,adl
14.684158,-0.0146,0.0241,0.1618,-0.0016,0.0011,0.0016,-25.8,-23.16,-6.24,,adl
14.70074,-0.0146,0.0241,0.1618,-0.0016,0.0011,0.0016,-25.8,-23.16,-6.24,,adl
14.701196,-0.0144,0.0053,0.1689,-0.0016,0.0011,0.0016,-25.8,-23.16,-6.24,,adl
14.704976,-0.0144,0.0053,0.1689,-0.0016,0.0011,0.0016,-25.68,-23.58,-6.42,,adl
14.705323,-0.0144,0.0053,0.1689,0.0005,-0.0053,0.0005,-25.68,-23.58,-6.42,,adl
14.721201,-0.0144,0.0053,0.1689,0.0005,-0.0053,0.0005,-25.68,-23.58,-6.42,,adl
14.721675,-0.013,-0.0067,0.1593,0.0005,-0.0053,0.0005,-25.68,-23.58,-6.42,,adl
14.729443,-0.013,-0.0067,0.1593,-0.0005,-0.008,0.0027,-25.68,-23.58,-6.42,,adl
14.741634,-0.013,-0.0067,0.1593,-0.0005,-0.008,0.0027,-25.68,-23.58,-6.42,,adl
14.74206,0.0022,0.0174,0.1449,-0.0005,-0.008,0.0027,-25.68,-23.58,-6.42,,adl
14.74533,0.0022,0.0174,0.1449,-0.0005,-0.0037,0.0011,-25.68,-23.58,-6.42,,adl
14.762246,0.0022,0.0174,0.1449,-0.0005,-0.0037,0.0011,-25.68,-23.58,-6.42,,adl
14.762715,0.0181,0.0295,0.1425,-0.0005,-0.0037,0.0011,-25.68,-23.58,-6.42,,adl
