time,ax,ay,az,wx,wy,wz,Bx,By,Bz,Unnamed: 10,label
0.019467,0.0,0.0,0.0,0.0,0.0,0.0,0.0,0.0,0.0,,adl
0.019864,0.0,0.0,0.0,0.4123,-0.0352,-0.1976,0.0,0.0,0.0,,adl
0.036178,0.0,0.0,0.0,0.4123,-0.0352,-0.1976,0.0,0.0,0.0,,adl
0.056619,0.0,0.0,0.0,0.4123,-0.0352,-0.1976,0.0,0.0,0.0,,adl
0.06525,0.0,0.0,0.0,0.4123,-0.0352,-0.1976,-9.78,31.14,-20.82,,adl
0.077993,0.0,0.0,0.0,0.31,-0.5981,-1.8536,-9.78,31.14,-20.82,,adl
0.081885,0.0,0.0,0.0,0.31,-0.5981,-1.8536,-9.78,31.14,-20.82,,adl
0.082477,1.9731,2.0096,-0.9568,0.31,-0.5981,-1.8536,-9.78,31.14,-20.82,,adl
0.098423,1.9731,2.0096,-0.9568,0.6631,-0.1087,-2.0149,-9.78,31.14,-20.82,,adl
0.118707,1.9731,2.0096,-0.9568,0.7963,0.644,-1.9936,-9.78,31.14,-20.82,,adl
0.127759,1.9731,2.0096,-0.9568,0.7963,0.644,-1.9936,-1.74,13.86,-30.84,,adl
0.139493,1.9731,2.0096,-0.9568,0.1294,0.3851,-1.8173,-1.74,13.86,-30.84,,adl
0.143325,1.9731,2.0096,-0.9568,0.1294,0.3851,-1.8173,-1.74,13.86,-30.84,,adl
0.143936,2.6156,2.3728,-1.4179,0.1294,0.3851,-1.8173,-1.74,13.86,-30.84,,adl
0.159209,2.6156,2.3728,-1.4179,-0.8304,-1.3172,-1.5867,-1.74,13.86,-30.84,,adl
0.179458,2.6156,2.3728,-1.4179,-1.4663,-2.253,-1.045,-1.74,13.86,-30.84,,adl
0.189461,2.6156,2.3728,-1.4179,-1.4663,-2.253,-1.045,2.34,5.1,-36.12,,adl
0.200622,2.6156,2.3728,-1.4179,-1.599,-2.448,-0.6317,2.34,5.1,-36.12,,adl
0.204748,2.6156,2.3728,-1.4179,-1.599,-2.448,-0.6317,2.34,5.1,-36.12,,adl
0.205366,-3.5415,-8.579,0.3527,-1.599,-2.448,-0.6317,2.34,5.1,-36.12,,adl
0.220643,-3.5415,-8.579,0.3527,-0.9758,-1.4445,-0.4032,2.34,5.1,-36.12,,adl
0.242051,-3.5415,-8.579,0.3527,-0.2067,-0.645,-0.2429,2.34,5.1,-36.12,,adl
0.250796,-3.5415,-8.579,0.3527,-0.2067,-0.645,-0.2429,5.52,-2.22,-42.54,,adl
0.261478,-3.5415,-8.579,0.3527,0.2205,-0.1827,-0.163,5.52,-2.22,-42.54,,adl
0.265795,-3.5415,-8.579,0.3527,0.2205,-0.1827,-0.163,5.52,-2.22,-42.54,,adl
0.266435,2.0491,1.3772,0.2174,0.2205,-0.1827,-0.163,5.52,-2.22,-42.54,,adl
0.282925,2.0491,1.3772,0.2174,0.2434,0.1864,-0.1358,5.52,-2.22,-42.54,,adl
0.302938,2.0491,1.3772,0.2174,0.0298,0.1289,-0.024,5.52,-2.22,-42.54,,adl
0.311726,2.0491,1.3772,0.2174,0.0298,0.1289,-0.024,3.42,0.12,-41.58,,adl
0.32344,2.0491,1.3772,0.2174,-0.0602,-0.1917,0.1135,3.42,0.12,-41.58,,adl
0.327694,2.0491,1.3772,0.2174,-0.0602,-0.1917,0.1135,3.42,0.12,-41.58,,adl
0.328195,-0.5744,-0.9511,0.2011,-0.0602,-0.1917,0.1135,3.42,0.12,-41.58,,adl
0.343971,-0.5744,-0.9511,0.2011,0.0213,-0.2237,0.1161,3.42,0.12,-41.58,,adl
0.364427,-0.5744,-0.9511,0.2011,0.1337,-0.0586,0.0245,3.42,0.12,-41.58,,adl
0.373037,-0.5744,-0.9511,0.2011,0.1337,-0.0586,0.0245,1.8,2.04,-41.76,,adl
0.384751,-0.5744,-0.9511,0.2011,0.138,-0.0298,-0.0298,1.8,2.04,-41.76,,adl
0.389881,-0.5744,-0.9511,0.2011,0.138,-0.0298,-0.0298,1.8,2.04,-41.76,,adl
0.390415,-0.1456,0.6437,-0.1375,0.138,-0.0298,-0.0298,1.8,2.04,-41.76,,adl
0.406078,-0.1456,0.6437,-0.1375,0.0495,-0.1497,-0.0383,1.8,2.04,-41.76,,adl
0.42623,-0.1456,0.6437,-0.1375,-0.057,-0.228,-0.0085,1.8,2.04,-41.76,,adl
0.434976,-0.1456,0.6437,-0.1375,-0.057,-0.228,-0.0085,0.06,4.2,-42.36,,adl
0.447448,-0.1456,0.6437,-0.1375,-0.1065,-0.3079,0.0027,0.06,4.2,-42.36,,adl
0.45102,-0.1456,0.6437,-0.1375,-0.1065,-0.3079,0.0027,0.06,4.2,-42.36,,adl
0.451587,-0.0438,-0.1802,0.3014,-0.1065,-0.3079,0.0027,0.06,4.2,-42.36,,adl
0.466621,-0.0438,-0.1802,0.3014,-0.0905,-0.3622,0.0123,0.06,4.2,-42.36,,adl
0.487646,-0.0438,-0.1802,0.3014,-0.0943,-0.3238,0.0154,0.06,4.2,-42.36,,adl
0.496491,-0.0438,-0.1802,0.3014,-0.0943,-0.3238,0.0154,-0.54,4.5,-42.54,,adl
0.508173,-0.0438,-0.1802,0.3014,-0.114,-0.3633,0.0144,-0.54,4.5,-42.54,,adl
0.512141,-0.0438,-0.1802,0.3014,-0.114,-0.3633,0.0144,-0.54,4.5,-42.54,,adl
0.512609,0.0352,-0.2019,0.0631,-0.114,-0.3633,0.0144,-0.54,4.5,-42.54,,adl
0.528976,0.0352,-0.2019,0.0631,-0.1214,-0.441,0.0091,-0.54,4.5,-42.54,,adl
0.549113,0.0352,-0.2019,0.0631,-0.1161,-0.391,0.0069,-0.54,4.5,-42.54,,adl
0.558179,0.0352,-0.2019,0.0631,-0.1161,-0.391,0.0069,-0.78,4.2,-43.44,,adl
0.569912,0.0352,-0.2019,0.0631,-0.0953,-0.2663,-0.0011,-0.78,4.2,-43.44,,adl
0.574073,0.0352,-0.2019,0.0631,-0.0953,-0.2663,-0.0011,-0.78,4.2,-43.44,,adl
0.575016,0.2649,-0.2339,0.2879,-0.0953,-0.2663,-0.0011,-0.78,4.2,-43.44,,adl
0.590232,0.2649,-0.2339,0.2879,-0.0714,-0.2147,-0.0213,-0.78,4.2,-43.44,,adl
0.611078,0.2649,-0.2339,0.2879,-0.0948,-0.1923,-0.0314,-0.78,4.2,-43.44,,adl
0.620085,0.2649,-0.2339,0.2879,-0.0948,-0.1923,-0.0314,-1.5,3.9,-43.44,,adl
0.631274,0.2649,-0.2339,0.2879,-0.1278,-0.2099,-0.0325,-1.5,3.9,-43.44,,adl
0.635526,0.2649,-0.2339,0.2879,-0.1278,-0.2099,-0.0325,-1.5,3.9,-43.44,,adl
0.636491,0.1233,-0.3982,0.4163,-0.1278,-0.2099,-0.0325,-1.5,3.9,-43.44,,adl
0.652582,0.1233,-0.3982,0.4163,-0.0639,-0.253,-0.0186,-1.5,3.9,-43.44,,adl
0.673461,0.1233,-0.3982,0.4163,0.1076,-0.1848,0.0325,-1.5,3.9,-43.44,,adl
0.682126,0.1233,-0.3982,0.4163,0.1076,-0.1848,0.0325,-2.46,3.84,-43.5,,adl
0.693124,0.1233,-0.3982,0.4163,0.3377,-0.0442,0.13,-2.46,3.84,-43.5,,adl
0.698021,0.1233,-0.3982,0.4163,0.3377,-0.0442,0.13,-2.46,3.84,-43.5,,adl
0.698812,-0.6098,0.1488,1.6388,0.3377,-0.0442,0.13,-2.46,3.84,-43.5,,adl
0.713297,-0.6098,0.1488,1.6388,0.4192,-0.1987,0.1625,-2.46,3.84,-43.5,,adl
0.734264,-0.6098,0.1488,1.6388,0.4064,-0.5784,0.1656,-2.46,3.84,-43.5,,adl
0.743173,-0.6098,0.1488,1.6388,0.4064,-0.5784,0.1656,-3.66,3.6,-43.02,,adl
0.754897,-0.6098,0.1488,1.6388,0.3808,-0.8751,0.1923,-3.66,3.6,-43.02,,adl
0.758936,-0.6098,0.1488,1.6388,0.3808,-0.8751,0.1923,-3.66,3.6,-43.02,,adl
0.759854,-0.1921,-0.442,0.4257,0.3808,-0.8751,0.1923,-3.66,3.6,-43.02,,adl
0.775282,-0.1921,-0.442,0.4257,0.3089,-0.7974,0.2019,-3.66,3.6,-43.02,,adl
0.795189,-0.1921,-0.442,0.4257,0.2237,-0.6333,0.2194,-3.66,3.6,-43.02,,adl
0.804444,-0.1921,-0.442,0.4257,0.2237,-0.6333,0.2194,-4.14,3.54,-42.72,,adl
0.816486,-0.1921,-0.442,0.4257,0.1955,-0.5321,0.294,-4.14,3.54,-42.72,,adl
0.820312,-0.1921,-0.442,0.4257,0.1955,-0.5321,0.294,-4.14,3.54,-42.72,,adl
0.821223,-0.3699,-0.4789,0.3926,0.1955,-0.5321,0.294,-4.14,3.54,-42.72,,adl
0.836264,-0.3699,-0.4789,0.3926,0.1646,-0.3302,0.3819,-4.14,3.54,-42.72,,adl
0.857181,-0.3699,-0.4789,0.3926,0.0682,-0.3169,0.3851,-4.14,3.54,-42.72,,adl
0.866089,-0.3699,-0.4789,0.3926,0.0682,-0.3169,0.3851,-5.7,3.24,-42.72,,adl
0.877489,-0.3699,-0.4789,0.3926,0.0107,-0.4517,0.3206,-5.7,3.24,-42.72,,adl
0.882192,-0.3699,-0.4789,0.3926,0.0107,-0.4517,0.3206,-5.7,3.24,-42.72,,adl
0.88298,0.2001,-0.2705,-0.6292,0.0107,-0.4517,0.3206,-5.7,3.24,-42.72,,adl
0.898108,0.2001,-0.2705,-0.6292,0.1129,-0.383,0.2999,-5.7,3.24,-42.72,,adl
0.91845,0.2001,-0.2705,-0.6292,0.2503,-0.319,0.3308,-5.7,3.24,-42.72,,adl
0.927513,0.2001,-0.2705,-0.6292,0.2503,-0.319,0.3308,-6.72,2.82,-42.18,,adl
0.940424,0.2001,-0.2705,-0.6292,0.1822,-0.3851,0.3174,-6.72,2.82,-42.18,,adl
0.943483,0.2001,-0.2705,-0.6292,0.1822,-0.3851,0.3174,-6.72,2.82,-42.18,,adl
0.944397,0.3376,-0.0373,0.3998,0.1822,-0.3851,0.3174,-6.72,2.82,-42.18,,adl
0.959843,0.3376,-0.0373,0.3998,-0.0181,-0.4756,0.2567,-6.72,2.82,-42.18,,adl
0.980215,0.3376,-0.0373,0.3998,-0.2306,-0.44,0.1103,-6.72,2.82,-42.18,,adl
0.99017,0.3376,-0.0373,0.3998,-0.2306,-0.44,0.1103,-8.04,2.16,-41.88,,adl
1.000524,0.3376,-0.0373,0.3998,-0.3041,-0.2418,-0.0117,-8.04,2.16,-41.88,,adl
1.004686,0.3376,-0.0373,0.3998,-0.3041,-0.2418,-0.0117,-8.04,2.16,-41.88,,adl
1.005675,1.0993,0.8135,-0.0063,-0.3041,-0.2418,-0.0117,-8.04,2.16,-41.88,,adl
1.021496,1.0993,0.8135,-0.0063,-0.2109,-0.1289,-0.1337,-8.04,2.16,-41.88,,adl
1.042083,1.0993,0.8135,-0.0063,0.0373,0.0208,-0.1374,-8.04,2.16,-41.88,,adl
1.050058,1.0993,0.8135,-0.0063,0.0373,0.0208,-0.1374,-9.96,1.86,-41.94,,adl
1.062011,1.0993,0.8135,-0.0063,0.1917,0.4586,-0.0597,-9.96,1.86,-41.94,,adl
1.066303,1.0993,0.8135,-0.0063,0.1917,0.4586,-0.0597,-9.96,1.86,-41.94,,adl
1.067142,-0.2257,0.3558,0.4899,0.1917,0.4586,-0.0597,-9.96,1.86,-41.94,,adl
1.082325,-0.2257,0.3558,0.4899,0.2306,0.8687,0.0751,-9.96,1.86,-41.94,,adl
1.103456,-0.2257,0.3558,0.4899,0.1129,0.9417,0.27,-9.96,1.86,-41.94,,adl
1.112346,-0.2257,0.3558,0.4899,0.1129,0.9417,0.27,-10.02,1.68,-41.1,,adl
1.123427,-0.2257,0.3558,0.4899,-0.0368,0.5028,0.3771,-10.02,1.68,-41.1,,adl
1.127645,-0.2257,0.3558,0.4899,-0.0368,0.5028,0.3771,-10.02,1.68,-41.1,,adl
1.12836,-1.5868,1.1567,1.1573,-0.0368,0.5028,0.3771,-10.02,1.68,-41.1,,adl
1.144353,-1.5868,1.1567,1.1573,-0.0826,-0.0037,0.3505,-10.02,1.68,-41.1,,adl
1.165178,-1.5868,1.1567,1.1573,-0.0501,-0.2503,0.2056,-10.02,1.68,-41.1,,adl
1.174206,-1.5868,1.1567,1.1573,-0.0501,-0.2503,0.2056,-10.38,1.38,-40.86,,adl
1.185961,-1.5868,1.1567,1.1573,-0.1044,-0.2706,0.0629,-10.38,1.38,-40.86,,adl
1.18977,-1.5868,1.1567,1.1573,-0.1044,-0.2706,0.0629,-10.38,1.38,-40.86,,adl
1.190652,-0.7911,0.4688,1.3969,-0.1044,-0.2706,0.0629,-10.38,1.38,-40.86,,adl
1.205735,-0.7911,0.4688,1.3969,-0.1571,-0.1736,0.0735,-10.38,1.38,-40.86,,adl
1.226548,-0.7911,0.4688,1.3969,-0.1577,-0.1699,0.0842,-10.38,1.38,-40.86,,adl
1.235232,-0.7911,0.4688,1.3969,-0.1577,-0.1699,0.0842,-10.56,1.26,-40.8,,adl
1.247184,-0.7911,0.4688,1.3969,-0.1033,-0.1726,0.1166,-10.56,1.26,-40.8,,adl
1.251112,-0.7911,0.4688,1.3969,-0.1033,-0.1726,0.1166,-10.56,1.26,-40.8,,adl
1.25212,0.3377,0.101,0.1105,-0.1033,-0.1726,0.1166,-10.56,1.26,-40.8,,adl
1.267777,0.3377,0.101,0.1105,-0.0714,-0.0815,0.1401,-10.56,1.26,-40.8,,adl
1.287254,0.3377,0.101,0.1105,-0.1103,-0.0506,0.1305,-10.56,1.26,-40.8,,adl
1.29844,0.3377,0.101,0.1105,-0.1103,-0.0506,0.1305,-10.02,1.2,-40.56,,adl
1.309051,0.3377,0.101,0.1105,-0.1923,-0.1901,0.0852,-10.02,1.2,-40.56,,adl
1.312866,0.3377,0.101,0.1105,-0.1923,-0.1901,0.0852,-10.02,1.2,-40.56,,adl
1.313856,0.287,0.4272,-0.0002,-0.1923,-0.1901,0.0852,-10.02,1.2,-40.56,,adl
1.328648,0.287,0.4272,-0.0002,-0.3691,-0.1459,0.033,-10.02,1.2,-40.56,,adl
1.349712,0.287,0.4272,-0.0002,-0.5678,0.0277,0.0085,-10.02,1.2,-40.56,,adl
1.358403,0.287,0.4272,-0.0002,-0.5678,0.0277,0.0085,-9.9,1.08,-40.98,,adl
1.370227,0.287,0.4272,-0.0002,-0.7404,0.351,-0.0059,-9.9,1.08,-40.98,,adl
1.374101,0.287,0.4272,-0.0002,-0.7404,0.351,-0.0059,-9.9,1.08,-40.98,,adl
1.37497,-0.2301,-0.1457,-1.3826,-0.7404,0.351,-0.0059,-9.9,1.08,-40.98,,adl
1.390545,-0.2301,-0.1457,-1.3826,-0.8378,0.6232,-0.0613,-9.9,1.08,-40.98,,adl
1.41105,-0.2301,-0.1457,-1.3826,-0.5284,-0.1475,-0.0905,-9.9,1.08,-40.98,,adl
1.420173,-0.2301,-0.1457,-1.3826,-0.5284,-0.1475,-0.0905,-9.84,2.04,-40.56,,adl
1.431691,-0.2301,-0.1457,-1.3826,-0.1465,-1.2773,-0.0463,-9.84,2.04,-40.56,,adl
1.436136,-0.2301,-0.1457,-1.3826,-0.1465,-1.2773,-0.0463,-9.84,2.04,-40.56,,adl
1.437093,0.2419,-1.775,1.4342,-0.1465,-1.2773,-0.0463,-9.84,2.04,-40.56,,adl
1.451488,0.2419,-1.775,1.4342,-0.3222,-0.7627,-0.0272,-9.84,2.04,-40.56,,adl
1.47279,0.2419,-1.775,1.4342,-0.694,0.4554,-0.0128,-9.84,2.04,-40.56,,adl
1.482726,0.2419,-1.775,1.4342,-0.694,0.4554,-0.0128,-9.42,3.36,-40.08,,adl
1.492625,0.2419,-1.775,1.4342,-0.874,1.1079,0.1316,-9.42,3.36,-40.08,,adl
1.498178,0.2419,-1.775,1.4342,-0.874,1.1079,0.1316,-9.42,3.36,-40.08,,adl
1.49891,0.4417,0.6602,-2.1786,-0.874,1.1079,0.1316,-9.42,3.36,-40.08,,adl
1.514065,0.4417,0.6602,-2.1786,-0.5523,0.8842,0.4202,-9.42,3.36,-40.08,,adl
1.534171,0.4417,0.6602,-2.1786,-0.0815,0.6525,0.5417,-9.42,3.36,-40.08,,adl
1.543199,0.4417,0.6602,-2.1786,-0.0815,0.6525,0.5417,-9.48,4.56,-39.6,,adl
1.556999,0.4417,0.6602,-2.1786,0.1395,0.669,0.2312,-9.48,4.56,-39.6,,adl
1.558685,0.4417,0.6602,-2.1786,0.1395,0.669,0.2312,-9.48,4.56,-39.6,,adl
1.559503,0.9443,-0.4062,-1.3823,0.1395,0.669,0.2312,-9.48,4.56,-39.6,,adl
1.575113,0.9443,-0.4062,-1.3823,-0.0692,1.2272,-0.0517,-9.48,4.56,-39.6,,adl
1.596152,0.9443,-0.4062,-1.3823,-0.4799,1.3742,-0.057,-9.48,4.56,-39.6,,adl
1.604809,0.9443,-0.4062,-1.3823,-0.4799,1.3742,-0.057,-9.06,6.06,-39.42,,adl
1.616092,0.9443,-0.4062,-1.3823,-0.5912,1.2229,0.0383,-9.06,6.06,-39.42,,adl
1.620155,0.9443,-0.4062,-1.3823,-0.5912,1.2229,0.0383,-9.06,6.06,-39.42,,adl
1.621021,0.0757,-0.1692,-2.2704,-0.5912,1.2229,0.0383,-9.06,6.06,-39.42,,adl
1.636842,0.0757,-0.1692,-2.2704,-0.5364,0.9886,0.0948,-9.06,6.06,-39.42,,adl
1.657115,0.0757,-0.1692,-2.2704,-0.3537,0.931,0.1209,-9.06,6.06,-39.42,,adl
1.666569,0.0757,-0.1692,-2.2704,-0.3537,0.931,0.1209,-7.56,7.02,-40.26,,adl
1.678471,0.0757,-0.1692,-2.2704,0.0325,0.9992,0.1214,-7.56,7.02,-40.26,,adl
1.682218,0.0757,-0.1692,-2.2704,0.0325,0.9992,0.1214,-7.56,7.02,-40.26,,adl
1.683149,-0.9635,0.2343,-1.2613,0.0325,0.9992,0.1214,-7.56,7.02,-40.26,,adl
1.698026,-0.9635,0.2343,-1.2613,0.3883,0.9358,0.1491,-7.56,7.02,-40.26,,adl
1.719553,-0.9635,0.2343,-1.2613,0.4469,1.3049,0.1326,-7.56,7.02,-40.26,,adl
1.728352,-0.9635,0.2343,-1.2613,0.4469,1.3049,0.1326,-6.06,8.04,-40.86,,adl
1.739996,-0.9635,0.2343,-1.2613,0.1374,1.5153,0.0889,-6.06,8.04,-40.86,,adl
1.744421,-0.9635,0.2343,-1.2613,0.1374,1.5153,0.0889,-6.06,8.04,-40.86,,adl
1.745514,-1.078,-0.0579,-1.2057,0.1374,1.5153,0.0889,-6.06,8.04,-40.86,,adl
1.759922,-1.078,-0.0579,-1.2057,-0.0309,1.0274,0.1268,-6.06,8.04,-40.86,,adl
1.780315,-1.078,-0.0579,-1.2057,-0.0234,0.5225,0.1364,-6.06,8.04,-40.86,,adl
1.790662,-1.078,-0.0579,-1.2057,-0.0234,0.5225,0.1364,-3.36,8.88,-41.64,,adl
1.801345,-1.078,-0.0579,-1.2057,0.0772,0.391,0.0836,-3.36,8.88,-41.64,,adl
1.804665,-1.078,-0.0579,-1.2057,0.0772,0.391,0.0836,-3.36,8.88,-41.64,,adl
1.805364,-0.0021,0.6844,-1.7061,0.0772,0.391,0.0836,-3.36,8.88,-41.64,,adl
1.82122,-0.0021,0.6844,-1.7061,0.1081,0.5183,0.0751,-3.36,8.88,-41.64,,adl
1.842353,-0.0021,0.6844,-1.7061,0.0096,0.693,0.0623,-3.36,8.88,-41.64,,adl
1.850841,-0.0021,0.6844,-1.7061,0.0096,0.693,0.0623,-0.48,9.9,-42.48,,adl
1.862726,-0.0021,0.6844,-1.7061,-0.1513,0.7521,0.0075,-0.48,9.9,-42.48,,adl
1.866606,-0.0021,0.6844,-1.7061,-0.1513,0.7521,0.0075,-0.48,9.9,-42.48,,adl
1.867495,-0.3693,-0.224,-1.1032,-0.1513,0.7521,0.0075,-0.48,9.9,-42.48,,adl
1.883276,-0.3693,-0.224,-1.1032,-0.2493,0.4996,-0.0458,-0.48,9.9,-42.48,,adl
1.903374,-0.3693,-0.224,-1.1032,-0.3127,0.212,-0.0415,-0.48,9.9,-42.48,,adl
1.91246,-0.3693,-0.224,-1.1032,-0.3127,0.212,-0.0415,1.74,10.38,-43.08,,adl
1.924763,-0.3693,-0.224,-1.1032,-0.3803,0.0623,-0.0629,1.74,10.38,-43.08,,adl
1.928599,-0.3693,-0.224,-1.1032,-0.3803,0.0623,-0.0629,1.74,10.38,-43.08,,adl
1.929614,0.3501,0.0516,-1.0882,-0.3803,0.0623,-0.0629,1.74,10.38,-43.08,,adl
1.944408,0.3501,0.0516,-1.0882,-0.4005,0.0288,-0.1204,1.74,10.38,-43.08,,adl
1.965247,0.3501,0.0516,-1.0882,-0.3739,0.1486,-0.1113,1.74,10.38,-43.08,,adl
1.974415,0.3501,0.0516,-1.0882,-0.3739,0.1486,-0.1113,4.08,10.68,-43.32,,adl
1.985495,0.3501,0.0516,-1.0882,-0.3249,0.392,-0.0868,4.08,10.68,-43.32,,adl
1.990017,0.3501,0.0516,-1.0882,-0.3249,0.392,-0.0868,4.08,10.68,-43.32,,adl
1.990953,0.3576,-0.0394,-0.172,-0.3249,0.392,-0.0868,4.08,10.68,-43.32,,adl
2.006312,0.3576,-0.0394,-0.172,-0.2503,0.5326,-0.1119,4.08,10.68,-43.32,,adl
2.026781,0.3576,-0.0394,-0.172,-0.1683,0.4751,-0.1081,4.08,10.68,-43.32,,adl
2.036796,0.3576,-0.0394,-0.172,-0.1683,0.4751,-0.1081,5.64,11.58,-43.38,,adl
2.047524,0.3576,-0.0394,-0.172,-0.1273,0.4613,-0.0985,5.64,11.58,-43.38,,adl
2.051271,0.3576,-0.0394,-0.172,-0.1273,0.4613,-0.0985,5.64,11.58,-43.38,,adl
2.052152,-0.1099,0.0027,0.2877,-0.1273,0.4613,-0.0985,5.64,11.58,-43.38,,adl
2.067662,-0.1099,0.0027,0.2877,-0.1321,0.4922,-0.1028,5.64,11.58,-43.38,,adl
2.088346,-0.1099,0.0027,0.2877,-0.0996,0.3739,-0.1087,5.64,11.58,-43.38,,adl
2.097573,-0.1099,0.0027,0.2877,-0.0996,0.3739,-0.1087,6.42,12.0,-42.96,,adl
2.108156,-0.1099,0.0027,0.2877,0.0266,0.212,-0.1193,6.42,12.0,-42.96,,adl
2.112496,-0.1099,0.0027,0.2877,0.0266,0.212,-0.1193,6.42,12.0,-42.96,,adl
2.113309,-0.5004,0.4332,-0.1263,0.0266,0.212,-0.1193,6.42,12.0,-42.96,,adl
2.129199,-0.5004,0.4332,-0.1263,0.204,0.1795,-0.1241,6.42,12.0,-42.96,,adl
2.149679,-0.5004,0.4332,-0.1263,0.3047,0.3425,-0.0905,6.42,12.0,-42.96,,adl
2.158787,-0.5004,0.4332,-0.1263,0.3047,0.3425,-0.0905,7.14,13.02,-42.48,,adl
2.170864,-0.5004,0.4332,-0.1263,0.2168,0.6301,-0.0527,7.14,13.02,-42.48,,adl
2.174621,-0.5004,0.4332,-0.1263,0.2168,0.6301,-0.0527,7.14,13.02,-42.48,,adl
2.175506,-0.9216,0.0131,-0.1882,0.2168,0.6301,-0.0527,7.14,13.02,-42.48,,adl
2.190534,-0.9216,0.0131,-0.1882,0.0128,0.58,0.0101,7.14,13.02,-42.48,,adl
2.211822,-0.9216,0.0131,-0.1882,-0.0948,0.2019,0.0543,7.14,13.02,-42.48,,adl
2.220507,-0.9216,0.0131,-0.1882,-0.0948,0.2019,0.0543,7.74,13.2,-42.84,,adl
2.231467,-0.9216,0.0131,-0.1882,-0.0282,0.0985,0.0096,7.74,13.2,-42.84,,adl
2.235876,-0.9216,0.0131,-0.1882,-0.0282,0.0985,0.0096,7.74,13.2,-42.84,,adl
2.236755,0.5008,-0.3498,0.6052,-0.0282,0.0985,0.0096,7.74,13.2,-42.84,,adl
2.253028,0.5008,-0.3498,0.6052,0.1928,0.3393,-0.0708,7.74,13.2,-42.84,,adl
2.273369,0.5008,-0.3498,0.6052,0.4756,0.5326,-0.1017,7.74,13.2,-42.84,,adl
2.282334,0.5008,-0.3498,0.6052,0.4756,0.5326,-0.1017,8.16,12.84,-43.14,,adl
2.294015,0.5008,-0.3498,0.6052,0.6301,0.5444,-0.0256,8.16,12.84,-43.14,,adl
2.298576,0.5008,-0.3498,0.6052,0.6301,0.5444,-0.0256,8.16,12.84,-43.14,,adl
2.299466,-1.6525,-0.8673,-0.4997,0.6301,0.5444,-0.0256,8.16,12.84,-43.14,,adl
2.314342,-1.6525,-0.8673,-0.4997,0.6695,0.3776,0.0341,8.16,12.84,-43.14,,adl
2.334826,-1.6525,-0.8673,-0.4997,0.7404,0.3941,0.1252,8.16,12.84,-43.14,,adl
2.343425,-1.6525,-0.8673,-0.4997,0.7404,0.3941,0.1252,8.82,12.54,-43.44,,adl
2.354659,-1.6525,-0.8673,-0.4997,1.0029,0.7707,0.2338,8.82,12.54,-43.44,,adl
2.359026,-1.6525,-0.8673,-0.4997,1.0029,0.7707,0.2338,8.82,12.54,-43.44,,adl
2.359917,-0.65,-0.5036,2.2757,1.0029,0.7707,0.2338,8.82,12.54,-43.44,,adl
2.376101,-0.65,-0.5036,2.2757,1.4962,0.678,0.2237,8.82,12.54,-43.44,,adl
2.395875,-0.65,-0.5036,2.2757,1.9659,0.0943,0.1806,8.82,12.54,-43.44,,adl
2.405465,-0.65,-0.5036,2.2757,1.9659,0.0943,0.1806,9.6,12.12,-43.68,,adl
2.416603,-0.65,-0.5036,2.2757,2.171,-0.4501,0.0852,9.6,12.12,-43.68,,adl
2.42031,-0.65,-0.5036,2.2757,2.171,-0.4501,0.0852,9.6,12.12,-43.68,,adl
2.421041,1.7377,0.1118,1.3682,2.171,-0.4501,0.0852,9.6,12.12,-43.68,,adl
2.436713,1.7377,0.1118,1.3682,2.2823,-0.7281,0.0288,9.6,12.12,-43.68,,adl
2.458001,1.7377,0.1118,1.3682,2.2855,-0.6338,0.0682,9.6,12.12,-43.68,,adl
2.466595,1.7377,0.1118,1.3682,2.2855,-0.6338,0.0682,10.2,10.68,-43.38,,adl
2.47815,1.7377,0.1118,1.3682,2.0506,-0.5119,0.2109,10.2,10.68,-43.38,,adl
2.482288,1.7377,0.1118,1.3682,2.0506,-0.5119,0.2109,10.2,10.68,-43.38,,adl
2.483104,-0.4626,-1.7269,-3.3559,2.0506,-0.5119,0.2109,10.2,10.68,-43.38,,adl
2.498783,-0.4626,-1.7269,-3.3559,1.4828,-0.6823,0.4495,10.2,10.68,-43.38,,adl
2.518468,-0.4626,-1.7269,-3.3559,0.8181,-0.946,0.6674,10.2,10.68,-43.38,,adl
2.528528,-0.4626,-1.7269,-3.3559,0.8181,-0.946,0.6674,10.92,8.22,-43.32,,adl
2.539714,-0.4626,-1.7269,-3.3559,0.3143,-1.0733,0.8394,10.92,8.22,-43.32,,adl
2.54416,-0.4626,-1.7269,-3.3559,0.3143,-1.0733,0.8394,10.92,8.22,-43.32,,adl
2.54513,-3.4422,-2.1681,-3.5927,0.3143,-1.0733,0.8394,10.92,8.22,-43.32,,adl
2.559923,-3.4422,-2.1681,-3.5927,0.2178,-1.135,0.98,10.92,8.22,-43.32,,adl
2.581194,-3.4422,-2.1681,-3.5927,0.294,-1.7204,0.8804,10.92,8.22,-43.32,,adl
2.59069,-3.4422,-2.1681,-3.5927,0.294,-1.7204,0.8804,10.26,4.38,-42.72,,adl
2.601153,-3.4422,-2.1681,-3.5927,0.1933,-2.22,0.6349,10.26,4.38,-42.72,,adl
2.605,-3.4422,-2.1681,-3.5927,0.1933,-2.22,0.6349,10.26,4.38,-42.72,,adl
2.605819,0.673,0.0485,-2.1006,0.1933,-2.22,0.6349,10.26,4.38,-42.72,,adl
2.622916,0.673,0.0485,-2.1006,-0.0927,-2.0405,0.4863,10.26,4.38,-42.72,,adl
2.642344,0.673,0.0485,-2.1006,-0.2546,-1.5516,0.3388,10.26,4.38,-42.72,,adl
2.650954,0.673,0.0485,-2.1006,-0.2546,-1.5516,0.3388,8.52,0.24,-42.12,,adl
2.663121,0.673,0.0485,-2.1006,-0.3004,-1.3683,0.1257,8.52,0.24,-42.12,,adl
2.66709,0.673,0.0485,-2.1006,-0.3004,-1.3683,0.1257,8.52,0.24,-42.12,,adl
2.668122,2.2811,0.0339,-2.2941,-0.3004,-1.3683,0.1257,8.52,0.24,-42.12,,adl
2.683139,2.2811,0.0339,-2.2941,-0.4224,-1.4413,-0.1289,8.52,0.24,-42.12,,adl
2.703868,2.2811,0.0339,-2.2941,-0.5886,-1.5084,-0.4117,8.52,0.24,-42.12,,adl
2.712706,2.2811,0.0339,-2.2941,-0.5886,-1.5084,-0.4117,5.58,-2.76,-40.98,,adl
2.723891,2.2811,0.0339,-2.2941,-0.6562,-1.3651,-0.6669,5.58,-2.76,-40.98,,adl
2.728264,2.2811,0.0339,-2.2941,-0.6562,-1.3651,-0.6669,5.58,-2.76,-40.98,,adl
2.729162,3.4344,0.9023,-2.7791,-0.6562,-1.3651,-0.6669,5.58,-2.76,-40.98,,adl
2.74523,3.4344,0.9023,-2.7791,-0.6104,-1.0663,-0.8735,5.58,-2.76,-40.98,,adl
2.765346,3.4344,0.9023,-2.7791,-0.4847,-0.6471,-0.9476,5.58,-2.76,-40.98,,adl
2.774363,3.4344,0.9023,-2.7791,-0.4847,-0.6471,-0.9476,1.44,-4.32,-40.62,,adl
2.787691,3.4344,0.9023,-2.7791,-0.367,-0.0682,-0.8256,1.44,-4.32,-40.62,,adl
2.790918,3.4344,0.9023,-2.7791,-0.367,-0.0682,-0.8256,1.44,-4.32,-40.62,,adl
2.791855,2.0458,0.5882,-0.8487,-0.367,-0.0682,-0.8256,1.44,-4.32,-40.62,,adl
2.806438,2.0458,0.5882,-0.8487,-0.3228,0.645,-0.5183,1.44,-4.32,-40.62,,adl
2.827932,2.0458,0.5882,-0.8487,-0.1023,1.2378,-0.0096,1.44,-4.32,-40.62,,adl
2.835944,2.0458,0.5882,-0.8487,-0.1023,1.2378,-0.0096,-1.98,-3.9,-40.92,,adl
2.847985,2.0458,0.5882,-0.8487,0.1997,1.0413,0.6882,-1.98,-3.9,-40.92,,adl
2.851694,2.0458,0.5882,-0.8487,0.1997,1.0413,0.6882,-1.98,-3.9,-40.92,,adl
2.852528,-3.4795,-0.276,3.3361,0.1997,1.0413,0.6882,-1.98,-3.9,-40.92,,adl
2.868396,-3.4795,-0.276,3.3361,0.0463,0.4336,0.946,-1.98,-3.9,-40.92,,adl
2.888331,-3.4795,-0.276,3.3361,-0.3313,-0.1433,1.0717,-1.98,-3.9,-40.92,,adl
2.898647,-3.4795,-0.276,3.3361,-0.3313,-0.1433,1.0717,-4.14,-2.82,-41.34,,adl
2.909139,-3.4795,-0.276,3.3361,-0.4181,-0.5033,1.1798,-4.14,-2.82,-41.34,,adl
2.913769,-3.4795,-0.276,3.3361,-0.4181,-0.5033,1.1798,-4.14,-2.82,-41.34,,adl
2.914622,-3.4063,0.5662,1.4548,-0.4181,-0.5033,1.1798,-4.14,-2.82,-41.34,,adl
2.928953,-3.4063,0.5662,1.4548,-0.3116,-0.531,0.8799,-4.14,-2.82,-41.34,,adl
2.950313,-3.4063,0.5662,1.4548,-0.2988,-0.6306,0.4687,-4.14,-2.82,-41.34,,adl
2.958862,-3.4063,0.5662,1.4548,-0.2988,-0.6306,0.4687,-4.56,-1.56,-41.7,,adl
2.970342,-3.4063,0.5662,1.4548,-0.775,-0.2993,-0.0415,-4.56,-1.56,-41.7,,adl
2.97456,-3.4063,0.5662,1.4548,-0.775,-0.2993,-0.0415,-4.56,-1.56,-41.7,,adl
2.975477,1.5369,-3.3383,-0.7872,-0.775,-0.2993,-0.0415,-4.56,-1.56,-41.7,,adl
2.991037,1.5369,-3.3383,-0.7872,-1.1681,-0.0048,-0.8064,-4.56,-1.56,-41.7,,adl
3.011726,1.5369,-3.3383,-0.7872,-1.1052,-0.318,-1.0195,-4.56,-1.56,-41.7,,adl
3.021024,1.5369,-3.3383,-0.7872,-1.1052,-0.318,-1.0195,-4.74,-0.36,-40.86,,adl
3.031836,1.5369,-3.3383,-0.7872,-0.2322,-1.9207,-0.5358,-4.74,-0.36,-40.86,,adl
3.036144,1.5369,-3.3383,-0.7872,-0.2322,-1.9207,-0.5358,-4.74,-0.36,-40.86,,adl
3.036805,-0.104,-1.7494,4.7489,-0.2322,-1.9207,-0.5358,-4.74,-0.36,-40.86,,adl
3.052339,-0.104,-1.7494,4.7489,0.8911,-2.7356,0.2844,-4.74,-0.36,-40.86,,adl
3.073429,-0.104,-1.7494,4.7489,-0.2136,0.2626,0.3441,-4.74,-0.36,-40.86,,adl
3.082361,-0.104,-1.7494,4.7489,-0.2136,0.2626,0.3441,-5.16,0.84,-40.92,,adl
3.093863,-0.104,-1.7494,4.7489,-1.5398,2.6589,-0.0916,-5.16,0.84,-40.92,,adl
3.09863,-0.104,-1.7494,4.7489,-1.5398,2.6589,-0.0916,-5.16,0.84,-40.92,,adl
3.099409,3.7421,1.7195,-6.8483,-1.5398,2.6589,-0.0916,-5.16,0.84,-40.92,,adl
3.114431,3.7421,1.7195,-6.8483,-1.8237,2.9705,-0.2871,-5.16,0.84,-40.92,,adl
3.134878,3.7421,1.7195,-6.8483,-0.4096,1.2874,0.2344,-5.16,0.84,-40.92,,adl
3.143586,3.7421,1.7195,-6.8483,-0.4096,1.2874,0.2344,-6.42,1.56,-40.2,,adl
3.156423,3.7421,1.7195,-6.8483,-0.0543,0.3329,0.4708,-6.42,1.56,-40.2,,adl
3.159574,3.7421,1.7195,-6.8483,-0.0543,0.3329,0.4708,-6.42,1.56,-40.2,,adl
3.16036,0.6973,-2.041,-5.0183,-0.0543,0.3329,0.4708,-6.42,1.56,-40.2,,adl
3.17566,0.6973,-2.041,-5.0183,-0.3835,0.5491,0.2376,-6.42,1.56,-40.2,,adl
3.196554,0.6973,-2.041,-5.0183,-0.2301,0.93,0.2104,-6.42,1.56,-40.2,,adl
3.206728,0.6973,-2.041,-5.0183,-0.2301,0.93,0.2104,-7.08,3.12,-40.56,,adl
3.216505,0.6973,-2.041,-5.0183,0.0932,1.0855,0.2631,-7.08,3.12,-40.56,,adl
3.221083,0.6973,-2.041,-5.0183,0.0932,1.0855,0.2631,-7.08,3.12,-40.56,,adl
3.221956,-1.4285,0.164,-2.1035,0.0932,1.0855,0.2631,-7.08,3.12,-40.56,,adl
3.237009,-1.4285,0.164,-2.1035,0.0708,1.2826,-0.0394,-7.08,3.12,-40.56,,adl
3.257538,-1.4285,0.164,-2.1035,-0.3063,1.8386,-0.3633,-7.08,3.12,-40.56,,adl
3.266591,-1.4285,0.164,-2.1035,-0.3063,1.8386,-0.3633,-6.24,3.96,-41.4,,adl
3.278845,-1.4285,0.164,-2.1035,-0.4874,1.3742,-0.3159,-6.24,3.96,-41.4,,adl
3.282796,-1.4285,0.164,-2.1035,-0.4874,1.3742,-0.3159,-6.24,3.96,-41.4,,adl
3.283696,-0.8219,0.0612,-0.2293,-0.4874,1.3742,-0.3159,-6.24,3.96,-41.4,,adl
3.29866,-0.8219,0.0612,-0.2293,-0.5417,0.7702,-0.1603,-6.24,3.96,-41.4,,adl
3.319826,-0.8219,0.0612,-0.2293,-0.5486,0.2519,-0.1209,-6.24,3.96,-41.4,,adl
3.328081,-0.8219,0.0612,-0.2293,-0.5486,0.2519,-0.1209,-4.26,4.26,-41.46,,adl
3.339404,-0.8219,0.0612,-0.2293,-0.4719,-0.0597,-0.1593,-4.26,4.26,-41.46,,adl
3.343336,-0.8219,0.0612,-0.2293,-0.4719,-0.0597,-0.1593,-4.26,4.26,-41.46,,adl
3.344141,0.4426,0.4938,-1.4032,-0.4719,-0.0597,-0.1593,-4.26,4.26,-41.46,,adl
3.361465,0.4426,0.4938,-1.4032,-0.4,-0.1182,-0.2024,-4.26,4.26,-41.46,,adl
3.381733,0.4426,0.4938,-1.4032,-0.3563,-0.0682,-0.2376,-4.26,4.26,-41.46,,adl
3.391219,0.4426,0.4938,-1.4032,-0.3563,-0.0682,-0.2376,-0.9,5.28,-41.7,,adl
3.402336,0.4426,0.4938,-1.4032,-0.3707,0.0304,-0.2184,-0.9,5.28,-41.7,,adl
3.406336,0.4426,0.4938,-1.4032,-0.3707,0.0304,-0.2184,-0.9,5.28,-41.7,,adl
3.407252,-0.0168,0.1516,-0.0807,-0.3707,0.0304,-0.2184,-0.9,5.28,-41.7,,adl
3.421696,-0.0168,0.1516,-0.0807,-0.4879,0.2487,-0.1326,-0.9,5.28,-41.7,,adl
3.443342,-0.0168,0.1516,-0.0807,-0.6764,0.5252,-0.0799,-0.9,5.28,-41.7,,adl
3.451649,-0.0168,0.1516,-0.0807,-0.6764,0.5252,-0.0799,0.9,6.24,-41.52,,adl
3.463073,-0.0168,0.1516,-0.0807,-0.7835,0.6647,-0.0921,0.9,6.24,-41.52,,adl
3.466923,-0.0168,0.1516,-0.0807,-0.7835,0.6647,-0.0921,0.9,6.24,-41.52,,adl
3.467714,-0.3344,0.1621,1.4356,-0.7835,0.6647,-0.0921,0.9,6.24,-41.52,,adl
3.484568,-0.3344,0.1621,1.4356,-0.7254,0.3148,-0.1667,0.9,6.24,-41.52,,adl
3.504862,-0.3344,0.1621,1.4356,-0.6456,-0.2237,-0.2461,0.9,6.24,-41.52,,adl
3.51363,-0.3344,0.1621,1.4356,-0.6456,-0.2237,-0.2461,2.16,7.8,-40.98,,adl
3.525661,-0.3344,0.1621,1.4356,-0.6242,-0.4783,-0.3531,2.16,7.8,-40.98,,adl
3.529521,-0.3344,0.1621,1.4356,-0.6242,-0.4783,-0.3531,2.16,7.8,-40.98,,adl
3.530463,0.6867,-0.417,1.168,-0.6242,-0.4783,-0.3531,2.16,7.8,-40.98,,adl
3.544544,0.6867,-0.417,1.168,-0.6317,-0.2999,-0.3925,2.16,7.8,-40.98,,adl
3.566825,0.6867,-0.417,1.168,-0.6338,0.1337,-0.3057,2.16,7.8,-40.98,,adl
3.575254,0.6867,-0.417,1.168,-0.6338,0.1337,-0.3057,2.88,9.66,-40.26,,adl
3.587145,0.6867,-0.417,1.168,-0.4964,0.5273,-0.1699,2.88,9.66,-40.26,,adl
3.59028,0.6867,-0.417,1.168,-0.4964,0.5273,-0.1699,2.88,9.66,-40.26,,adl
3.591136,-1.682,0.2439,1.477,-0.4964,0.5273,-0.1699,2.88,9.66,-40.26,,adl
3.607142,-1.682,0.2439,1.477,-0.2115,0.7521,-0.0048,2.88,9.66,-40.26,,adl
3.62792,-1.682,0.2439,1.477,0.024,0.7159,-0.0234,2.88,9.66,-40.26,,adl
3.637299,-1.682,0.2439,1.477,0.024,0.7159,-0.0234,2.88,11.34,-40.56,,adl
3.647412,-1.682,0.2439,1.477,0.1497,0.3553,-0.0895,2.88,11.34,-40.56,,adl
3.653136,-1.682,0.2439,1.477,0.1497,0.3553,-0.0895,2.88,11.34,-40.56,,adl
3.654733,-0.8793,-0.5912,1.5858,0.1497,0.3553,-0.0895,2.88,11.34,-40.56,,adl
3.669199,-0.8793,-0.5912,1.5858,0.1502,-0.0352,-0.0985,2.88,11.34,-40.56,,adl
3.688702,-0.8793,-0.5912,1.5858,0.073,0.1731,-0.0735,2.88,11.34,-40.56,,adl
3.697757,-0.8793,-0.5912,1.5858,0.073,0.1731,-0.0735,3.18,12.36,-40.02,,adl
3.710017,-0.8793,-0.5912,1.5858,0.3366,0.3281,0.024,3.18,12.36,-40.02,,adl
3.714553,-0.8793,-0.5912,1.5858,0.3366,0.3281,0.024,3.18,12.36,-40.02,,adl
3.715466,-2.6727,-1.3605,2.4641,0.3366,0.3281,0.024,3.18,12.36,-40.02,,adl
3.731225,-2.6727,-1.3605,2.4641,0.8501,0.3127,0.1933,3.18,12.36,-40.02,,adl
3.750477,-2.6727,-1.3605,2.4641,1.3412,0.1806,0.2221,3.18,12.36,-40.02,,adl
3.759217,-2.6727,-1.3605,2.4641,1.3412,0.1806,0.2221,3.78,13.14,-40.38,,adl
3.77161,-2.6727,-1.3605,2.4641,1.526,0.3579,0.1891,3.78,13.14,-40.38,,adl
3.775655,-2.6727,-1.3605,2.4641,1.526,0.3579,0.1891,3.78,13.14,-40.38,,adl
3.776512,-2.0792,-1.2511,1.9642,1.526,0.3579,0.1891,3.78,13.14,-40.38,,adl
3.791885,-2.0792,-1.2511,1.9642,1.6283,0.8181,0.3345,3.78,13.14,-40.38,,adl
3.812964,-2.0792,-1.2511,1.9642,2.1428,0.2423,0.4336,3.78,13.14,-40.38,,adl
3.821904,-2.0792,-1.2511,1.9642,2.1428,0.2423,0.4336,4.26,13.02,-40.5,,adl
3.832376,-2.0792,-1.2511,1.9642,2.4208,-1.4573,0.3718,4.26,13.02,-40.5,,adl
3.837104,-2.0792,-1.2511,1.9642,2.4208,-1.4573,0.3718,4.26,13.02,-40.5,,adl
3.837943,2.001,0.9994,1.0638,2.4208,-1.4573,0.3718,4.26,13.02,-40.5,,adl
3.853102,2.001,0.9994,1.0638,1.8818,-2.0826,0.4623,4.26,13.02,-40.5,,adl
3.874311,2.001,0.9994,1.0638,1.1904,-2.2269,0.6269,4.26,13.02,-40.5,,adl
3.883979,2.001,0.9994,1.0638,1.1904,-2.2269,0.6269,4.5,10.98,-39.84,,adl
3.894584,2.001,0.9994,1.0638,0.7254,-2.0267,0.8788,4.5,10.98,-39.84,,adl
3.89924,2.001,0.9994,1.0638,0.7254,-2.0267,0.8788,4.5,10.98,-39.84,,adl
3.90063,-2.1145,-3.2689,-3.4553,0.7254,-2.0267,0.8788,4.5,10.98,-39.84,,adl
3.914277,-2.1145,-3.2689,-3.4553,0.4176,-1.1665,1.1116,4.5,10.98,-39.84,,adl
3.935163,-2.1145,-3.2689,-3.4553,0.0916,-0.1486,1.2607,4.5,10.98,-39.84,,adl
3.94369,-2.1145,-3.2689,-3.4553,0.0916,-0.1486,1.2607,3.48,8.22,-40.14,,adl
3.956093,-2.1145,-3.2689,-3.4553,0.017,0.0117,1.4147,3.48,8.22,-40.14,,adl
3.95922,-2.1145,-3.2689,-3.4553,0.017,0.0117,1.4147,3.48,8.22,-40.14,,adl
3.96007,-1.682,-0.7836,-1.2694,0.017,0.0117,1.4147,3.48,8.22,-40.14,,adl
3.97613,-1.682,-0.7836,-1.2694,0.5854,-1.6416,1.4056,3.48,8.22,-40.14,,adl
3.997103,-1.682,-0.7836,-1.2694,0.9747,-3.0206,1.0003,3.48,8.22,-40.14,,adl
4.006519,-1.682,-0.7836,-1.2694,0.9747,-3.0206,1.0003,1.8,5.04,-40.02,,adl
4.017106,-1.682,-0.7836,-1.2694,0.6077,-2.1625,0.5827,1.8,5.04,-40.02,,adl
4.021067,-1.682,-0.7836,-1.2694,0.6077,-2.1625,0.5827,1.8,5.04,-40.02,,adl
4.021862,2.6141,-0.2382,-2.1749,0.6077,-2.1625,0.5827,1.8,5.04,-40.02,,adl
4.037494,2.6141,-0.2382,-2.1749,-0.115,-1.2085,0.2913,1.8,5.04,-40.02,,adl
4.057764,2.6141,-0.2382,-2.1749,-0.4506,-1.3231,0.0288,1.8,5.04,-40.02,,adl
4.067581,2.6141,-0.2382,-2.1749,-0.4506,-1.3231,0.0288,-1.14,1.32,-39.84,,adl
4.07936,2.6141,-0.2382,-2.1749,-0.5561,-1.5564,-0.1539,-1.14,1.32,-39.84,,adl
4.083771,2.6141,-0.2382,-2.1749,-0.5561,-1.5564,-0.1539,-1.14,1.32,-39.84,,adl
4.084656,3.3489,0.2071,-2.237,-0.5561,-1.5564,-0.1539,-1.14,1.32,-39.84,,adl
4.099776,3.3489,0.2071,-2.237,-0.4293,-1.436,-0.3212,-1.14,1.32,-39.84,,adl
4.120247,3.3489,0.2071,-2.237,-0.2605,-1.2751,-0.5294,-1.14,1.32,-39.84,,adl
4.129029,3.3489,0.2071,-2.237,-0.2605,-1.2751,-0.5294,-5.22,-0.9,-39.72,,adl
4.139415,3.3489,0.2071,-2.237,-0.1497,-1.0386,-0.7606,-5.22,-0.9,-39.72,,adl
4.143789,3.3489,0.2071,-2.237,-0.1497,-1.0386,-0.7606,-5.22,-0.9,-39.72,,adl
4.144582,4.096,0.5706,-1.9924,-0.1497,-1.0386,-0.7606,-5.22,-0.9,-39.72,,adl
4.159788,4.096,0.5706,-1.9924,-0.1694,-0.4836,-0.9284,-5.22,-0.9,-39.72,,adl
4.181775,4.096,0.5706,-1.9924,-0.2077,0.2642,-0.906,-5.22,-0.9,-39.72,,adl
4.192218,4.096,0.5706,-1.9924,-0.2077,0.2642,-0.906,-8.7,-1.68,-38.7,,adl
4.201831,4.096,0.5706,-1.9924,-0.432,0.8916,-0.5497,-8.7,-1.68,-38.7,,adl
4.205311,4.096,0.5706,-1.9924,-0.432,0.8916,-0.5497,-8.7,-1.68,-38.7,,adl
4.2062,0.8761,0.8349,-0.2093,-0.432,0.8916,-0.5497,-8.7,-1.68,-38.7,,adl
4.222607,0.8761,0.8349,-0.2093,-0.7132,1.4275,0.0655,-8.7,-1.68,-38.7,,adl
4.242274,0.8761,0.8349,-0.2093,-0.4581,1.143,0.8655,-8.7,-1.68,-38.7,,adl
4.253558,0.8761,0.8349,-0.2093,-0.4581,1.143,0.8655,-12.42,-2.1,-37.32,,adl
4.26352,0.8761,0.8349,-0.2093,0.1614,0.7542,1.1707,-12.42,-2.1,-37.32,,adl
4.267048,0.8761,0.8349,-0.2093,0.1614,0.7542,1.1707,-12.42,-2.1,-37.32,,adl
4.268272,-2.9432,-0.6219,3.7267,0.1614,0.7542,1.1707,-12.42,-2.1,-37.32,,adl
4.28407,-2.9432,-0.6219,3.7267,0.2663,1.4291,1.0722,-12.42,-2.1,-37.32,,adl
4.305457,-2.9432,-0.6219,3.7267,0.2194,1.4434,0.9097,-12.42,-2.1,-37.32,,adl
4.313724,-2.9432,-0.6219,3.7267,0.2194,1.4434,0.9097,-14.04,-0.3,-36.66,,adl
4.324977,-2.9432,-0.6219,3.7267,-0.0405,0.2008,0.7478,-14.04,-0.3,-36.66,,adl
4.329047,-2.9432,-0.6219,3.7267,-0.0405,0.2008,0.7478,-14.04,-0.3,-36.66,,adl
4.329893,-2.1325,1.6891,2.5944,-0.0405,0.2008,0.7478,-14.04,-0.3,-36.66,,adl
4.34622,-2.1325,1.6891,2.5944,-0.5997,-1.2384,0.4996,-14.04,-0.3,-36.66,,adl
4.367041,-2.1325,1.6891,2.5944,-1.4695,-1.6139,0.0511,-14.04,-0.3,-36.66,,adl
4.374673,-2.1325,1.6891,2.5944,-1.4695,-1.6139,0.0511,-13.44,1.02,-36.06,,adl
4.38679,-2.1325,1.6891,2.5944,-2.2339,-0.5928,-0.734,-13.44,1.02,-36.06,,adl
4.389841,-2.1325,1.6891,2.5944,-2.2339,-0.5928,-0.734,-13.44,1.02,-36.06,,adl
4.390954,0.0995,-4.9266,-2.7011,-2.2339,-0.5928,-0.734,-13.44,1.02,-36.06,,adl
4.407047,0.0995,-4.9266,-2.7011,-2.2807,0.6663,-1.1904,-13.44,1.02,-36.06,,adl
4.428273,0.0995,-4.9266,-2.7011,-1.5926,0.661,-1.0653,-13.44,1.02,-36.06,,adl
4.43678,0.0995,-4.9266,-2.7011,-1.5926,0.661,-1.0653,-12.84,2.16,-35.88,,adl
4.449925,0.0995,-4.9266,-2.7011,-0.0852,-2.7164,-0.4229,-12.84,2.16,-35.88,,adl
4.45229,0.0995,-4.9266,-2.7011,-0.0852,-2.7164,-0.4229,-12.84,2.16,-35.88,,adl
4.453274,0.6668,-2.4267,3.8552,-0.0852,-2.7164,-0.4229,-12.84,2.16,-35.88,,adl
4.469246,0.6668,-2.4267,3.8552,0.1827,-2.5715,-0.1065,-12.84,2.16,-35.88,,adl
4.489677,0.6668,-2.4267,3.8552,-1.077,1.1542,-0.1795,-12.84,2.16,-35.88,,adl
4.497935,0.6668,-2.4267,3.8552,-1.077,1.1542,-0.1795,-11.46,4.74,-36.06,,adl
4.510139,0.6668,-2.4267,3.8552,-1.4056,1.9633,-0.3542,-11.46,4.74,-36.06,,adl
4.514237,0.6668,-2.4267,3.8552,-1.4056,1.9633,-0.3542,-11.46,4.74,-36.06,,adl
4.51515,3.8602,2.2952,-3.325,-1.4056,1.9633,-0.3542,-11.46,4.74,-36.06,,adl
4.530769,3.8602,2.2952,-3.325,-1.5319,1.8115,-0.3659,-11.46,4.74,-36.06,,adl
4.55021,3.8602,2.2952,-3.325,-1.2884,0.5273,-0.1843,-11.46,4.74,-36.06,,adl
4.55986,3.8602,2.2952,-3.325,-1.2884,0.5273,-0.1843,-11.58,6.24,-35.16,,adl
4.571217,3.8602,2.2952,-3.325,-0.6306,-0.5278,0.1113,-11.58,6.24,-35.16,,adl
4.575246,3.8602,2.2952,-3.325,-0.6306,-0.5278,0.1113,-11.58,6.24,-35.16,,adl
4.576175,0.5849,-1.5278,-1.3392,-0.6306,-0.5278,0.1113,-11.58,6.24,-35.16,,adl
4.592327,0.5849,-1.5278,-1.3392,-0.2333,0.1166,0.0192,-11.58,6.24,-35.16,,adl
4.612612,0.5849,-1.5278,-1.3392,-0.0549,0.8879,-0.1944,-11.58,6.24,-35.16,,adl
4.621856,0.5849,-1.5278,-1.3392,-0.0549,0.8879,-0.1944,-11.82,8.52,-34.62,,adl
4.634806,0.5849,-1.5278,-1.3392,0.0431,1.127,-0.1683,-11.82,8.52,-34.62,,adl
4.637266,0.5849,-1.5278,-1.3392,0.0431,1.127,-0.1683,-11.82,8.52,-34.62,,adl
4.63802,-1.3131,0.2781,-1.6133,0.0431,1.127,-0.1683,-11.82,8.52,-34.62,,adl
4.653766,-1.3131,0.2781,-1.6133,0.2498,1.078,0.1294,-11.82,8.52,-34.62,,adl
4.675162,-1.3131,0.2781,-1.6133,0.6775,0.9055,0.3872,-11.82,8.52,-34.62,,adl
4.684533,-1.3131,0.2781,-1.6133,0.6775,0.9055,0.3872,-11.4,10.5,-34.14,,adl
4.694693,-1.3131,0.2781,-1.6133,0.9561,0.5209,0.237,-11.4,10.5,-34.14,,adl
4.701222,-1.3131,0.2781,-1.6133,0.9561,0.5209,0.237,-11.4,10.5,-34.14,,adl
4.702703,0.621,0.4276,0.5847,0.9561,0.5209,0.237,-11.4,10.5,-34.14,,adl
4.717655,0.621,0.4276,0.5847,0.5406,0.8916,0.0027,-11.4,10.5,-34.14,,adl
4.735269,0.621,0.4276,0.5847,-0.481,1.0541,-0.1225,-11.4,10.5,-34.14,,adl
4.74476,0.621,0.4276,0.5847,-0.481,1.0541,-0.1225,-10.26,10.86,-34.02,,adl
4.75604,0.621,0.4276,0.5847,-0.897,0.1119,-0.1374,-10.26,10.86,-34.02,,adl
4.760587,0.621,0.4276,0.5847,-0.897,0.1119,-0.1374,-10.26,10.86,-34.02,,adl
4.761691,0.1173,-0.6796,-0.3219,-0.897,0.1119,-0.1374,-10.26,10.86,-34.02,,adl
4.775945,0.1173,-0.6796,-0.3219,-0.9049,-0.7739,-0.1166,-10.26,10.86,-34.02,,adl
4.796439,0.1173,-0.6796,-0.3219,-0.6834,-1.0887,-0.0836,-10.26,10.86,-34.02,,adl
4.805605,0.1173,-0.6796,-0.3219,-0.6834,-1.0887,-0.0836,-7.8,11.34,-34.8,,adl
4.817442,0.1173,-0.6796,-0.3219,-0.4916,-0.7207,-0.0506,-7.8,11.34,-34.8,,adl
4.821625,0.1173,-0.6796,-0.3219,-0.4916,-0.7207,-0.0506,-7.8,11.34,-34.8,,adl
4.822577,-0.0134,0.44,-0.117,-0.4916,-0.7207,-0.0506,-7.8,11.34,-34.8,,adl
4.83878,-0.0134,0.44,-0.117,-0.5092,-0.0399,-0.1108,-7.8,11.34,-34.8,,adl
4.857839,-0.0134,0.44,-0.117,-0.6956,0.4858,-0.2019,-7.8,11.34,-34.8,,adl
4.867449,-0.0134,0.44,-0.117,-0.6956,0.4858,-0.2019,-6.42,11.7,-34.56,,adl
4.879705,-0.0134,0.44,-0.117,-0.8384,0.2999,-0.2376,-6.42,11.7,-34.56,,adl
4.884687,-0.0134,0.44,-0.117,-0.8384,0.2999,-0.2376,-6.42,11.7,-34.56,,adl
4.886228,0.0539,-0.3227,1.2391,-0.8384,0.2999,-0.2376,-6.42,11.7,-34.56,,adl
4.900561,0.0539,-0.3227,1.2391,-0.7894,-0.1715,-0.236,-6.42,11.7,-34.56,,adl
4.920745,0.0539,-0.3227,1.2391,-0.6019,-0.285,-0.1933,-6.42,11.7,-34.56,,adl
4.929399,0.0539,-0.3227,1.2391,-0.6019,-0.285,-0.1933,-5.16,11.88,-34.08,,adl
4.94016,0.0539,-0.3227,1.2391,-0.3201,0.0091,-0.1454,-5.16,11.88,-34.08,,adl
4.944969,0.0539,-0.3227,1.2391,-0.3201,0.0091,-0.1454,-5.16,11.88,-34.08,,adl
4.945917,-0.9006,0.3836,1.6419,-0.3201,0.0091,-0.1454,-5.16,11.88,-34.08,,adl
4.961651,-0.9006,0.3836,1.6419,-0.0341,0.2008,-0.1017,-5.16,11.88,-34.08,,adl
4.982037,-0.9006,0.3836,1.6419,0.1539,0.1209,-0.0607,-5.16,11.88,-34.08,,adl
4.990776,-0.9006,0.3836,1.6419,0.1539,0.1209,-0.0607,-4.92,12.78,-33.78,,adl
5.002473,-0.9006,0.3836,1.6419,0.1662,-0.172,-0.0357,-4.92,12.78,-33.78,,adl
5.007001,-0.9006,0.3836,1.6419,0.1662,-0.172,-0.0357,-4.92,12.78,-33.78,,adl
5.007971,-0.2006,0.2742,0.0697,0.1662,-0.172,-0.0357,-4.92,12.78,-33.78,,adl
5.023017,-0.2006,0.2742,0.0697,0.065,-0.3563,-0.0117,-4.92,12.78,-33.78,,adl
5.042636,-0.2006,0.2742,0.0697,-0.0357,-0.2381,0.0245,-4.92,12.78,-33.78,,adl
5.051903,-0.2006,0.2742,0.0697,-0.0357,-0.2381,0.0245,-5.28,13.14,-33.3,,adl
5.06391,-0.2006,0.2742,0.0697,-0.0202,0.0937,0.0298,-5.28,13.14,-33.3,,adl
5.068189,-0.2006,0.2742,0.0697,-0.0202,0.0937,0.0298,-5.28,13.14,-33.3,,adl
5.069718,0.0313,-1.0846,0.8513,-0.0202,0.0937,0.0298,-5.28,13.14,-33.3,,adl
5.084372,0.0313,-1.0846,0.8513,0.2583,0.3979,0.0032,-5.28,13.14,-33.3,,adl
5.105195,0.0313,-1.0846,0.8513,0.5273,0.6535,0.0575,-5.28,13.14,-33.3,,adl
5.113477,0.0313,-1.0846,0.8513,0.5273,0.6535,0.0575,-5.4,13.68,-33.66,,adl
5.125593,0.0313,-1.0846,0.8513,0.7851,0.7835,0.057,-5.4,13.68,-33.66,,adl
5.129956,0.0313,-1.0846,0.8513,0.7851,0.7835,0.057,-5.4,13.68,-33.66,,adl
5.130933,-2.2195,-1.7593,0.9067,0.7851,0.7835,0.057,-5.4,13.68,-33.66,,adl
5.146006,-2.2195,-1.7593,0.9067,1.1489,0.9225,0.0527,-5.4,13.68,-33.66,,adl
5.165255,-2.2195,-1.7593,0.9067,1.559,1.4152,0.1491,-5.4,13.68,-33.66,,adl
5.173912,-2.2195,-1.7593,0.9067,1.559,1.4152,0.1491,-5.16,13.62,-34.08,,adl
5.185727,-2.2195,-1.7593,0.9067,2.0464,1.1313,0.187,-5.16,13.62,-34.08,,adl
5.19003,-2.2195,-1.7593,0.9067,2.0464,1.1313,0.187,-5.16,13.62,-34.08,,adl
5.190303,0.5002,0.3676,5.1092,2.0464,1.1313,0.187,-5.16,13.62,-34.08,,adl
5.206282,0.5002,0.3676,5.1092,2.4549,-0.3515,0.1731,-5.16,13.62,-34.08,,adl
5.22726,0.5002,0.3676,5.1092,2.3111,-2.0922,0.1539,-5.16,13.62,-34.08,,adl
5.236041,0.5002,0.3676,5.1092,2.3111,-2.0922,0.1539,-4.08,12.72,-34.8,,adl
5.24841,0.5002,0.3676,5.1092,1.7204,-2.849,0.3366,-4.08,12.72,-34.8,,adl
5.251822,0.5002,0.3676,5.1092,1.7204,-2.849,0.3366,-4.08,12.72,-34.8,,adl
5.252362,-0.1542,0.8115,-1.5797,1.7204,-2.849,0.3366,-4.08,12.72,-34.8,,adl
5.267874,-0.1542,0.8115,-1.5797,1.1052,-3.4568,0.5609,-4.08,12.72,-34.8,,adl
5.28903,-0.1542,0.8115,-1.5797,0.5864,-3.8376,0.6471,-4.08,12.72,-34.8,,adl
5.297949,-0.1542,0.8115,-1.5797,0.5864,-3.8376,0.6471,-4.02,10.44,-34.92,,adl
5.309358,-0.1542,0.8115,-1.5797,-0.008,-3.4552,0.7436,-4.02,10.44,-34.92,,adl
5.314579,-0.1542,0.8115,-1.5797,-0.008,-3.4552,0.7436,-4.02,10.44,-34.92,,adl
5.315526,-5.0007,-3.0514,-5.1986,-0.008,-3.4552,0.7436,-4.02,10.44,-34.92,,adl
5.332869,-5.0007,-3.0514,-5.1986,-0.5342,-2.0453,0.8213,-4.02,10.44,-34.92,,adl
5.350775,-5.0007,-3.0514,-5.1986,-0.9433,-0.9433,0.8591,-4.02,10.44,-34.92,,adl
5.360149,-5.0007,-3.0514,-5.1986,-0.9433,-0.9433,0.8591,-5.04,7.08,-34.68,,adl
5.371875,-5.0007,-3.0514,-5.1986,-1.0386,-0.8064,0.8133,-5.04,7.08,-34.68,,adl
5.376231,-5.0007,-3.0514,-5.1986,-1.0386,-0.8064,0.8133,-5.04,7.08,-34.68,,adl
5.377909,-0.1622,1.0648,-2.7808,-1.0386,-0.8064,0.8133,-5.04,7.08,-34.68,,adl
5.392094,-0.1622,1.0648,-2.7808,-0.734,-1.3081,0.7414,-5.04,7.08,-34.68,,adl
5.411871,-0.1622,1.0648,-2.7808,-0.3105,-2.007,0.6988,-5.04,7.08,-34.68,,adl
5.422547,-0.1622,1.0648,-2.7808,-0.3105,-2.007,0.6988,-7.92,4.26,-34.44,,adl
5.433739,-0.1622,1.0648,-2.7808,-0.0858,-2.2589,0.6541,-7.92,4.26,-34.44,,adl
5.437414,-0.1622,1.0648,-2.7808,-0.0858,-2.2589,0.6541,-7.92,4.26,-34.44,,adl
5.438251,1.1024,0.0094,-2.1104,-0.0858,-2.2589,0.6541,-7.92,4.26,-34.44,,adl
5.454153,1.1024,0.0094,-2.1104,-0.2178,-1.5915,0.587,-7.92,4.26,-34.44,,adl
5.474688,1.1024,0.0094,-2.1104,-0.9406,-1.1787,0.6077,-7.92,4.26,-34.44,,adl
5.484302,1.1024,0.0094,-2.1104,-0.9406,-1.1787,0.6077,-12.3,2.34,-32.7,,adl
5.495221,1.1024,0.0094,-2.1104,-1.6661,-1.4786,0.6365,-12.3,2.34,-32.7,,adl
5.501086,1.1024,0.0094,-2.1104,-1.6661,-1.4786,0.6365,-12.3,2.34,-32.7,,adl
5.502555,2.5555,0.1055,-2.7814,-1.6661,-1.4786,0.6365,-12.3,2.34,-32.7,,adl
5.515054,2.5555,0.1055,-2.7814,-2.0192,-1.6655,0.4352,-12.3,2.34,-32.7,,adl
5.536278,2.5555,0.1055,-2.7814,-2.0586,-1.8078,0.0714,-12.3,2.34,-32.7,,adl
5.544583,2.5555,0.1055,-2.7814,-2.0586,-1.8078,0.0714,-16.8,1.98,-31.14,,adl
5.556792,2.5555,0.1055,-2.7814,-1.8024,-2.2115,-0.0852,-16.8,1.98,-31.14,,adl
5.560317,2.5555,0.1055,-2.7814,-1.8024,-2.2115,-0.0852,-16.8,1.98,-31.14,,adl
5.561284,1.0878,-1.3366,0.8062,-1.8024,-2.2115,-0.0852,-16.8,1.98,-31.14,,adl
5.577254,1.0878,-1.3366,0.8062,-1.0946,-2.7782,0.0772,-16.8,1.98,-31.14,,adl
5.59761,1.0878,-1.3366,0.8062,-0.4208,-2.5247,0.1726,-16.8,1.98,-31.14,,adl
5.606432,1.0878,-1.3366,0.8062,-0.4208,-2.5247,0.1726,-20.76,3.3,-28.56,,adl
5.617543,1.0878,-1.3366,0.8062,-0.024,-1.6671,0.1087,-20.76,3.3,-28.56,,adl
5.622566,1.0878,-1.3366,0.8062,-0.024,-1.6671,0.1087,-20.76,3.3,-28.56,,adl
5.623485,2.2574,-1.7318,2.6699,-0.024,-1.6671,0.1087,-20.76,3.3,-28.56,,adl
5.638521,2.2574,-1.7318,2.6699,-0.0692,-0.9593,0.032,-20.76,3.3,-28.56,,adl
5.659196,2.2574,-1.7318,2.6699,-0.2674,-0.6365,0.1784,-20.76,3.3,-28.56,,adl
5.669749,2.2574,-1.7318,2.6699,-0.2674,-0.6365,0.1784,-24.72,4.44,-25.68,,adl
5.679568,2.2574,-1.7318,2.6699,-0.3798,-0.4192,0.5545,-24.72,4.44,-25.68,,adl
5.683996,2.2574,-1.7318,2.6699,-0.3798,-0.4192,0.5545,-24.72,4.44,-25.68,,adl
5.685548,-1.0349,1.9774,-1.45,-0.3798,-0.4192,0.5545,-24.72,4.44,-25.68,,adl
5.701539,-1.0349,1.9774,-1.45,-0.5646,-0.5252,0.9523,-24.72,4.44,-25.68,,adl
5.720569,-1.0349,1.9774,-1.45,-0.636,-0.9172,1.3065,-24.72,4.44,-25.68,,adl
5.729922,-1.0349,1.9774,-1.45,-0.636,-0.9172,1.3065,-28.08,5.22,-22.74,,adl
5.741567,-1.0349,1.9774,-1.45,-0.5172,-1.1563,1.2815,-28.08,5.22,-22.74,,adl
5.745344,-1.0349,1.9774,-1.45,-0.5172,-1.1563,1.2815,-28.08,5.22,-22.74,,adl
5.746226,-1.6132,1.4091,-0.929,-0.5172,-1.1563,1.2815,-28.08,5.22,-22.74,,adl
5.761133,-1.6132,1.4091,-0.929,-0.8341,-0.882,0.857,-28.08,5.22,-22.74,,adl
5.782525,-1.6132,1.4091,-0.929,-1.3603,-0.6285,0.5561,-28.08,5.22,-22.74,,adl
5.791257,-1.6132,1.4091,-0.929,-1.3603,-0.6285,0.5561,-30.24,6.6,-19.98,,adl
5.802895,-1.6132,1.4091,-0.929,-1.5958,-0.392,0.2743,-30.24,6.6,-19.98,,adl
5.807571,-1.6132,1.4091,-0.929,-1.5958,-0.392,0.2743,-30.24,6.6,-19.98,,adl
5.808632,0.9375,-3.0408,-2.9846,-1.5958,-0.392,0.2743,-30.24,6.6,-19.98,,adl
5.822153,0.9375,-3.0408,-2.9846,-1.5185,-0.5268,-0.1241,-30.24,6.6,-19.98,,adl
5.843584,0.9375,-3.0408,-2.9846,-1.0104,-1.6213,-0.2253,-30.24,6.6,-19.98,,adl
5.852744,0.9375,-3.0408,-2.9846,-1.0104,-1.6213,-0.2253,-32.16,7.56,-17.34,,adl
5.864602,0.9375,-3.0408,-2.9846,-0.8229,-2.0118,0.0016,-32.16,7.56,-17.34,,adl
5.869175,0.9375,-3.0408,-2.9846,-0.8229,-2.0118,0.0016,-32.16,7.56,-17.34,,adl
5.870489,2.7847,0.1929,-1.6256,-0.8229,-2.0118,0.0016,-32.16,7.56,-17.34,,adl
5.88418,2.7847,0.1929,-1.6256,-1.5042,-0.8581,0.1433,-32.16,7.56,-17.34,,adl
5.905586,2.7847,0.1929,-1.6256,-1.5643,-0.849,-0.0011,-32.16,7.56,-17.34,,adl
5.914266,2.7847,0.1929,-1.6256,-1.5643,-0.849,-0.0011,-32.94,9.0,-15.0,,adl
5.925489,2.7847,0.1929,-1.6256,-0.7217,-1.6304,-0.0549,-32.94,9.0,-15.0,,adl
5.92969,2.7847,0.1929,-1.6256,-0.7217,-1.6304,-0.0549,-32.94,9.0,-15.0,,adl
5.93056,-0.0021,-1.7936,1.8895,-0.7217,-1.6304,-0.0549,-32.94,9.0,-15.0,,adl
5.945383,-0.0021,-1.7936,1.8895,-0.1678,-1.2453,-0.1411,-32.94,9.0,-15.0,,adl
5.966571,-0.0021,-1.7936,1.8895,-0.4469,0.0123,-0.2013,-32.94,9.0,-15.0,,adl
5.974944,-0.0021,-1.7936,1.8895,-0.4469,0.0123,-0.2013,-33.84,10.62,-12.36,,adl
5.987355,-0.0021,-1.7936,1.8895,-0.9726,0.1486,-0.0197,-33.84,10.62,-12.36,,adl
5.99164,-0.0021,-1.7936,1.8895,-0.9726,0.1486,-0.0197,-33.84,10.62,-12.36,,adl
5.99265,-1.3488,0.6323,-1.9365,-0.9726,0.1486,-0.0197,-33.84,10.62,-12.36,,adl
6.007458,-1.3488,0.6323,-1.9365,-1.1409,-0.4661,0.2546,-33.84,10.62,-12.36,,adl
6.028437,-1.3488,0.6323,-1.9365,-0.7792,-0.8639,0.3872,-33.84,10.62,-12.36,,adl
6.037983,-1.3488,0.6323,-1.9365,-0.7792,-0.8639,0.3872,-34.8,11.46,-9.12,,adl
6.048008,-1.3488,0.6323,-1.9365,-0.3856,-1.0924,0.3329,-34.8,11.46,-9.12,,adl
6.05197,-1.3488,0.6323,-1.9365,-0.3856,-1.0924,0.3329,-34.8,11.46,-9.12,,adl
6.053487,-1.7322,1.1485,-1.2553,-0.3856,-1.0924,0.3329,-34.8,11.46,-9.12,,adl
6.069488,-1.7322,1.1485,-1.2553,-0.3803,-0.833,0.1981,-34.8,11.46,-9.12,,adl
6.090161,-1.7322,1.1485,-1.2553,-0.7595,-0.155,0.0863,-34.8,11.46,-9.12,,adl
6.101084,-1.7322,1.1485,-1.2553,-0.7595,-0.155,0.0863,-35.58,12.0,-6.72,,adl
6.110723,-1.7322,1.1485,-1.2553,-0.9369,-0.3627,0.0629,-35.58,12.0,-6.72,,adl
6.115068,-1.7322,1.1485,-1.2553,-0.9369,-0.3627,0.0629,-35.58,12.0,-6.72,,adl
6.116128,-1.3427,-0.2156,-0.0229,-0.9369,-0.3627,0.0629,-35.58,12.0,-6.72,,adl
6.130132,-1.3427,-0.2156,-0.0229,-0.9001,-1.2426,0.0756,-35.58,12.0,-6.72,,adl
6.151101,-1.3427,-0.2156,-0.0229,-1.0019,-1.8829,0.0543,-35.58,12.0,-6.72,,adl
6.161299,-1.3427,-0.2156,-0.0229,-1.0019,-1.8829,0.0543,-37.26,11.64,-4.68,,adl
6.172037,-1.3427,-0.2156,-0.0229,-1.1915,-2.4528,0.0383,-37.26,11.64,-4.68,,adl
6.176404,-1.3427,-0.2156,-0.0229,-1.1915,-2.4528,0.0383,-37.26,11.64,-4.68,,adl
6.177529,-0.6862,0.0777,-0.9267,-1.1915,-2.4528,0.0383,-37.26,11.64,-4.68,,adl
6.1931,-0.6862,0.0777,-0.9267,-1.3049,-2.9577,0.0229,-37.26,11.64,-4.68,,adl
6.21326,-0.6862,0.0777,-0.9267,-1.2986,-3.0877,-0.0027,-37.26,11.64,-4.68,,adl
6.221936,-0.6862,0.0777,-0.9267,-1.2986,-3.0877,-0.0027,-37.62,11.64,-2.04,,adl
6.233354,-0.6862,0.0777,-0.9267,-1.2256,-2.9934,-0.0069,-37.62,11.64,-2.04,,adl
6.237423,-0.6862,0.0777,-0.9267,-1.2256,-2.9934,-0.0069,-37.62,11.64,-2.04,,adl
6.238328,-0.8259,0.0583,-1.1386,-1.2256,-2.9934,-0.0069,-37.62,11.64,-2.04,,adl
6.253054,-0.8259,0.0583,-1.1386,-1.0999,-2.9055,0.0245,-37.62,11.64,-2.04,,adl
6.27413,-0.8259,0.0583,-1.1386,-0.9928,-2.7606,0.0948,-37.62,11.64,-2.04,,adl
6.284537,-0.8259,0.0583,-1.1386,-0.9928,-2.7606,0.0948,-37.8,11.88,2.1,,adl
6.294247,-0.8259,0.0583,-1.1386,-0.9619,-2.4427,0.0943,-37.8,11.88,2.1,,adl
6.300841,-0.8259,0.0583,-1.1386,-0.9619,-2.4427,0.0943,-37.8,11.88,2.1,,adl
6.302399,-0.4151,0.0691,-1.9828,-0.9619,-2.4427,0.0943,-37.8,11.88,2.1,,adl
6.316794,-0.4151,0.0691,-1.9828,-0.9699,-1.9862,0.0426,-37.8,11.88,2.1,,adl
6.336211,-0.4151,0.0691,-1.9828,-1.0045,-1.5867,0.0218,-37.8,11.88,2.1,,adl
6.344787,-0.4151,0.0691,-1.9828,-1.0045,-1.5867,0.0218,-37.32,11.76,8.1,,adl
6.356762,-0.4151,0.0691,-1.9828,-1.0205,-1.3939,-0.0075,-37.32,11.76,8.1,,adl
6.359817,-0.4151,0.0691,-1.9828,-1.0205,-1.3939,-0.0075,-37.32,11.76,8.1,,adl
6.360598,-0.0975,-0.2387,-1.5571,-1.0205,-1.3939,-0.0075,-37.32,11.76,8.1,,adl
6.376113,-0.0975,-0.2387,-1.5571,-0.9625,-1.2474,-0.0591,-37.32,11.76,8.1,,adl
6.397152,-0.0975,-0.2387,-1.5571,-0.8495,-1.1191,-0.1049,-37.32,11.76,8.1,,adl
6.406876,-0.0975,-0.2387,-1.5571,-0.8495,-1.1191,-0.1049,-36.18,11.58,14.4,,adl
6.417385,-0.0975,-0.2387,-1.5571,-0.7105,-0.9683,-0.1321,-36.18,11.58,14.4,,adl
6.422249,-0.0975,-0.2387,-1.5571,-0.7105,-0.9683,-0.1321,-36.18,11.58,14.4,,adl
6.423234,-0.0753,-0.1778,-0.9024,-0.7105,-0.9683,-0.1321,-36.18,11.58,14.4,,adl
6.439504,-0.0753,-0.1778,-0.9024,-0.6131,-0.9007,-0.1422,-36.18,11.58,14.4,,adl
6.459026,-0.0753,-0.1778,-0.9024,-0.5081,-0.8357,-0.1843,-36.18,11.58,14.4,,adl
6.467784,-0.0753,-0.1778,-0.9024,-0.5081,-0.8357,-0.1843,-35.04,10.62,20.04,,adl
6.480096,-0.0753,-0.1778,-0.9024,-0.3334,-0.7638,-0.1928,-35.04,10.62,20.04,,adl
6.48454,-0.0753,-0.1778,-0.9024,-0.3334,-0.7638,-0.1928,-35.04,10.62,20.04,,adl
6.486027,-0.7942,-0.1266,0.1268,-0.3334,-0.7638,-0.1928,-35.04,10.62,20.04,,adl
6.500103,-0.7942,-0.1266,0.1268,-0.1891,-0.7366,-0.1678,-35.04,10.62,20.04,,adl
6.520522,-0.7942,-0.1266,0.1268,-0.114,-0.7398,-0.1246,-35.04,10.62,20.04,,adl
6.529396,-0.7942,-0.1266,0.1268,-0.114,-0.7398,-0.1246,-33.48,9.84,24.18,,adl
6.540233,-0.7942,-0.1266,0.1268,-0.1012,-0.8906,-0.0655,-33.48,9.84,24.18,,adl
6.545267,-0.7942,-0.1266,0.1268,-0.1012,-0.8906,-0.0655,-33.48,9.84,24.18,,adl
6.546259,-0.1018,0.4277,0.4973,-0.1012,-0.8906,-0.0655,-33.48,9.84,24.18,,adl
6.561859,-0.1018,0.4277,0.4973,-0.1656,-1.2006,-0.0202,-33.48,9.84,24.18,,adl
6.582592,-0.1018,0.4277,0.4973,-0.2711,-1.6245,-0.0112,-33.48,9.84,24.18,,adl
6.590835,-0.1018,0.4277,0.4973,-0.2711,-1.6245,-0.0112,-32.58,8.58,26.64,,adl
6.602221,-0.1018,0.4277,0.4973,-0.3169,-2.1391,-0.0138,-32.58,8.58,26.64,,adl
6.606328,-0.1018,0.4277,0.4973,-0.3169,-2.1391,-0.0138,-32.58,8.58,26.64,,adl
6.607225,0.0094,-0.5302,1.504,-0.3169,-2.1391,-0.0138,-32.58,8.58,26.64,,adl
6.623542,0.0094,-0.5302,1.504,-0.3617,-2.4533,0.0144,-32.58,8.58,26.64,,adl
6.644227,0.0094,-0.5302,1.504,-0.3995,-2.7431,0.0692,-32.58,8.58,26.64,,adl
6.652713,0.0094,-0.5302,1.504,-0.3995,-2.7431,0.0692,-30.9,7.86,29.16,,adl
6.664187,0.0094,-0.5302,1.504,-0.3313,-2.93,0.1182,-30.9,7.86,29.16,,adl
6.668521,0.0094,-0.5302,1.504,-0.3313,-2.93,0.1182,-30.9,7.86,29.16,,adl
6.670104,-0.5968,-0.4992,0.7832,-0.3313,-2.93,0.1182,-30.9,7.86,29.16,,adl
6.684488,-0.5968,-0.4992,0.7832,-0.1411,-2.8464,0.2328,-30.9,7.86,29.16,,adl
6.70544,-0.5968,-0.4992,0.7832,0.1523,-2.3287,0.2823,-30.9,7.86,29.16,,adl
6.714221,-0.5968,-0.4992,0.7832,0.1523,-2.3287,0.2823,-28.26,8.16,30.96,,adl
6.725855,-0.5968,-0.4992,0.7832,0.3643,-1.6778,0.3132,-28.26,8.16,30.96,,adl
6.730159,-0.5968,-0.4992,0.7832,0.3643,-1.6778,0.3132,-28.26,8.16,30.96,,adl
6.731148,-0.122,-1.1796,-1.072,0.3643,-1.6778,0.3132,-28.26,8.16,30.96,,adl
6.746295,-0.122,-1.1796,-1.072,0.4123,-1.2416,0.4522,-28.26,8.16,30.96,,adl
6.767735,-0.122,-1.1796,-1.072,0.4176,-1.1063,0.6445,-28.26,8.16,30.96,,adl
6.776472,-0.122,-1.1796,-1.072,0.4176,-1.1063,0.6445,-25.26,8.4,32.58,,adl
6.787511,-0.122,-1.1796,-1.072,0.4565,-1.2661,0.8027,-25.26,8.4,32.58,,adl
6.791234,-0.122,-1.1796,-1.072,0.4565,-1.2661,0.8027,-25.26,8.4,32.58,,adl
6.7923,-0.5131,-0.911,-1.2632,0.4565,-1.2661,0.8027,-25.26,8.4,32.58,,adl
6.808712,-0.5131,-0.911,-1.2632,0.3792,-1.0658,0.996,-25.26,8.4,32.58,,adl
6.828538,-0.5131,-0.911,-1.2632,0.0501,-0.5294,1.2916,-25.26,8.4,32.58,,adl
6.837248,-0.5131,-0.911,-1.2632,0.0501,-0.5294,1.2916,-20.94,9.54,34.14,,adl
6.851134,-0.5131,-0.911,-1.2632,-0.4224,-0.4144,1.461,-20.94,9.54,34.14,,adl
6.853094,-0.5131,-0.911,-1.2632,-0.4224,-0.4144,1.461,-20.94,9.54,34.14,,adl
6.853923,-0.2463,-0.3389,-4.3064,-0.4224,-0.4144,1.461,-20.94,9.54,34.14,,adl
6.867958,-0.2463,-0.3389,-4.3064,-0.7654,-0.7159,1.6187,-20.94,9.54,34.14,,adl
6.88924,-0.2463,-0.3389,-4.3064,-0.7057,-1.3955,1.9761,-20.94,9.54,34.14,,adl
6.899073,-0.2463,-0.3389,-4.3064,-0.7057,-1.3955,1.9761,-16.44,10.86,34.2,,adl
6.910375,-0.2463,-0.3389,-4.3064,-0.4128,-2.1508,2.3084,-16.44,10.86,34.2,,adl
6.916093,-0.2463,-0.3389,-4.3064,-0.4128,-2.1508,2.3084,-16.44,10.86,34.2,,adl
6.917524,-1.3194,-0.7666,-0.5783,-0.4128,-2.1508,2.3084,-16.44,10.86,34.2,,adl
6.933505,-1.3194,-0.7666,-0.5783,-0.7015,-2.3915,1.8317,-16.44,10.86,34.2,,adl
6.950581,-1.3194,-0.7666,-0.5783,-1.2922,-2.6174,1.1292,-16.44,10.86,34.2,,adl
6.959413,-1.3194,-0.7666,-0.5783,-1.2922,-2.6174,1.1292,-12.24,11.82,34.8,,adl
6.971336,-1.3194,-0.7666,-0.5783,-1.5782,-2.7894,0.6173,-12.24,11.82,34.8,,adl
6.975685,-1.3194,-0.7666,-0.5783,-1.5782,-2.7894,0.6173,-12.24,11.82,34.8,,adl
6.976473,2.6258,-2.2773,-2.389,-1.5782,-2.7894,0.6173,-12.24,11.82,34.8,,adl
6.992556,2.6258,-2.2773,-2.389,-1.5223,-2.7889,0.2258,-12.24,11.82,34.8,,adl
7.013603,2.6258,-2.2773,-2.389,-1.2788,-2.6387,-0.1097,-12.24,11.82,34.8,,adl
7.022596,2.6258,-2.2773,-2.389,-1.2788,-2.6387,-0.1097,-7.44,12.36,34.26,,adl
7.034807,2.6258,-2.2773,-2.389,-0.9156,-2.4064,-0.3041,-7.44,12.36,34.26,,adl
7.037221,2.6258,-2.2773,-2.389,-0.9156,-2.4064,-0.3041,-7.44,12.36,34.26,,adl
7.038127,3.1943,-1.0242,-2.7138,-0.9156,-2.4064,-0.3041,-7.44,12.36,34.26,,adl
7.054447,3.1943,-1.0242,-2.7138,-0.4996,-2.1172,-0.3627,-7.44,12.36,34.26,,adl
7.074792,3.1943,-1.0242,-2.7138,-0.2349,-1.8136,-0.4048,-7.44,12.36,34.26,,adl
7.084546,3.1943,-1.0242,-2.7138,-0.2349,-1.8136,-0.4048,-2.04,12.66,32.82,,adl
7.0954,3.1943,-1.0242,-2.7138,-0.1779,-1.3619,-0.4107,-2.04,12.66,32.82,,adl
7.102745,3.1943,-1.0242,-2.7138,-0.1779,-1.3619,-0.4107,-2.04,12.66,32.82,,adl
7.104155,3.6204,-0.4591,-0.8083,-0.1779,-1.3619,-0.4107,-2.04,12.66,32.82,,adl
7.114589,3.6204,-0.4591,-0.8083,-0.2967,-0.767,-0.2301,-2.04,12.66,32.82,,adl
7.136309,3.6204,-0.4591,-0.8083,-0.3862,-0.4357,0.0277,-2.04,12.66,32.82,,adl
7.145499,3.6204,-0.4591,-0.8083,-0.3862,-0.4357,0.0277,3.3,12.78,31.26,,adl
7.155675,3.6204,-0.4591,-0.8083,-0.3505,-0.3441,0.2056,3.3,12.78,31.26,,adl
7.160689,3.6204,-0.4591,-0.8083,-0.3505,-0.3441,0.2056,3.3,12.78,31.26,,adl
7.16166,1.0232,0.0459,1.7755,-0.3505,-0.3441,0.2056,3.3,12.78,31.26,,adl
7.177485,1.0232,0.0459,1.7755,-0.18,-0.22,0.3446,3.3,12.78,31.26,,adl
7.196792,1.0232,0.0459,1.7755,-0.2392,0.3105,0.4911,3.3,12.78,31.26,,adl
7.20603,1.0232,0.0459,1.7755,-0.2392,0.3105,0.4911,7.92,13.26,28.68,,adl
7.217374,1.0232,0.0459,1.7755,-0.5406,0.8133,0.6983,7.92,13.26,28.68,,adl
7.221698,1.0232,0.0459,1.7755,-0.5406,0.8133,0.6983,7.92,13.26,28.68,,adl
7.222522,-2.1664,1.8646,-1.922,-0.5406,0.8133,0.6983,7.92,13.26,28.68,,adl
7.238323,-2.1664,1.8646,-1.922,-0.8762,1.1601,1.0077,7.92,13.26,28.68,,adl
7.258709,-2.1664,1.8646,-1.922,-0.898,1.028,1.1606,7.92,13.26,28.68,,adl
7.26746,-2.1664,1.8646,-1.922,-0.898,1.028,1.1606,11.16,13.5,27.0,,adl
7.279394,-2.1664,1.8646,-1.922,-0.5007,0.5433,0.7723,11.16,13.5,27.0,,adl
7.283834,-2.1664,1.8646,-1.922,-0.5007,0.5433,0.7723,11.16,13.5,27.0,,adl
7.28536,-2.5366,-4.5233,1.5904,-0.5007,0.5433,0.7723,11.16,13.5,27.0,,adl
7.300795,-2.5366,-4.5233,1.5904,-0.2716,0.1752,0.074,11.16,13.5,27.0,,adl
7.320664,-2.5366,-4.5233,1.5904,-0.1007,-0.4549,-0.0767,11.16,13.5,27.0,,adl
7.329525,-2.5366,-4.5233,1.5904,-0.1007,-0.4549,-0.0767,12.48,12.6,26.88,,adl
7.340671,-2.5366,-4.5233,1.5904,-0.1955,-1.4046,0.1332,12.48,12.6,26.88,,adl
7.345251,-2.5366,-4.5233,1.5904,-0.1955,-1.4046,0.1332,12.48,12.6,26.88,,adl
7.346175,2.6042,-0.3011,1.7473,-0.1955,-1.4046,0.1332,12.48,12.6,26.88,,adl
7.361254,2.6042,-0.3011,1.7473,-0.5486,-1.1175,-0.1635,12.48,12.6,26.88,,adl
7.382305,2.6042,-0.3011,1.7473,-1.0216,-0.0293,-0.5619,12.48,12.6,26.88,,adl
7.391053,2.6042,-0.3011,1.7473,-1.0216,-0.0293,-0.5619,13.32,11.34,27.18,,adl
7.402302,2.6042,-0.3011,1.7473,-1.4908,0.727,-0.8687,13.32,11.34,27.18,,adl
7.406846,2.6042,-0.3011,1.7473,-1.4908,0.727,-0.8687,13.32,11.34,27.18,,adl
7.407815,3.6305,2.4437,-5.5988,-1.4908,0.727,-0.8687,13.32,11.34,27.18,,adl
7.422777,3.6305,2.4437,-5.5988,-1.6852,1.1798,-0.865,13.32,11.34,27.18,,adl
7.44287,3.6305,2.4437,-5.5988,-1.0317,0.9438,-0.2386,13.32,11.34,27.18,,adl
7.451314,3.6305,2.4437,-5.5988,-1.0317,0.9438,-0.2386,13.14,8.88,28.2,,adl
7.463666,3.6305,2.4437,-5.5988,-0.0192,0.4815,0.6104,13.14,8.88,28.2,,adl
7.467995,3.6305,2.4437,-5.5988,-0.0192,0.4815,0.6104,13.14,8.88,28.2,,adl
7.46955,-0.4641,-2.9409,-3.2407,-0.0192,0.4815,0.6104,13.14,8.88,28.2,,adl
7.484159,-0.4641,-2.9409,-3.2407,-0.1135,0.5342,0.3691,13.14,8.88,28.2,,adl
7.505762,-0.4641,-2.9409,-3.2407,-0.1225,0.4155,0.0996,13.14,8.88,28.2,,adl
7.514751,-0.4641,-2.9409,-3.2407,-0.1225,0.4155,0.0996,13.2,6.3,29.16,,adl
7.525396,-0.4641,-2.9409,-3.2407,0.5209,0.1071,0.1071,13.2,6.3,29.16,,adl
7.529621,-0.4641,-2.9409,-3.2407,0.5209,0.1071,0.1071,13.2,6.3,29.16,,adl
7.530563,0.7126,0.4876,0.1543,0.5209,0.1071,0.1071,13.2,6.3,29.16,,adl
7.546893,0.7126,0.4876,0.1543,0.8149,0.131,0.0607,13.2,6.3,29.16,,adl
7.567895,0.7126,0.4876,0.1543,0.3398,1.5979,-0.0293,13.2,6.3,29.16,,adl
7.575868,0.7126,0.4876,0.1543,0.3398,1.5979,-0.0293,12.48,4.62,29.52,,adl
7.587637,0.7126,0.4876,0.1543,-0.221,2.147,-0.0202,12.48,4.62,29.52,,adl
7.591952,0.7126,0.4876,0.1543,-0.221,2.147,-0.0202,12.48,4.62,29.52,,adl
7.593071,0.0753,-0.3373,-1.7055,-0.221,2.147,-0.0202,12.48,4.62,29.52,,adl
7.608031,0.0753,-0.3373,-1.7055,-0.4884,1.1302,0.1539,12.48,4.62,29.52,,adl
7.628861,0.0753,-0.3373,-1.7055,-0.4815,0.2791,0.163,12.48,4.62,29.52,,adl
7.637226,0.0753,-0.3373,-1.7055,-0.4815,0.2791,0.163,10.98,3.42,30.24,,adl
7.648402,0.0753,-0.3373,-1.7055,-0.3137,-0.0794,-0.0016,10.98,3.42,30.24,,adl
7.654828,0.0753,-0.3373,-1.7055,-0.3137,-0.0794,-0.0016,10.98,3.42,30.24,,adl
7.656337,0.1657,0.2938,-0.9889,-0.3137,-0.0794,-0.0016,10.98,3.42,30.24,,adl
7.669592,0.1657,0.2938,-0.9889,-0.2013,0.0165,-0.1886,10.98,3.42,30.24,,adl
7.689556,0.1657,0.2938,-0.9889,-0.3856,0.4762,-0.2482,10.98,3.42,30.24,,adl
7.700454,0.1657,0.2938,-0.9889,-0.3856,0.4762,-0.2482,9.72,2.28,31.5,,adl
7.711,0.1657,0.2938,-0.9889,-0.6866,0.6274,-0.2578,9.72,2.28,31.5,,adl
7.71507,0.1657,0.2938,-0.9889,-0.6866,0.6274,-0.2578,9.72,2.28,31.5,,adl
7.716037,0.2314,-0.1641,-0.1931,-0.6866,0.6274,-0.2578,9.72,2.28,31.5,,adl
7.731334,0.2314,-0.1641,-0.1931,-0.8511,0.188,-0.2892,9.72,2.28,31.5,,adl
7.751323,0.2314,-0.1641,-0.1931,-0.8735,-0.4724,-0.3542,9.72,2.28,31.5,,adl
7.760506,0.2314,-0.1641,-0.1931,-0.8735,-0.4724,-0.3542,7.68,1.26,32.88,,adl
7.771701,0.2314,-0.1641,-0.1931,-0.8826,-0.7521,-0.4133,7.68,1.26,32.88,,adl
7.774881,0.2314,-0.1641,-0.1931,-0.8826,-0.7521,-0.4133,7.68,1.26,32.88,,adl
7.775696,0.4134,0.0443,-0.532,-0.8826,-0.7521,-0.4133,7.68,1.26,32.88,,adl
7.791834,0.4134,0.0443,-0.532,-0.9055,-0.6951,-0.4522,7.68,1.26,32.88,,adl
7.813328,0.4134,0.0443,-0.532,-0.8895,-0.5284,-0.473,7.68,1.26,32.88,,adl
7.821839,0.4134,0.0443,-0.532,-0.8895,-0.5284,-0.473,6.6,0.24,34.2,,adl
7.83396,0.4134,0.0443,-0.532,-0.7622,-0.3153,-0.4613,6.6,0.24,34.2,,adl
7.837827,0.4134,0.0443,-0.532,-0.7622,-0.3153,-0.4613,6.6,0.24,34.2,,adl
7.838833,-0.3764,0.2345,-0.0523,-0.7622,-0.3153,-0.4613,6.6,0.24,34.2,,adl
7.853821,-0.3764,0.2345,-0.0523,-0.5662,-0.0884,-0.4021,6.6,0.24,34.2,,adl
7.875466,-0.3764,0.2345,-0.0523,-0.4128,0.1092,-0.3537,6.6,0.24,34.2,,adl
7.884738,-0.3764,0.2345,-0.0523,-0.4128,0.1092,-0.3537,6.36,-1.26,35.16,,adl
7.894987,-0.3764,0.2345,-0.0523,-0.2274,0.3675,-0.3159,6.36,-1.26,35.16,,adl
7.900879,-0.3764,0.2345,-0.0523,-0.2274,0.3675,-0.3159,6.36,-1.26,35.16,,adl
7.902407,-0.9968,0.1616,0.3966,-0.2274,0.3675,-0.3159,6.36,-1.26,35.16,,adl
7.918103,-0.9968,0.1616,0.3966,-0.0692,0.588,-0.2466,6.36,-1.26,35.16,,adl
7.936538,-0.9968,0.1616,0.3966,-0.0378,0.8543,-0.1284,6.36,-1.26,35.16,,adl
7.945156,-0.9968,0.1616,0.3966,-0.0378,0.8543,-0.1284,6.24,-2.52,35.22,,adl
7.956654,-0.9968,0.1616,0.3966,-0.0613,1.2006,0.0107,6.24,-2.52,35.22,,adl
7.960735,-0.9968,0.1616,0.3966,-0.0613,1.2006,0.0107,6.24,-2.52,35.22,,adl
7.961771,-0.4447,-0.7185,1.6823,-0.0613,1.2006,0.0107,6.24,-2.52,35.22,,adl
7.97701,-0.4447,-0.7185,1.6823,0.2541,1.2863,0.0463,6.24,-2.52,35.22,,adl
7.997637,-0.4447,-0.7185,1.6823,0.7888,1.0653,0.1097,6.24,-2.52,35.22,,adl
8.006528,-0.4447,-0.7185,1.6823,0.7888,1.0653,0.1097,6.6,-3.54,35.4,,adl
8.017317,-0.4447,-0.7185,1.6823,1.2911,1.0988,0.2194,6.6,-3.54,35.4,,adl
8.02153,-0.4447,-0.7185,1.6823,1.2911,1.0988,0.2194,6.6,-3.54,35.4,,adl
8.022425,-2.8547,-1.3109,1.6912,1.2911,1.0988,0.2194,6.6,-3.54,35.4,,adl
8.039645,-2.8547,-1.3109,1.6912,1.6629,1.0152,0.2823,6.6,-3.54,35.4,,adl
8.057993,-2.8547,-1.3109,1.6912,1.885,0.7553,0.3665,6.6,-3.54,35.4,,adl
8.067836,-2.8547,-1.3109,1.6912,1.885,0.7553,0.3665,6.18,-4.2,35.34,,adl
8.080061,-2.8547,-1.3109,1.6912,2.0437,0.4677,0.522,6.18,-4.2,35.34,,adl
8.084617,-2.8547,-1.3109,1.6912,2.0437,0.4677,0.522,6.18,-4.2,35.34,,adl
8.086036,-0.3339,0.2604,2.5817,2.0437,0.4677,0.522,6.18,-4.2,35.34,,adl
8.100974,-0.3339,0.2604,2.5817,2.342,0.1491,0.6322,6.18,-4.2,35.34,,adl
8.121373,-0.3339,0.2604,2.5817,2.4831,-0.865,0.5475,6.18,-4.2,35.34,,adl
8.129579,-0.3339,0.2604,2.5817,2.4831,-0.865,0.5475,4.68,-3.54,35.76,,adl
8.1405,-0.3339,0.2604,2.5817,2.1822,-1.1675,0.5593,4.68,-3.54,35.76,,adl
8.145163,-0.3339,0.2604,2.5817,2.1822,-1.1675,0.5593,4.68,-3.54,35.76,,adl
8.146103,0.9325,-1.7901,-2.7972,2.1822,-1.1675,0.5593,4.68,-3.54,35.76,,adl
8.162066,0.9325,-1.7901,-2.7972,1.5878,-1.0892,0.6104,4.68,-3.54,35.76,,adl
8.183643,0.9325,-1.7901,-2.7972,1.1691,-0.9646,0.5502,4.68,-3.54,35.76,,adl
8.19138,0.9325,-1.7901,-2.7972,1.1691,-0.9646,0.5502,3.12,-1.14,36.24,,adl
8.20239,0.9325,-1.7901,-2.7972,1.0498,-0.702,0.588,3.12,-1.14,36.24,,adl
8.207264,0.9325,-1.7901,-2.7972,1.0498,-0.702,0.588,3.12,-1.14,36.24,,adl
8.208196,-2.4589,-2.8445,-2.7669,1.0498,-0.702,0.588,3.12,-1.14,36.24,,adl
8.223432,-2.4589,-2.8445,-2.7669,1.0125,-0.5204,0.8725,3.12,-1.14,36.24,,adl
8.243939,-2.4589,-2.8445,-2.7669,0.8448,-1.1489,1.0498,3.12,-1.14,36.24,,adl
8.252841,-2.4589,-2.8445,-2.7669,0.8448,-1.1489,1.0498,2.76,2.64,35.28,,adl
8.264858,-2.4589,-2.8445,-2.7669,0.6716,-2.2903,0.8847,2.76,2.64,35.28,,adl
8.269669,-2.4589,-2.8445,-2.7669,0.6716,-2.2903,0.8847,2.76,2.64,35.28,,adl
8.270986,1.3159,0.0749,-2.3801,0.6716,-2.2903,0.8847,2.76,2.64,35.28,,adl
8.284739,1.3159,0.0749,-2.3801,0.2482,-2.7473,0.5859,2.76,2.64,35.28,,adl
8.305314,1.3159,0.0749,-2.3801,0.0511,-2.0687,0.383,2.76,2.64,35.28,,adl
8.314206,1.3159,0.0749,-2.3801,0.0511,-2.0687,0.383,3.9,6.96,33.96,,adl
8.326002,1.3159,0.0749,-2.3801,0.1481,-1.282,0.2301,3.9,6.96,33.96,,adl
8.329988,1.3159,0.0749,-2.3801,0.1481,-1.282,0.2301,3.9,6.96,33.96,,adl
8.330908,2.0105,-0.0828,-2.4246,0.1481,-1.282,0.2301,3.9,6.96,33.96,,adl
8.345103,2.0105,-0.0828,-2.4246,0.1736,-0.9998,0.066,3.9,6.96,33.96,,adl
8.370697,2.0105,-0.0828,-2.4246,0.0533,-1.1095,-0.081,3.9,6.96,33.96,,adl
8.376013,2.0105,-0.0828,-2.4246,0.0533,-1.1095,-0.081,6.78,10.68,32.22,,adl
8.3868,2.0105,-0.0828,-2.4246,-0.0623,-1.2075,-0.2407,6.78,10.68,32.22,,adl
8.391642,2.0105,-0.0828,-2.4246,-0.0623,-1.2075,-0.2407,6.78,10.68,32.22,,adl
8.392559,3.427,0.4898,-2.9138,-0.0623,-1.2075,-0.2407,6.78,10.68,32.22,,adl
8.408477,3.427,0.4898,-2.9138,-0.082,-1.0637,-0.4245,6.78,10.68,32.22,,adl
8.428617,3.427,0.4898,-2.9138,-0.1545,-0.7531,-0.5513,6.78,10.68,32.22,,adl
8.438971,3.427,0.4898,-2.9138,-0.1545,-0.7531,-0.5513,10.68,13.86,29.1,,adl
8.450613,3.427,0.4898,-2.9138,-0.49,0.0975,-0.4602,10.68,13.86,29.1,,adl
8.453048,3.427,0.4898,-2.9138,-0.49,0.0975,-0.4602,10.68,13.86,29.1,,adl
8.454031,3.1473,1.3605,-2.7647,-0.49,0.0975,-0.4602,10.68,13.86,29.1,,adl
8.469565,3.1473,1.3605,-2.7647,-0.8725,1.1697,-0.2711,10.68,13.86,29.1,,adl
8.489899,3.1473,1.3605,-2.7647,-1.0195,1.9377,0.1561,10.68,13.86,29.1,,adl
8.498064,3.1473,1.3605,-2.7647,-1.0195,1.9377,0.1561,13.98,15.84,26.64,,adl
8.510558,3.1473,1.3605,-2.7647,-0.5523,1.7678,0.9502,13.98,15.84,26.64,,adl
8.514231,3.1473,1.3605,-2.7647,-0.5523,1.7678,0.9502,13.98,15.84,26.64,,adl
8.515075,-3.2971,-0.7498,5.068,-0.5523,1.7678,0.9502,13.98,15.84,26.64,,adl
8.531641,-3.2971,-0.7498,5.068,0.0554,0.9092,1.191,13.98,15.84,26.64,,adl
8.551417,-3.2971,-0.7498,5.068,0.2434,0.4794,1.1537,13.98,15.84,26.64,,adl
8.561052,-3.2971,-0.7498,5.068,0.2434,0.4794,1.1537,15.3,16.44,25.68,,adl
8.57229,-3.2971,-0.7498,5.068,0.1806,0.3249,1.1031,15.3,16.44,25.68,,adl
8.576699,-3.2971,-0.7498,5.068,0.1806,0.3249,1.1031,15.3,16.44,25.68,,adl
8.577806,-3.2485,-0.4946,1.762,0.1806,0.3249,1.1031,15.3,16.44,25.68,,adl
8.591498,-3.2485,-0.4946,1.762,0.0128,-0.3095,0.8059,15.3,16.44,25.68,,adl
8.613321,-3.2485,-0.4946,1.762,-0.5316,-1.0035,0.3894,15.3,16.44,25.68,,adl
8.622045,-3.2485,-0.4946,1.762,-0.5316,-1.0035,0.3894,15.72,16.2,25.62,,adl
8.63421,-3.2485,-0.4946,1.762,-1.1984,-1.0535,-0.3947,15.72,16.2,25.62,,adl
8.637368,-3.2485,-0.4946,1.762,-1.1984,-1.0535,-0.3947,15.72,16.2,25.62,,adl
8.638366,1.7294,-4.7943,-2.6416,-1.1984,-1.0535,-0.3947,15.72,16.2,25.62,,adl
8.653581,1.7294,-4.7943,-2.6416,-1.4109,-0.8954,-1.0733,15.72,16.2,25.62,,adl
8.674928,1.7294,-4.7943,-2.6416,-0.5428,-0.9529,-0.6727,15.72,16.2,25.62,,adl
8.684848,1.7294,-4.7943,-2.6416,-0.5428,-0.9529,-0.6727,15.3,14.64,27.24,,adl
8.695684,1.7294,-4.7943,-2.6416,0.5316,-0.963,-0.334,15.3,14.64,27.24,,adl
8.700104,1.7294,-4.7943,-2.6416,0.5316,-0.963,-0.334,15.3,14.64,27.24,,adl
8.701764,2.0168,-3.7963,2.5457,0.5316,-0.963,-0.334,15.3,14.64,27.24,,adl
8.715155,2.0168,-3.7963,2.5457,0.2083,-0.4123,-0.1779,15.3,14.64,27.24,,adl
8.736534,2.0168,-3.7963,2.5457,-1.2442,1.8493,-0.1555,15.3,14.64,27.24,,adl
8.745126,2.0168,-3.7963,2.5457,-1.2442,1.8493,-0.1555,15.12,13.44,28.02,,adl
8.756537,2.0168,-3.7963,2.5457,-1.6458,2.2903,-0.3867,15.12,13.44,28.02,,adl
8.760192,2.0168,-3.7963,2.5457,-1.6458,2.2903,-0.3867,15.12,13.44,28.02,,adl
8.761152,3.2334,1.486,-2.9511,-1.6458,2.2903,-0.3867,15.12,13.44,28.02,,adl
8.777751,3.2334,1.486,-2.9511,-0.7739,1.4552,-0.3185,15.12,13.44,28.02,,adl
8.797876,3.2334,1.486,-2.9511,-0.0565,0.6754,-0.0357,15.12,13.44,28.02,,adl
8.806076,3.2334,1.486,-2.9511,-0.0565,0.6754,-0.0357,15.42,12.24,28.08,,adl
8.817451,3.2334,1.486,-2.9511,-0.2482,0.8527,-0.0495,15.42,12.24,28.08,,adl
8.82308,3.2334,1.486,-2.9511,-0.2482,0.8527,-0.0495,15.42,12.24,28.08,,adl
8.824025,0.6175,-1.496,-4.2324,-0.2482,0.8527,-0.0495,15.42,12.24,28.08,,adl
8.838794,0.6175,-1.496,-4.2324,-0.1433,1.1095,0.0352,15.42,12.24,28.08,,adl
8.859383,0.6175,-1.496,-4.2324,0.2248,1.1899,0.221,15.42,12.24,28.08,,adl
8.868222,0.6175,-1.496,-4.2324,0.2248,1.1899,0.221,14.76,10.8,28.38,,adl
8.879697,0.6175,-1.496,-4.2324,0.1635,1.0456,0.1529,14.76,10.8,28.38,,adl
8.883994,0.6175,-1.496,-4.2324,0.1635,1.0456,0.1529,14.76,10.8,28.38,,adl
8.885603,0.0582,-1.0388,-2.0268,0.1635,1.0456,0.1529,14.76,10.8,28.38,,adl
8.90066,0.0582,-1.0388,-2.0268,-0.1603,1.5185,-0.0064,14.76,10.8,28.38,,adl
8.921207,0.0582,-1.0388,-2.0268,-0.408,1.6629,-0.1252,14.76,10.8,28.38,,adl
8.92974,0.0582,-1.0388,-2.0268,-0.408,1.6629,-0.1252,13.56,9.96,29.1,,adl
8.940993,0.0582,-1.0388,-2.0268,-0.5193,1.2048,-0.2258,13.56,9.96,29.1,,adl
8.945992,0.0582,-1.0388,-2.0268,-0.5193,1.2048,-0.2258,13.56,9.96,29.1,,adl
8.946903,0.8927,-0.4533,-0.4584,-0.5193,1.2048,-0.2258,13.56,9.96,29.1,,adl
8.960824,0.8927,-0.4533,-0.4584,-0.5976,1.0892,-0.2983,13.56,9.96,29.1,,adl
8.982756,0.8927,-0.4533,-0.4584,-0.5571,1.1345,-0.3675,13.56,9.96,29.1,,adl
8.99144,0.8927,-0.4533,-0.4584,-0.5571,1.1345,-0.3675,10.44,7.92,31.38,,adl
9.002543,0.8927,-0.4533,-0.4584,-0.3526,1.1814,-0.3654,10.44,7.92,31.38,,adl
9.00628,0.8927,-0.4533,-0.4584,-0.3526,1.1814,-0.3654,10.44,7.92,31.38,,adl
9.007248,-0.1723,0.3918,-0.1747,-0.3526,1.1814,-0.3654,10.44,7.92,31.38,,adl
9.023858,-0.1723,0.3918,-0.1747,-0.147,1.1792,-0.3079,10.44,7.92,31.38,,adl
9.043773,-0.1723,0.3918,-0.1747,-0.0453,1.1324,-0.261,10.44,7.92,31.38,,adl
9.052853,-0.1723,0.3918,-0.1747,-0.0453,1.1324,-0.261,7.26,6.3,33.72,,adl
9.064735,-0.1723,0.3918,-0.1747,-0.0415,1.1862,-0.2296,7.26,6.3,33.72,,adl
9.068724,-0.1723,0.3918,-0.1747,-0.0415,1.1862,-0.2296,7.26,6.3,33.72,,adl
9.070137,-0.8679,0.8106,0.4032,-0.0415,1.1862,-0.2296,7.26,6.3,33.72,,adl
9.084411,-0.8679,0.8106,0.4032,-0.1305,1.2554,-0.2136,7.26,6.3,33.72,,adl
9.10596,-0.8679,0.8106,0.4032,-0.1891,1.0232,-0.2386,7.26,6.3,33.72,,adl
9.114562,-0.8679,0.8106,0.4032,-0.1891,1.0232,-0.2386,4.02,4.68,35.64,,adl
9.125154,-0.8679,0.8106,0.4032,-0.2573,0.5161,-0.2898,4.02,4.68,35.64,,adl
9.129723,-0.8679,0.8106,0.4032,-0.2573,0.5161,-0.2898,4.02,4.68,35.64,,adl
9.130627,-1.0696,0.6751,0.8581,-0.2573,0.5161,-0.2898,4.02,4.68,35.64,,adl
9.146831,-1.0696,0.6751,0.8581,-0.3244,0.0256,-0.3143,4.02,4.68,35.64,,adl
9.167883,-1.0696,0.6751,0.8581,-0.3595,-0.1166,-0.2637,4.02,4.68,35.64,,adl
9.17531,-1.0696,0.6751,0.8581,-0.3595,-0.1166,-0.2637,0.78,2.88,37.2,,adl
9.187933,-1.0696,0.6751,0.8581,-0.384,0.0021,-0.2487,0.78,2.88,37.2,,adl
9.192185,-1.0696,0.6751,0.8581,-0.384,0.0021,-0.2487,0.78,2.88,37.2,,adl
9.193226,-0.9411,-0.0398,0.8167,-0.384,0.0021,-0.2487,0.78,2.88,37.2,,adl
9.207858,-0.9411,-0.0398,0.8167,-0.3941,0.0447,-0.2189,0.78,2.88,37.2,,adl
9.228606,-0.9411,-0.0398,0.8167,-0.3111,-0.2061,-0.2093,0.78,2.88,37.2,,adl
9.237364,-0.9411,-0.0398,0.8167,-0.3111,-0.2061,-0.2093,-1.44,1.74,38.1,,adl
9.250817,-0.9411,-0.0398,0.8167,-0.172,-0.3366,-0.1933,-1.44,1.74,38.1,,adl
9.252489,-0.9411,-0.0398,0.8167,-0.172,-0.3366,-0.1933,-1.44,1.74,38.1,,adl
9.253551,-0.9609,0.6829,0.1628,-0.172,-0.3366,-0.1933,-1.44,1.74,38.1,,adl
9.268234,-0.9609,0.6829,0.1628,-0.0586,-0.1257,-0.1539,-1.44,1.74,38.1,,adl
9.289479,-0.9609,0.6829,0.1628,0.0613,0.3057,-0.1342,-1.44,1.74,38.1,,adl
9.302515,-0.9609,0.6829,0.1628,0.0613,0.3057,-0.1342,-3.3,0.72,39.0,,adl
9.309776,-0.9609,0.6829,0.1628,0.1545,0.595,-0.1065,-3.3,0.72,39.0,,adl
9.314832,-0.9609,0.6829,0.1628,0.1545,0.595,-0.1065,-3.3,0.72,39.0,,adl
9.315779,-0.6391,-0.181,0.9186,0.1545,0.595,-0.1065,-3.3,0.72,39.0,,adl
9.331019,-0.6391,-0.181,0.9186,0.1358,0.9268,-0.0511,-3.3,0.72,39.0,,adl
9.351855,-0.6391,-0.181,0.9186,0.2477,1.1926,-0.0117,-3.3,0.72,39.0,,adl
9.360495,-0.6391,-0.181,0.9186,0.2477,1.1926,-0.0117,-3.78,0.3,39.3,,adl
9.372214,-0.6391,-0.181,0.9186,0.604,1.2027,0.0138,-3.78,0.3,39.3,,adl
9.376515,-0.6391,-0.181,0.9186,0.604,1.2027,0.0138,-3.78,0.3,39.3,,adl
9.377668,-2.2724,-1.2421,2.3184,0.604,1.2027,0.0138,-3.78,0.3,39.3,,adl
9.392607,-2.2724,-1.2421,2.3184,1.0823,0.9055,0.0676,-3.78,0.3,39.3,,adl
9.413313,-2.2724,-1.2421,2.3184,1.4514,0.6296,0.1678,-3.78,0.3,39.3,,adl
9.422048,-2.2724,-1.2421,2.3184,1.4514,0.6296,0.1678,-4.26,0.18,39.24,,adl
9.434254,-2.2724,-1.2421,2.3184,1.5915,0.5934,0.3899,-4.26,0.18,39.24,,adl
9.437807,-2.2724,-1.2421,2.3184,1.5915,0.5934,0.3899,-4.26,0.18,39.24,,adl
9.438803,-1.393,-0.2545,2.0076,1.5915,0.5934,0.3899,-4.26,0.18,39.24,,adl
9.454291,-1.393,-0.2545,2.0076,1.869,0.5497,0.5214,-4.26,0.18,39.24,,adl
9.474092,-1.393,-0.2545,2.0076,2.4554,0.4511,0.5188,-4.26,0.18,39.24,,adl
9.484796,-1.393,-0.2545,2.0076,2.4554,0.4511,0.5188,-5.34,0.78,39.78,,adl
9.495179,-1.393,-0.2545,2.0076,2.8421,-0.1321,0.4224,-5.34,0.78,39.78,,adl
9.500533,-1.393,-0.2545,2.0076,2.8421,-0.1321,0.4224,-5.34,0.78,39.78,,adl
9.501934,2.1999,-0.2669,1.5572,2.8421,-0.1321,0.4224,-5.34,0.78,39.78,,adl
9.5173,2.1999,-0.2669,1.5572,2.5135,-0.6099,0.4016,-5.34,0.78,39.78,,adl
9.53613,2.1999,-0.2669,1.5572,1.8296,-0.9065,0.4485,-5.34,0.78,39.78,,adl
9.545102,2.1999,-0.2669,1.5572,1.8296,-0.9065,0.4485,-5.76,3.0,39.06,,adl
9.555914,2.1999,-0.2669,1.5572,1.0386,-1.4695,0.6115,-5.76,3.0,39.06,,adl
9.559935,2.1999,-0.2669,1.5572,1.0386,-1.4695,0.6115,-5.76,3.0,39.06,,adl
9.560744,-1.7609,-3.5815,-3.3529,1.0386,-1.4695,0.6115,-5.76,3.0,39.06,,adl
9.57622,-1.7609,-3.5815,-3.3529,0.8341,-1.5068,0.7979,-5.76,3.0,39.06,,adl
9.598987,-1.7609,-3.5815,-3.3529,0.9428,-0.7121,0.8506,-5.76,3.0,39.06,,adl
9.606361,-1.7609,-3.5815,-3.3529,0.9428,-0.7121,0.8506,-6.3,7.14,37.62,,adl
9.617415,-1.7609,-3.5815,-3.3529,0.7947,-0.6876,0.7659,-6.3,7.14,37.62,,adl
9.622137,-1.7609,-3.5815,-3.3529,0.7947,-0.6876,0.7659,-6.3,7.14,37.62,,adl
9.623032,0.1665,-0.4373,-1.6963,0.7947,-0.6876,0.7659,-6.3,7.14,37.62,,adl
9.638865,0.1665,-0.4373,-1.6963,0.6168,-1.6576,0.5726,-6.3,7.14,37.62,,adl
9.659183,0.1665,-0.4373,-1.6963,0.49,-2.0512,0.383,-6.3,7.14,37.62,,adl
9.668873,0.1665,-0.4373,-1.6963,0.49,-2.0512,0.383,-5.58,12.06,35.7,,adl
9.679704,0.1665,-0.4373,-1.6963,0.4618,-1.5452,0.2019,-5.58,12.06,35.7,,adl
9.683446,0.1665,-0.4373,-1.6963,0.4618,-1.5452,0.2019,-5.58,12.06,35.7,,adl
9.684686,1.6549,0.5781,-2.142,0.4618,-1.5452,0.2019,-5.58,12.06,35.7,,adl
9.699992,1.6549,0.5781,-2.142,0.4884,-0.9998,-0.0581,-5.58,12.06,35.7,,adl
9.720421,1.6549,0.5781,-2.142,0.3505,-0.7436,-0.3036,-5.58,12.06,35.7,,adl
9.729615,1.6549,0.5781,-2.142,0.3505,-0.7436,-0.3036,-2.82,16.5,32.58,,adl
9.741414,1.6549,0.5781,-2.142,0.0767,-0.6786,-0.4703,-2.82,16.5,32.58,,adl
9.745373,1.6549,0.5781,-2.142,0.0767,-0.6786,-0.4703,-2.82,16.5,32.58,,adl
9.746388,2.9829,0.0959,-2.0105,0.0767,-0.6786,-0.4703,-2.82,16.5,32.58,,adl
9.761713,2.9829,0.0959,-2.0105,-0.1364,-0.4964,-0.5534,-2.82,16.5,32.58,,adl
9.782426,2.9829,0.0959,-2.0105,-0.261,-0.1603,-0.6301,-2.82,16.5,32.58,,adl
9.791151,2.9829,0.0959,-2.0105,-0.261,-0.1603,-0.6301,-0.3,20.22,30.48,,adl
9.803253,2.9829,0.0959,-2.0105,-0.3515,0.0932,-0.6413,-0.3,20.22,30.48,,adl
9.807623,2.9829,0.0959,-2.0105,-0.3515,0.0932,-0.6413,-0.3,20.22,30.48,,adl
9.808578,3.1189,1.2457,-2.5825,-0.3515,0.0932,-0.6413,-0.3,20.22,30.48,,adl
9.823051,3.1189,1.2457,-2.5825,-0.4533,0.3494,-0.5454,-0.3,20.22,30.48,,adl
9.843845,3.1189,1.2457,-2.5825,-0.5087,0.9465,-0.3489,-0.3,20.22,30.48,,adl
9.852292,3.1189,1.2457,-2.5825,-0.5087,0.9465,-0.3489,2.82,22.56,28.32,,adl
9.862909,3.1189,1.2457,-2.5825,-0.6461,2.0538,-0.1033,2.82,22.56,28.32,,adl
9.869154,3.1189,1.2457,-2.5825,-0.6461,2.0538,-0.1033,2.82,22.56,28.32,,adl
9.870566,-1.1358,0.9104,-0.2212,-0.6461,2.0538,-0.1033,2.82,22.56,28.32,,adl
9.885485,-1.1358,0.9104,-0.2212,-0.6083,2.9119,0.5188,2.82,22.56,28.32,,adl
9.905965,-1.1358,0.9104,-0.2212,-0.1726,2.5945,1.2767,2.82,22.56,28.32,,adl
9.914554,-1.1358,0.9104,-0.2212,-0.1726,2.5945,1.2767,4.26,23.7,27.18,,adl
9.926027,-1.1358,0.9104,-0.2212,0.3329,1.4711,1.6959,4.26,23.7,27.18,,adl
9.929375,-1.1358,0.9104,-0.2212,0.3329,1.4711,1.6959,4.26,23.7,27.18,,adl
9.930193,-5.5935,-0.8906,5.1699,0.3329,1.4711,1.6959,4.26,23.7,27.18,,adl
9.946719,-5.5935,-0.8906,5.1699,0.7111,0.6732,1.5366,4.26,23.7,27.18,,adl
9.966953,-5.5935,-0.8906,5.1699,0.8533,-0.5428,0.8794,4.26,23.7,27.18,,adl
9.976063,-5.5935,-0.8906,5.1699,0.8533,-0.5428,0.8794,3.06,23.64,27.72,,adl
9.988734,-5.5935,-0.8906,5.1699,0.2072,-1.3918,0.0842,3.06,23.64,27.72,,adl
9.990765,-5.5935,-0.8906,5.1699,0.2072,-1.3918,0.0842,3.06,23.64,27.72,,adl
9.991575,2.3979,1.7236,0.7397,0.2072,-1.3918,0.0842,3.06,23.64,27.72,,adl
10.008363,2.3979,1.7236,0.7397,-0.767,-1.0844,-0.4373,3.06,23.64,27.72,,adl
10.028996,2.3979,1.7236,0.7397,-1.4504,-0.2876,-0.9939,3.06,23.64,27.72,,adl
10.037446,2.3979,1.7236,0.7397,-1.4504,-0.2876,-0.9939,2.46,23.58,27.96,,adl
10.050662,2.3979,1.7236,0.7397,-1.861,0.7659,-1.992,2.46,23.58,27.96,,adl
10.053728,2.3979,1.7236,0.7397,-1.861,0.7659,-1.992,2.46,23.58,27.96,,adl
10.054679,2.9174,-4.4125,-3.0301,-1.861,0.7659,-1.992,2.46,23.58,27.96,,adl
10.069985,2.9174,-4.4125,-3.0301,-1.8046,1.0525,-2.4182,2.46,23.58,27.96,,adl
10.089796,2.9174,-4.4125,-3.0301,-1.1761,0.3116,-1.9159,2.46,23.58,27.96,,adl
10.100636,2.9174,-4.4125,-3.0301,-1.1761,0.3116,-1.9159,0.3,22.5,29.52,,adl
10.110639,2.9174,-4.4125,-3.0301,-0.2482,-0.3494,-0.6328,0.3,22.5,29.52,,adl
10.114393,2.9174,-4.4125,-3.0301,-0.2482,-0.3494,-0.6328,0.3,22.5,29.52,,adl
10.115309,-2.4434,-3.8366,1.1308,-0.2482,-0.3494,-0.6328,0.3,22.5,29.52,,adl
10.131719,-2.4434,-3.8366,1.1308,0.8783,0.0341,0.7723,0.3,22.5,29.52,,adl
10.150982,-2.4434,-3.8366,1.1308,1.3103,2.0315,1.0786,0.3,22.5,29.52,,adl
10.159474,-2.4434,-3.8366,1.1308,1.3103,2.0315,1.0786,-1.38,21.3,30.72,,adl
10.172511,-2.4434,-3.8366,1.1308,0.1928,4.1444,0.5481,-1.38,21.3,30.72,,adl
10.176741,-2.4434,-3.8366,1.1308,0.1928,4.1444,0.5481,-1.38,21.3,30.72,,adl
10.177795,2.406,1.257,-3.9642,0.1928,4.1444,0.5481,-1.38,21.3,30.72,,adl
10.19207,2.406,1.257,-3.9642,-0.8842,3.3758,0.025,-1.38,21.3,30.72,,adl
10.213553,2.406,1.257,-3.9642,-1.0551,1.5079,-0.2024,-1.38,21.3,30.72,,adl
10.222298,2.406,1.257,-3.9642,-1.0551,1.5079,-0.2024,-2.22,21.0,31.62,,adl
10.234015,2.406,1.257,-3.9642,-0.7313,-0.5406,-0.2594,-2.22,21.0,31.62,,adl
10.236653,2.406,1.257,-3.9642,-0.7313,-0.5406,-0.2594,-2.22,21.0,31.62,,adl
10.237762,1.6737,-1.577,-2.1554,-0.7313,-0.5406,-0.2594,-2.22,21.0,31.62,,adl
10.254525,1.6737,-1.577,-2.1554,-0.718,-0.6434,-0.4602,-2.22,21.0,31.62,,adl
10.275101,1.6737,-1.577,-2.1554,-0.3153,-0.0218,-0.3851,-2.22,21.0,31.62,,adl
10.283372,1.6737,-1.577,-2.1554,-0.3153,-0.0218,-0.3851,-5.4,18.84,32.88,,adl
10.296504,1.6737,-1.577,-2.1554,0.4101,0.7153,0.0293,-5.4,18.84,32.88,,adl
10.301818,1.6737,-1.577,-2.1554,0.4101,0.7153,0.0293,-5.4,18.84,32.88,,adl
10.303178,-0.9657,-0.1559,-0.7471,0.4101,0.7153,0.0293,-5.4,18.84,32.88,,adl
10.317228,-0.9657,-0.1559,-0.7471,0.6695,1.5058,0.3148,-5.4,18.84,32.88,,adl
10.336654,-0.9657,-0.1559,-0.7471,0.4975,2.0986,0.3617,-5.4,18.84,32.88,,adl
10.345564,-0.9657,-0.1559,-0.7471,0.4975,2.0986,0.3617,-7.68,16.8,34.08,,adl
10.357007,-0.9657,-0.1559,-0.7471,0.2312,2.2823,0.3265,-7.68,16.8,34.08,,adl
10.361088,-0.9657,-0.1559,-0.7471,0.2312,2.2823,0.3265,-7.68,16.8,34.08,,adl
10.36194,0.7657,0.6777,-1.977,0.2312,2.2823,0.3265,-7.68,16.8,34.08,,adl
10.377769,0.7657,0.6777,-1.977,0.1646,2.2498,0.3329,-7.68,16.8,34.08,,adl
10.397902,0.7657,0.6777,-1.977,0.8048,2.097,0.3787,-7.68,16.8,34.08,,adl
10.40609,0.7657,0.6777,-1.977,0.8048,2.097,0.3787,-10.5,15.36,35.22,,adl
10.418405,0.7657,0.6777,-1.977,1.3944,1.7833,0.2328,-10.5,15.36,35.22,,adl
10.423436,0.7657,0.6777,-1.977,1.3944,1.7833,0.2328,-10.5,15.36,35.22,,adl
10.42447,0.7468,-0.5715,0.3598,1.3944,1.7833,0.2328,-10.5,15.36,35.22,,adl
10.439446,0.7468,-0.5715,0.3598,1.2219,1.5271,0.008,-10.5,15.36,35.22,,adl
10.459079,0.7468,-0.5715,0.3598,0.6312,1.4083,-0.1827,-10.5,15.36,35.22,,adl
10.467131,0.7468,-0.5715,0.3598,0.6312,1.4083,-0.1827,-13.98,14.22,34.98,,adl
10.479799,0.7468,-0.5715,0.3598,0.0644,1.4402,-0.1886,-13.98,14.22,34.98,,adl
10.483575,0.7468,-0.5715,0.3598,0.0644,1.4402,-0.1886,-13.98,14.22,34.98,,adl
10.485084,-0.7514,0.4396,-0.3454,0.0644,1.4402,-0.1886,-13.98,14.22,34.98,,adl
10.500109,-0.7514,0.4396,-0.3454,0.0128,1.3896,-0.0948,-13.98,14.22,34.98,,adl
10.52163,-0.7514,0.4396,-0.3454,0.1901,1.2139,-0.0463,-13.98,14.22,34.98,,adl
10.529976,-0.7514,0.4396,-0.3454,0.1901,1.2139,-0.0463,-16.32,14.4,33.84,,adl
10.541959,-0.7514,0.4396,-0.3454,0.335,0.9923,-0.1204,-16.32,14.4,33.84,,adl
10.54591,-0.7514,0.4396,-0.3454,0.335,0.9923,-0.1204,-16.32,14.4,33.84,,adl
10.546744,-1.0422,0.565,-0.2402,0.335,0.9923,-0.1204,-16.32,14.4,33.84,,adl
10.561532,-1.0422,0.565,-0.2402,0.3894,0.8927,-0.1646,-16.32,14.4,33.84,,adl
10.582995,-1.0422,0.565,-0.2402,0.2967,0.8517,-0.0858,-16.32,14.4,33.84,,adl
10.591572,-1.0422,0.565,-0.2402,0.2967,0.8517,-0.0858,-19.98,14.7,32.46,,adl
10.6036,-1.0422,0.565,-0.2402,0.1113,0.8767,-0.0495,-19.98,14.7,32.46,,adl
10.607896,-1.0422,0.565,-0.2402,0.1113,0.8767,-0.0495,-19.98,14.7,32.46,,adl
10.608817,-0.2986,0.0364,0.3786,0.1113,0.8767,-0.0495,-19.98,14.7,32.46,,adl
10.62402,-0.2986,0.0364,0.3786,0.041,0.677,-0.114,-19.98,14.7,32.46,,adl
10.644001,-0.2986,0.0364,0.3786,0.1204,0.4682,-0.1305,-19.98,14.7,32.46,,adl
10.653467,-0.2986,0.0364,0.3786,0.1204,0.4682,-0.1305,-22.68,15.24,30.66,,adl
10.664612,-0.2986,0.0364,0.3786,0.2083,0.44,-0.1236,-22.68,15.24,30.66,,adl
10.668498,-0.2986,0.0364,0.3786,0.2083,0.44,-0.1236,-22.68,15.24,30.66,,adl
10.669901,-0.3877,0.01,-0.3148,0.2083,0.44,-0.1236,-22.68,15.24,30.66,,adl
10.684626,-0.3877,0.01,-0.3148,0.261,0.6195,-0.1049,-22.68,15.24,30.66,,adl
10.706276,-0.3877,0.01,-0.3148,0.3031,0.8954,-0.0889,-22.68,15.24,30.66,,adl
10.714171,-0.3877,0.01,-0.3148,0.3031,0.8954,-0.0889,-24.72,15.3,29.7,,adl
10.725643,-0.3877,0.01,-0.3148,0.3989,1.1201,-0.139,-24.72,15.3,29.7,,adl
10.729757,-0.3877,0.01,-0.3148,0.3989,1.1201,-0.139,-24.72,15.3,29.7,,adl
10.730658,0.172,-0.0903,0.2788,0.3989,1.1201,-0.139,-24.72,15.3,29.7,,adl
10.746331,0.172,-0.0903,0.2788,0.5049,1.159,-0.2216,-24.72,15.3,29.7,,adl
10.767547,0.172,-0.0903,0.2788,0.5396,1.0749,-0.3031,-24.72,15.3,29.7,,adl
10.7766,0.172,-0.0903,0.2788,0.5396,1.0749,-0.3031,-26.46,14.94,28.98,,adl
10.788218,0.172,-0.0903,0.2788,0.5481,1.086,-0.351,-26.46,14.94,28.98,,adl
10.791987,0.172,-0.0903,0.2788,0.5481,1.086,-0.351,-26.46,14.94,28.98,,adl
10.793019,0.0227,-0.2806,0.057,0.5481,1.086,-0.351,-26.46,14.94,28.98,,adl
10.807675,0.0227,-0.2806,0.057,0.5768,1.1473,-0.3563,-26.46,14.94,28.98,,adl
10.829203,0.0227,-0.2806,0.057,0.6466,1.1207,-0.3372,-26.46,14.94,28.98,,adl
10.837798,0.0227,-0.2806,0.057,0.6466,1.1207,-0.3372,-28.14,15.36,27.36,,adl
10.85097,0.0227,-0.2806,0.057,0.6796,1.1814,-0.2679,-28.14,15.36,27.36,,adl
10.852562,0.0227,-0.2806,0.057,0.6796,1.1814,-0.2679,-28.14,15.36,27.36,,adl
10.853576,-1.2373,-1.2176,-1.2056,0.6796,1.1814,-0.2679,-28.14,15.36,27.36,,adl
10.870177,-1.2373,-1.2176,-1.2056,0.6621,1.412,-0.1337,-28.14,15.36,27.36,,adl
10.889731,-1.2373,-1.2176,-1.2056,0.898,1.6639,-0.1369,-28.14,15.36,27.36,,adl
10.901512,-1.2373,-1.2176,-1.2056,0.898,1.6639,-0.1369,-29.82,15.18,25.92,,adl
10.91144,-1.2373,-1.2176,-1.2056,1.2368,1.6687,0.0272,-29.82,15.18,25.92,,adl
10.914762,-1.2373,-1.2176,-1.2056,1.2368,1.6687,0.0272,-29.82,15.18,25.92,,adl
10.915797,-1.0501,-0.2748,-0.2369,1.2368,1.6687,0.0272,-29.82,15.18,25.92,,adl
10.931953,-1.0501,-0.2748,-0.2369,1.5042,1.6943,0.1502,-29.82,15.18,25.92,,adl
10.951722,-1.0501,-0.2748,-0.2369,1.7486,1.8584,0.1571,-29.82,15.18,25.92,,adl
10.960806,-1.0501,-0.2748,-0.2369,1.7486,1.8584,0.1571,-31.56,15.24,22.98,,adl
10.972389,-1.0501,-0.2748,-0.2369,1.9249,2.0762,0.1523,-31.56,15.24,22.98,,adl
10.976316,-1.0501,-0.2748,-0.2369,1.9249,2.0762,0.1523,-31.56,15.24,22.98,,adl
10.977518,1.5917,0.0015,-0.4726,1.9249,2.0762,0.1523,-31.56,15.24,22.98,,adl
10.993345,1.5917,0.0015,-0.4726,2.0299,2.204,0.1268,-31.56,15.24,22.98,,adl
11.013711,1.5917,0.0015,-0.4726,2.1465,2.0922,0.0293,-31.56,15.24,22.98,,adl
11.021727,1.5917,0.0015,-0.4726,2.1465,2.0922,0.0293,-32.82,16.08,19.74,,adl
11.033246,1.5917,0.0015,-0.4726,2.3393,1.5553,-0.1571,-32.82,16.08,19.74,,adl
11.038376,1.5917,0.0015,-0.4726,2.3393,1.5553,-0.1571,-32.82,16.08,19.74,,adl
11.039326,3.1927,-1.4979,0.6394,2.3393,1.5553,-0.1571,-32.82,16.08,19.74,,adl
11.053363,3.1927,-1.4979,0.6394,2.343,1.0168,-0.3617,-32.82,16.08,19.74,,adl
11.075403,3.1927,-1.4979,0.6394,2.0932,0.7505,-0.5071,-32.82,16.08,19.74,,adl
11.084254,3.1927,-1.4979,0.6394,2.0932,0.7505,-0.5071,-33.9,16.8,14.88,,adl
11.094552,3.1927,-1.4979,0.6394,1.9468,0.8256,-0.6674,-33.9,16.8,14.88,,adl
11.100236,3.1927,-1.4979,0.6394,1.9468,0.8256,-0.6674,-33.9,16.8,14.88,,adl
11.101702,1.8811,-2.8352,-2.1479,1.9468,0.8256,-0.6674,-33.9,16.8,14.88,,adl
11.117852,1.8811,-2.8352,-2.1479,1.8594,0.9795,-0.7665,-33.9,16.8,14.88,,adl
11.137999,1.8811,-2.8352,-2.1479,1.7651,0.9816,-0.8906,-33.9,16.8,14.88,,adl
11.14547,1.8811,-2.8352,-2.1479,1.7651,0.9816,-0.8906,-34.86,18.06,8.76,,adl
11.157245,1.8811,-2.8352,-2.1479,1.6208,0.8586,-1.0855,-34.86,18.06,8.76,,adl
11.161089,1.8811,-2.8352,-2.1479,1.6208,0.8586,-1.0855,-34.86,18.06,8.76,,adl
11.162016,1.9751,-0.8125,-3.0581,1.6208,0.8586,-1.0855,-34.86,18.06,8.76,,adl
11.177229,1.9751,-0.8125,-3.0581,1.4232,1.0413,-1.2464,-34.86,18.06,8.76,,adl
11.197948,1.9751,-0.8125,-3.0581,1.2474,1.4594,-1.3406,-34.86,18.06,8.76,,adl
11.206863,1.9751,-0.8125,-3.0581,1.2474,1.4594,-1.3406,-35.46,19.56,3.0,,adl
11.218495,1.9751,-0.8125,-3.0581,1.0445,1.8413,-1.4083,-35.46,19.56,3.0,,adl
11.222337,1.9751,-0.8125,-3.0581,1.0445,1.8413,-1.4083,-35.46,19.56,3.0,,adl
11.223304,1.6809,-0.2716,-2.698,1.0445,1.8413,-1.4083,-35.46,19.56,3.0,,adl
11.239811,1.6809,-0.2716,-2.698,0.8671,1.9968,-1.3625,-35.46,19.56,3.0,,adl
11.260065,1.6809,-0.2716,-2.698,0.8021,2.1534,-1.2149,-35.46,19.56,3.0,,adl
11.268171,1.6809,-0.2716,-2.698,0.8021,2.1534,-1.2149,-36.42,19.26,-2.58,,adl
11.28076,1.6809,-0.2716,-2.698,0.7627,2.4134,-1.0658,-36.42,19.26,-2.58,,adl
11.28547,1.6809,-0.2716,-2.698,0.7627,2.4134,-1.0658,-36.42,19.26,-2.58,,adl
11.28686,0.4386,0.6282,-2.6706,0.7627,2.4134,-1.0658,-36.42,19.26,-2.58,,adl
11.300738,0.4386,0.6282,-2.6706,0.6908,2.7846,-0.9113,-36.42,19.26,-2.58,,adl
11.321171,0.4386,0.6282,-2.6706,0.587,3.1958,-0.7137,-36.42,19.26,-2.58,,adl
11.330613,0.4386,0.6282,-2.6706,0.587,3.1958,-0.7137,-36.72,17.46,-7.56,,adl
11.340724,0.4386,0.6282,-2.6706,0.5023,3.4078,-0.5135,-36.72,17.46,-7.56,,adl
11.345651,0.4386,0.6282,-2.6706,0.5023,3.4078,-0.5135,-36.72,17.46,-7.56,,adl
11.34654,-2.0137,0.0155,-2.2434,0.5023,3.4078,-0.5135,-36.72,17.46,-7.56,,adl
11.362132,-2.0137,0.0155,-2.2434,0.4645,3.4877,-0.2631,-36.72,17.46,-7.56,,adl
11.38382,-2.0137,0.0155,-2.2434,0.5507,3.6219,-0.0085,-36.72,17.46,-7.56,,adl
11.391587,-2.0137,0.0155,-2.2434,0.5507,3.6219,-0.0085,-36.54,15.36,-12.48,,adl
11.403425,-2.0137,0.0155,-2.2434,0.7127,3.8057,0.0847,-36.54,15.36,-12.48,,adl
11.41093,-2.0137,0.0155,-2.2434,0.7127,3.8057,0.0847,-36.54,15.36,-12.48,,adl
11.411924,-4.3844,1.3766,-0.1256,0.7127,3.8057,0.0847,-36.54,15.36,-12.48,,adl
11.423496,-4.3844,1.3766,-0.1256,0.9028,4.2605,0.032,-36.54,15.36,-12.48,,adl
11.444173,-4.3844,1.3766,-0.1256,0.9625,5.1234,-0.0959,-36.54,15.36,-12.48,,adl
11.453079,-4.3844,1.3766,-0.1256,0.9625,5.1234,-0.0959,-34.26,12.9,-17.64,,adl
11.464619,-4.3844,1.3766,-0.1256,0.9236,3.8632,-0.0208,-34.26,12.9,-17.64,,adl
11.468685,-4.3844,1.3766,-0.1256,0.9236,3.8632,-0.0208,-34.26,12.9,-17.64,,adl
11.470204,-4.7625,1.1226,5.9233,0.9236,3.8632,-0.0208,-34.26,12.9,-17.64,,adl
11.485494,-4.7625,1.1226,5.9233,0.0847,1.5894,0.1055,-34.26,12.9,-17.64,,adl
11.505829,-4.7625,1.1226,5.9233,-0.7755,-0.3089,0.1726,-34.26,12.9,-17.64,,adl
11.514777,-4.7625,1.1226,5.9233,-0.7755,-0.3089,0.1726,-29.46,11.46,-24.36,,adl
11.52537,-4.7625,1.1226,5.9233,-1.3811,-1.1505,0.0144,-29.46,11.46,-24.36,,adl
11.529872,-4.7625,1.1226,5.9233,-1.3811,-1.1505,0.0144,-29.46,11.46,-24.36,,adl
11.530772,1.3756,0.1406,-0.0998,-1.3811,-1.1505,0.0144,-29.46,11.46,-24.36,,adl
11.546887,1.3756,0.1406,-0.0998,-1.4173,-1.4338,-0.2567,-29.46,11.46,-24.36,,adl
11.567322,1.3756,0.1406,-0.0998,-0.9939,-1.4988,-0.3984,-29.46,11.46,-24.36,,adl
11.576017,1.3756,0.1406,-0.0998,-0.9939,-1.4988,-0.3984,-24.12,11.04,-29.76,,adl
11.587709,1.3756,0.1406,-0.0998,-0.3254,-1.1217,-0.3377,-24.12,11.04,-29.76,,adl
11.591916,1.3756,0.1406,-0.0998,-0.3254,-1.1217,-0.3377,-24.12,11.04,-29.76,,adl
11.592993,1.4358,-0.5105,1.2423,-0.3254,-1.1217,-0.3377,-24.12,11.04,-29.76,,adl
11.609147,1.4358,-0.5105,1.2423,0.0362,0.1001,-0.1055,-24.12,11.04,-29.76,,adl
11.628759,1.4358,-0.5105,1.2423,0.2088,0.9603,0.0927,-24.12,11.04,-29.76,,adl
11.63776,1.4358,-0.5105,1.2423,0.2088,0.9603,0.0927,-19.8,11.64,-33.3,,adl
11.650965,1.4358,-0.5105,1.2423,0.2796,1.1185,0.1832,-19.8,11.64,-33.3,,adl
11.652963,1.4358,-0.5105,1.2423,0.2796,1.1185,0.1832,-19.8,11.64,-33.3,,adl
11.653807,1.5435,-1.058,1.1176,0.2796,1.1185,0.1832,-19.8,11.64,-33.3,,adl
11.669065,1.5435,-1.058,1.1176,0.1209,1.3108,0.1827,-19.8,11.64,-33.3,,adl
11.690637,1.5435,-1.058,1.1176,0.0144,1.1963,0.114,-19.8,11.64,-33.3,,adl
11.700589,1.5435,-1.058,1.1176,0.0144,1.1963,0.114,-17.52,12.42,-35.82,,adl
11.711195,1.5435,-1.058,1.1176,0.0138,0.9529,0.0389,-17.52,12.42,-35.82,,adl
11.715466,1.5435,-1.058,1.1176,0.0138,0.9529,0.0389,-17.52,12.42,-35.82,,adl
11.716509,1.1385,-0.1946,-0.8727,0.0138,0.9529,0.0389,-17.52,12.42,-35.82,,adl
11.731467,1.1385,-0.1946,-0.8727,0.1571,0.833,-0.0602,-17.52,12.42,-35.82,,adl
11.751653,1.1385,-0.1946,-0.8727,0.2471,0.7702,-0.0394,-17.52,12.42,-35.82,,adl
11.76137,1.1385,-0.1946,-0.8727,0.2471,0.7702,-0.0394,-16.56,13.68,-36.66,,adl
11.772713,1.1385,-0.1946,-0.8727,0.2077,0.9561,0.041,-16.56,13.68,-36.66,,adl
11.776598,1.1385,-0.1946,-0.8727,0.2077,0.9561,0.041,-16.56,13.68,-36.66,,adl
11.77784,-0.3779,-0.0669,-0.5207,0.2077,0.9561,0.041,-16.56,13.68,-36.66,,adl
11.79296,-0.3779,-0.0669,-0.5207,0.1742,1.3076,0.033,-16.56,13.68,-36.66,,adl
11.813968,-0.3779,-0.0669,-0.5207,0.2519,1.3209,0.0479,-16.56,13.68,-36.66,,adl
11.822492,-0.3779,-0.0669,-0.5207,0.2519,1.3209,0.0479,-16.08,15.18,-36.78,,adl
11.834748,-0.3779,-0.0669,-0.5207,0.3776,1.2267,0.0863,-16.08,15.18,-36.78,,adl
11.837448,-0.3779,-0.0669,-0.5207,0.3776,1.2267,0.0863,-16.08,15.18,-36.78,,adl
11.838333,-1.4519,0.825,-1.1464,0.3776,1.2267,0.0863,-16.08,15.18,-36.78,,adl
11.854755,-1.4519,0.825,-1.1464,0.4314,1.2693,0.0927,-16.08,15.18,-36.78,,adl
11.874415,-1.4519,0.825,-1.1464,0.449,1.575,0.0858,-16.08,15.18,-36.78,,adl
11.884021,-1.4519,0.825,-1.1464,0.449,1.575,0.0858,-13.98,15.66,-38.1,,adl
11.89606,-1.4519,0.825,-1.1464,0.4384,1.7193,0.1204,-13.98,15.66,-38.1,,adl
11.90059,-1.4519,0.825,-1.1464,0.4384,1.7193,0.1204,-13.98,15.66,-38.1,,adl
11.902053,-2.0658,0.5156,-0.7536,0.4384,1.7193,0.1204,-13.98,15.66,-38.1,,adl
11.918081,-2.0658,0.5156,-0.7536,0.4778,1.6437,0.1401,-13.98,15.66,-38.1,,adl
11.936827,-2.0658,0.5156,-0.7536,0.612,1.5505,0.155,-13.98,15.66,-38.1,,adl
11.945515,-2.0658,0.5156,-0.7536,0.612,1.5505,0.155,-11.22,16.26,-39.12,,adl
11.956396,-2.0658,0.5156,-0.7536,0.7313,1.5963,0.1662,-11.22,16.26,-39.12,,adl
11.959271,-2.0658,0.5156,-0.7536,0.7313,1.5963,0.1662,-11.22,16.26,-39.12,,adl
11.959467,-1.5273,0.4005,0.5089,0.7313,1.5963,0.1662,-11.22,16.26,-39.12,,adl
11.977429,-1.5273,0.4005,0.5089,0.7872,1.6112,0.1257,-11.22,16.26,-39.12,,adl
11.998427,-1.5273,0.4005,0.5089,0.7526,1.4674,0.074,-11.22,16.26,-39.12,,adl
12.006703,-1.5273,0.4005,0.5089,0.7526,1.4674,0.074,-7.92,16.2,-40.32,,adl
12.01896,-1.5273,0.4005,0.5089,0.694,1.143,0.0352,-7.92,16.2,-40.32,,adl
12.02306,-1.5273,0.4005,0.5089,0.694,1.143,0.0352,-7.92,16.2,-40.32,,adl
12.023937,-1.1127,0.423,0.1519,0.694,1.143,0.0352,-7.92,16.2,-40.32,,adl
12.039128,-1.1127,0.423,0.1519,0.5981,0.8932,0.0053,-7.92,16.2,-40.32,,adl
12.059523,-1.1127,0.423,0.1519,0.5017,0.8298,-0.049,-7.92,16.2,-40.32,,adl
12.068525,-1.1127,0.423,0.1519,0.5017,0.8298,-0.049,-4.38,15.3,-41.88,,adl
12.08023,-1.1127,0.423,0.1519,0.433,0.8234,-0.0405,-4.38,15.3,-41.88,,adl
12.085153,-1.1127,0.423,0.1519,0.433,0.8234,-0.0405,-4.38,15.3,-41.88,,adl
12.086587,-0.9154,0.1491,0.0398,0.433,0.8234,-0.0405,-4.38,15.3,-41.88,,adl
12.100686,-0.9154,0.1491,0.0398,0.3803,0.8522,-0.0032,-4.38,15.3,-41.88,,adl
12.121507,-0.9154,0.1491,0.0398,0.2519,0.8165,-0.0133,-4.38,15.3,-41.88,,adl
12.130335,-0.9154,0.1491,0.0398,0.2519,0.8165,-0.0133,-1.14,14.58,-42.72,,adl
12.141703,-0.9154,0.1491,0.0398,0.1427,0.7659,-0.0399,-1.14,14.58,-42.72,,adl
12.145533,-0.9154,0.1491,0.0398,0.1427,0.7659,-0.0399,-1.14,14.58,-42.72,,adl
12.146475,-0.9558,0.3936,1.1369,0.1427,0.7659,-0.0399,-1.14,14.58,-42.72,,adl
12.162303,-0.9558,0.3936,1.1369,0.2157,0.7473,-0.0314,-1.14,14.58,-42.72,,adl
12.183529,-0.9558,0.3936,1.1369,0.3201,0.6679,-0.0325,-1.14,14.58,-42.72,,adl
12.192098,-0.9558,0.3936,1.1369,0.3201,0.6679,-0.0325,1.86,13.5,-43.44,,adl
12.203613,-0.9558,0.3936,1.1369,0.3009,0.5406,0.0027,1.86,13.5,-43.44,,adl
12.207498,-0.9558,0.3936,1.1369,0.3009,0.5406,0.0027,1.86,13.5,-43.44,,adl
12.208505,0.0145,0.0493,-0.4626,0.3009,0.5406,0.0027,1.86,13.5,-43.44,,adl
12.224134,0.0145,0.0493,-0.4626,0.1912,0.5412,0.0037,1.86,13.5,-43.44,,adl
12.243592,0.0145,0.0493,-0.4626,0.1076,0.432,0.0091,1.86,13.5,-43.44,,adl
12.25235,0.0145,0.0493,-0.4626,0.1076,0.432,0.0091,4.14,13.02,-43.68,,adl
12.266053,0.0145,0.0493,-0.4626,0.0767,0.3196,0.0101,4.14,13.02,-43.68,,adl
12.267767,0.0145,0.0493,-0.4626,0.0767,0.3196,0.0101,4.14,13.02,-43.68,,adl
12.268589,0.1605,0.5925,-0.0405,0.0767,0.3196,0.0101,4.14,13.02,-43.68,,adl
12.285415,0.1605,0.5925,-0.0405,0.0676,0.3206,-0.0655,4.14,13.02,-43.68,,adl
12.30656,0.1605,0.5925,-0.0405,0.0719,0.1598,-0.0623,4.14,13.02,-43.68,,adl
12.313741,0.1605,0.5925,-0.0405,0.0719,0.1598,-0.0623,6.06,12.84,-44.28,,adl
12.324804,0.1605,0.5925,-0.0405,0.0889,0.0053,-0.0085,6.06,12.84,-44.28,,adl
12.328937,0.1605,0.5925,-0.0405,0.0889,0.0053,-0.0085,6.06,12.84,-44.28,,adl
12.329185,-0.5597,0.1109,-0.4481,0.0889,0.0053,-0.0085,6.06,12.84,-44.28,,adl
12.346174,-0.5597,0.1109,-0.4481,0.0762,-0.033,0.0474,6.06,12.84,-44.28,,adl
12.365481,-0.5597,0.1109,-0.4481,0.0202,-0.049,0.0538,6.06,12.84,-44.28,,adl
12.375468,-0.5597,0.1109,-0.4481,0.0202,-0.049,0.0538,7.98,12.54,-44.1,,adl
12.387121,-0.5597,0.1109,-0.4481,-0.0431,-0.0309,-0.0064,7.98,12.54,-44.1,,adl
12.391566,-0.5597,0.1109,-0.4481,-0.0431,-0.0309,-0.0064,7.98,12.54,-44.1,,adl
12.392071,0.9113,-0.3808,0.1453,-0.0431,-0.0309,-0.0064,7.98,12.54,-44.1,,adl
12.408103,0.9113,-0.3808,0.1453,-0.0549,-0.0426,-0.0613,7.98,12.54,-44.1,,adl
12.429693,0.9113,-0.3808,0.1453,0.0437,0.0021,-0.1124,7.98,12.54,-44.1,,adl
12.437016,0.9113,-0.3808,0.1453,0.0437,0.0021,-0.1124,9.0,12.36,-43.86,,adl
12.449867,0.9113,-0.3808,0.1453,0.1433,0.1534,-0.1417,9.0,12.36,-43.86,,adl
12.453269,0.9113,-0.3808,0.1453,0.1433,0.1534,-0.1417,9.0,12.36,-43.86,,adl
12.454217,0.296,-0.0073,-0.3715,0.1433,0.1534,-0.1417,9.0,12.36,-43.86,,adl
12.46994,0.296,-0.0073,-0.3715,0.1571,0.2567,-0.1704,9.0,12.36,-43.86,,adl
12.490125,0.296,-0.0073,-0.3715,0.0831,0.2029,-0.1545,9.0,12.36,-43.86,,adl
12.500245,0.296,-0.0073,-0.3715,0.0831,0.2029,-0.1545,9.18,12.06,-44.28,,adl
12.510948,0.296,-0.0073,-0.3715,-0.0543,0.0458,-0.1316,9.18,12.06,-44.28,,adl
12.514463,0.296,-0.0073,-0.3715,-0.0543,0.0458,-0.1316,9.18,12.06,-44.28,,adl
12.515367,-0.6952,0.0287,0.0008,-0.0543,0.0458,-0.1316,9.18,12.06,-44.28,,adl
12.531349,-0.6952,0.0287,0.0008,-0.1747,-0.1411,-0.0858,9.18,12.06,-44.28,,adl
12.551415,-0.6952,0.0287,0.0008,-0.2088,-0.2823,-0.0288,9.18,12.06,-44.28,,adl
12.560057,-0.6952,0.0287,0.0008,-0.2088,-0.2823,-0.0288,9.12,11.88,-44.1,,adl
12.57093,-0.6952,0.0287,0.0008,-0.1411,-0.2402,-0.0197,9.12,11.88,-44.1,,adl
12.576476,-0.6952,0.0287,0.0008,-0.1411,-0.2402,-0.0197,9.12,11.88,-44.1,,adl
12.577636,0.7968,-0.4699,0.4503,-0.1411,-0.2402,-0.0197,9.12,11.88,-44.1,,adl
12.592209,0.7968,-0.4699,0.4503,-0.0069,-0.1172,-0.0234,9.12,11.88,-44.1,,adl
12.613638,0.7968,-0.4699,0.4503,0.1161,0.0293,-0.0293,9.12,11.88,-44.1,,adl
12.622523,0.7968,-0.4699,0.4503,0.1161,0.0293,-0.0293,8.58,11.82,-44.58,,adl
12.63443,0.7968,-0.4699,0.4503,0.1854,0.1539,-0.0527,8.58,11.82,-44.58,,adl
12.638048,0.7968,-0.4699,0.4503,0.1854,0.1539,-0.0527,8.58,11.82,-44.58,,adl
12.639011,1.4181,-0.5551,0.3244,0.1854,0.1539,-0.0527,8.58,11.82,-44.58,,adl
12.65431,1.4181,-0.5551,0.3244,0.1864,0.2748,-0.0767,8.58,11.82,-44.58,,adl
12.675726,1.4181,-0.5551,0.3244,0.1582,0.3547,-0.0815,8.58,11.82,-44.58,,adl
12.684297,1.4181,-0.5551,0.3244,0.1582,0.3547,-0.0815,8.28,11.88,-45.0,,adl
12.695595,1.4181,-0.5551,0.3244,0.1166,0.3159,-0.065,8.28,11.88,-45.0,,adl
12.700318,1.4181,-0.5551,0.3244,0.1166,0.3159,-0.065,8.28,11.88,-45.0,,adl
12.701994,-0.6133,0.1039,-0.1044,0.1166,0.3159,-0.065,8.28,11.88,-45.0,,adl
12.717926,-0.6133,0.1039,-0.1044,0.0676,0.1763,-0.0618,8.28,11.88,-45.0,,adl
12.736583,-0.6133,0.1039,-0.1044,0.0011,0.0117,-0.0618,8.28,11.88,-45.0,,adl
12.745354,-0.6133,0.1039,-0.1044,0.0011,0.0117,-0.0618,8.58,11.88,-44.64,,adl
12.756351,-0.6133,0.1039,-0.1044,-0.0858,-0.1241,-0.0394,8.58,11.88,-44.64,,adl
12.760846,-0.6133,0.1039,-0.1044,-0.0858,-0.1241,-0.0394,8.58,11.88,-44.64,,adl
12.762004,-0.1287,-0.0629,0.311,-0.0858,-0.1241,-0.0394,8.58,11.88,-44.64,,adl
12.777711,-0.1287,-0.0629,0.311,-0.147,-0.155,-0.0336,8.58,11.88,-44.64,,adl
12.798172,-0.1287,-0.0629,0.311,-0.106,-0.098,-0.0415,8.58,11.88,-44.64,,adl
12.806866,-0.1287,-0.0629,0.311,-0.106,-0.098,-0.0415,8.52,11.58,-44.88,,adl
12.817861,-0.1287,-0.0629,0.311,-0.0005,-0.0075,-0.0458,8.52,11.58,-44.88,,adl
12.823393,-0.1287,-0.0629,0.311,-0.0005,-0.0075,-0.0458,8.52,11.58,-44.88,,adl
12.824399,0.3078,-0.1629,0.013,-0.0005,-0.0075,-0.0458,8.52,11.58,-44.88,,adl
12.839605,0.3078,-0.1629,0.013,0.0719,0.0831,-0.0469,8.52,11.58,-44.88,,adl
12.859333,0.3078,-0.1629,0.013,0.0719,0.1161,-0.0453,8.52,11.58,-44.88,,adl
12.867502,0.3078,-0.1629,0.013,0.0719,0.1161,-0.0453,8.76,11.4,-44.22,,adl
12.880169,0.3078,-0.1629,0.013,0.0463,0.1044,-0.0341,8.76,11.4,-44.22,,adl
12.883225,0.3078,-0.1629,0.013,0.0463,0.1044,-0.0341,8.76,11.4,-44.22,,adl
12.884499,-0.3391,0.0195,0.0066,0.0463,0.1044,-0.0341,8.76,11.4,-44.22,,adl
12.901448,-0.3391,0.0195,0.0066,0.0277,0.0522,-0.0234,8.76,11.4,-44.22,,adl
12.92144,-0.3391,0.0195,0.0066,0.0266,-0.025,-0.017,8.76,11.4,-44.22,,adl
12.930083,-0.3391,0.0195,0.0066,0.0266,-0.025,-0.017,9.54,11.28,-44.34,,adl
12.941931,-0.3391,0.0195,0.0066,0.0186,-0.0447,-0.0149,9.54,11.28,-44.34,,adl
12.945507,-0.3391,0.0195,0.0066,0.0186,-0.0447,-0.0149,9.54,11.28,-44.34,,adl
12.946537,-0.2063,-0.0416,-0.1338,0.0186,-0.0447,-0.0149,9.54,11.28,-44.34,,adl
12.962331,-0.2063,-0.0416,-0.1338,0.0,-0.0399,-0.0096,9.54,11.28,-44.34,,adl
12.983787,-0.2063,-0.0416,-0.1338,-0.0096,-0.0336,-0.0149,9.54,11.28,-44.34,,adl
12.991232,-0.2063,-0.0416,-0.1338,-0.0096,-0.0336,-0.0149,9.9,11.4,-44.58,,adl
13.003081,-0.2063,-0.0416,-0.1338,-0.0016,-0.0378,-0.0192,9.9,11.4,-44.58,,adl
13.007313,-0.2063,-0.0416,-0.1338,-0.0016,-0.0378,-0.0192,9.9,11.4,-44.58,,adl
13.008267,-0.0465,0.1065,-0.0213,-0.0016,-0.0378,-0.0192,9.9,11.4,-44.58,,adl
13.023688,-0.0465,0.1065,-0.0213,-0.0325,-0.139,-0.0016,9.9,11.4,-44.58,,adl
13.044519,-0.0465,0.1065,-0.0213,-0.0389,-0.1619,0.0021,9.9,11.4,-44.58,,adl
13.05324,-0.0465,0.1065,-0.0213,-0.0389,-0.1619,0.0021,9.96,11.64,-44.4,,adl
13.064604,-0.0465,0.1065,-0.0213,0.0107,0.017,-0.0346,9.96,11.64,-44.4,,adl
13.068732,-0.0465,0.1065,-0.0213,0.0107,0.017,-0.0346,9.96,11.64,-44.4,,adl
13.070316,0.2016,-0.1003,-0.1204,0.0107,0.017,-0.0346,9.96,11.64,-44.4,,adl
13.08568,0.2016,-0.1003,-0.1204,0.0154,0.1092,-0.0613,9.96,11.64,-44.4,,adl
13.106005,0.2016,-0.1003,-0.1204,-0.9598,-0.6914,0.1625,9.96,11.64,-44.4,,adl
13.1145,0.2016,-0.1003,-0.1204,-0.9598,-0.6914,0.1625,10.08,11.94,-44.64,,adl
13.126573,0.2016,-0.1003,-0.1204,-0.4416,-0.6195,0.0527,10.08,11.94,-44.64,,adl
13.13067,0.2016,-0.1003,-0.1204,-0.4416,-0.6195,0.0527,10.08,11.94,-44.64,,adl
13.131581,-0.0884,0.4242,1.6821,-0.4416,-0.6195,0.0527,10.08,11.94,-44.64,,adl
13.147294,-0.0884,0.4242,1.6821,0.2301,0.1103,0.0112,10.08,11.94,-44.64,,adl
13.167518,-0.0884,0.4242,1.6821,0.7665,0.4996,0.3111,10.08,11.94,-44.64,,adl
13.17487,-0.0884,0.4242,1.6821,0.7665,0.4996,0.3111,9.48,12.18,-44.52,,adl
13.187863,-0.0884,0.4242,1.6821,0.9721,0.5928,0.8128,9.48,12.18,-44.52,,adl
13.191438,-0.0884,0.4242,1.6821,0.9721,0.5928,0.8128,9.48,12.18,-44.52,,adl
13.192357,0.4457,-1.7314,0.7406,0.9721,0.5928,0.8128,9.48,12.18,-44.52,,adl
13.20769,0.4457,-1.7314,0.7406,1.2314,0.5923,0.7803,9.48,12.18,-44.52,,adl
13.228752,0.4457,-1.7314,0.7406,1.4972,0.2631,0.5412,9.48,12.18,-44.52,,adl
13.23746,0.4457,-1.7314,0.7406,1.4972,0.2631,0.5412,9.54,11.82,-45.0,,adl
13.248731,0.4457,-1.7314,0.7406,1.004,-0.0767,0.1518,9.54,11.82,-45.0,,adl
13.253867,0.4457,-1.7314,0.7406,1.004,-0.0767,0.1518,9.54,11.82,-45.0,,adl
13.254817,0.8185,3.221,0.0164,1.004,-0.0767,0.1518,9.54,11.82,-45.0,,adl
13.269599,0.8185,3.221,0.0164,0.53,-0.5864,-0.2333,9.54,11.82,-45.0,,adl
13.290653,0.8185,3.221,0.0164,0.2077,-0.9316,-0.1284,9.54,11.82,-45.0,,adl
13.300853,0.8185,3.221,0.0164,0.2077,-0.9316,-0.1284,10.44,10.44,-46.02,,adl
13.31047,0.8185,3.221,0.0164,0.0905,-0.9252,-0.1811,10.44,10.44,-46.02,,adl
13.31442,0.8185,3.221,0.0164,0.0905,-0.9252,-0.1811,10.44,10.44,-46.02,,adl
13.315302,-0.0304,-0.9814,-0.5844,0.0905,-0.9252,-0.1811,10.44,10.44,-46.02,,adl
13.331687,-0.0304,-0.9814,-0.5844,0.1715,-0.5491,-0.2136,10.44,10.44,-46.02,,adl
13.350997,-0.0304,-0.9814,-0.5844,0.0762,-0.3936,-0.0724,10.44,10.44,-46.02,,adl
13.361016,-0.0304,-0.9814,-0.5844,0.0762,-0.3936,-0.0724,11.4,12.24,-50.58,,adl
13.372704,-0.0304,-0.9814,-0.5844,-0.0059,-0.2194,0.0842,11.4,12.24,-50.58,,adl
13.377073,-0.0304,-0.9814,-0.5844,-0.0059,-0.2194,0.0842,11.4,12.24,-50.58,,adl
13.378015,-0.4291,0.2847,-0.7071,-0.0059,-0.2194,0.0842,11.4,12.24,-50.58,,adl
13.392459,-0.4291,0.2847,-0.7071,-0.0101,-0.0714,0.1033,11.4,12.24,-50.58,,adl
13.413895,-0.4291,0.2847,-0.7071,0.0176,-0.0549,0.0463,11.4,12.24,-50.58,,adl
13.422507,-0.4291,0.2847,-0.7071,0.0176,-0.0549,0.0463,12.36,14.16,-55.5,,adl
13.434458,-0.4291,0.2847,-0.7071,-0.0346,-0.0911,0.0708,12.36,14.16,-55.5,,adl
13.437763,-0.4291,0.2847,-0.7071,-0.0346,-0.0911,0.0708,12.36,14.16,-55.5,,adl
13.438603,0.0132,-0.1956,0.3362,-0.0346,-0.0911,0.0708,12.36,14.16,-55.5,,adl
13.454465,0.0132,-0.1956,0.3362,-0.1523,-0.1129,0.0399,12.36,14.16,-55.5,,adl
13.474862,0.0132,-0.1956,0.3362,-0.2024,-0.065,-0.0495,12.36,14.16,-55.5,,adl
13.484581,0.0132,-0.1956,0.3362,-0.2024,-0.065,-0.0495,11.88,16.32,-59.22,,adl
13.495134,0.0132,-0.1956,0.3362,-0.0629,0.0346,-0.1353,11.88,16.32,-59.22,,adl
13.498603,0.0132,-0.1956,0.3362,-0.0629,0.0346,-0.1353,11.88,16.32,-59.22,,adl
13.499974,-0.1397,0.5944,-0.0388,-0.0629,0.0346,-0.1353,11.88,16.32,-59.22,,adl
13.517499,-0.1397,0.5944,-0.0388,0.0309,0.1236,-0.1108,11.88,16.32,-59.22,,adl
13.536867,-0.1397,0.5944,-0.0388,0.0298,0.1561,-0.0644,11.88,16.32,-59.22,,adl
13.545983,-0.1397,0.5944,-0.0388,0.0298,0.1561,-0.0644,10.92,18.78,-61.74,,adl
13.557243,-0.1397,0.5944,-0.0388,-0.0288,0.1395,-0.0644,10.92,18.78,-61.74,,adl
13.56104,-0.1397,0.5944,-0.0388,-0.0288,0.1395,-0.0644,10.92,18.78,-61.74,,adl
13.561922,0.332,-0.2695,0.323,-0.0288,0.1395,-0.0644,10.92,18.78,-61.74,,adl
13.577995,0.332,-0.2695,0.323,-0.0623,0.1411,-0.0927,10.92,18.78,-61.74,,adl
13.597643,0.332,-0.2695,0.323,-0.0218,0.1417,-0.0485,10.92,18.78,-61.74,,adl
13.606735,0.332,-0.2695,0.323,-0.0218,0.1417,-0.0485,9.18,18.12,-61.08,,adl
13.618881,0.332,-0.2695,0.323,-0.0272,0.0533,-0.0075,9.18,18.12,-61.08,,adl
13.622988,0.332,-0.2695,0.323,-0.0272,0.0533,-0.0075,9.18,18.12,-61.08,,adl
13.623935,0.1752,-0.0604,0.0826,-0.0272,0.0533,-0.0075,9.18,18.12,-61.08,,adl
13.63973,0.1752,-0.0604,0.0826,-0.0575,-0.0043,0.0101,9.18,18.12,-61.08,,adl
13.659909,0.1752,-0.0604,0.0826,-0.0522,-0.0123,-0.016,9.18,18.12,-61.08,,adl
13.667699,0.1752,-0.0604,0.0826,-0.0522,-0.0123,-0.016,7.98,17.46,-60.36,,adl
13.6801,0.1752,-0.0604,0.0826,-0.049,0.0256,-0.0123,7.98,17.46,-60.36,,adl
13.683722,0.1752,-0.0604,0.0826,-0.049,0.0256,-0.0123,7.98,17.46,-60.36,,adl
13.68528,0.2604,0.0155,-0.1977,-0.049,0.0256,-0.0123,7.98,17.46,-60.36,,adl
13.699504,0.2604,0.0155,-0.1977,0.2653,0.4719,0.0474,7.98,17.46,-60.36,,adl
13.72004,0.2604,0.0155,-0.1977,0.2258,0.0634,-0.008,7.98,17.46,-60.36,,adl
13.728495,0.2604,0.0155,-0.1977,0.2258,0.0634,-0.008,8.22,17.16,-59.7,,adl
13.74056,0.2604,0.0155,-0.1977,0.2088,-0.139,0.0096,8.22,17.16,-59.7,,adl
13.744559,0.2604,0.0155,-0.1977,0.2088,-0.139,0.0096,8.22,17.16,-59.7,,adl
13.745135,0.5306,-0.6908,0.2479,0.2088,-0.139,0.0096,8.22,17.16,-59.7,,adl
13.760491,0.5306,-0.6908,0.2479,0.0708,-0.3281,0.0394,8.22,17.16,-59.7,,adl
13.782094,0.5306,-0.6908,0.2479,0.2035,-0.0362,-0.0261,8.22,17.16,-59.7,,adl
13.790149,0.5306,-0.6908,0.2479,0.2035,-0.0362,-0.0261,7.92,17.34,-60.18,,adl
13.801533,0.5306,-0.6908,0.2479,0.2157,-0.0842,-0.1241,7.92,17.34,-60.18,,adl
13.805887,0.5306,-0.6908,0.2479,0.2157,-0.0842,-0.1241,7.92,17.34,-60.18,,adl
13.806723,-0.308,0.3822,0.1609,0.2157,-0.0842,-0.1241,7.92,17.34,-60.18,,adl
13.822349,-0.308,0.3822,0.1609,0.0884,-0.0618,-0.0767,7.92,17.34,-60.18,,adl
13.842898,-0.308,0.3822,0.1609,-0.0692,-0.0735,0.0357,7.92,17.34,-60.18,,adl
13.851672,-0.308,0.3822,0.1609,-0.0692,-0.0735,0.0357,8.34,17.88,-60.72,,adl
13.863676,-0.308,0.3822,0.1609,-0.0799,-0.1667,0.0889,8.34,17.88,-60.72,,adl
13.867819,-0.308,0.3822,0.1609,-0.0799,-0.1667,0.0889,8.34,17.88,-60.72,,adl
13.868319,0.5224,-0.3066,0.1532,-0.0799,-0.1667,0.0889,8.34,17.88,-60.72,,adl
13.883521,0.5224,-0.3066,0.1532,0.0192,-0.2194,0.0895,8.34,17.88,-60.72,,adl
13.904768,0.5224,-0.3066,0.1532,0.1294,-0.1561,0.057,8.34,17.88,-60.72,,adl
13.914243,0.5224,-0.3066,0.1532,0.1294,-0.1561,0.057,8.46,18.3,-60.36,,adl
13.924551,0.5224,-0.3066,0.1532,0.163,-0.1561,-0.0075,8.46,18.3,-60.36,,adl
13.928696,0.5224,-0.3066,0.1532,0.163,-0.1561,-0.0075,8.46,18.3,-60.36,,adl
13.929283,-0.0498,-0.1834,-0.102,0.163,-0.1561,-0.0075,8.46,18.3,-60.36,,adl
13.945919,-0.0498,-0.1834,-0.102,0.1129,-0.1076,-0.0192,8.46,18.3,-60.36,,adl
13.965982,-0.0498,-0.1834,-0.102,0.0703,-0.0975,0.0341,8.46,18.3,-60.36,,adl
13.975619,-0.0498,-0.1834,-0.102,0.0703,-0.0975,0.0341,7.86,18.06,-60.24,,adl
13.986526,-0.0498,-0.1834,-0.102,-0.0059,-0.1017,0.0426,7.86,18.06,-60.24,,adl
13.991006,-0.0498,-0.1834,-0.102,-0.0059,-0.1017,0.0426,7.86,18.06,-60.24,,adl
13.992254,-0.4817,-0.2475,0.4006,-0.0059,-0.1017,0.0426,7.86,18.06,-60.24,,adl
14.006724,-0.4817,-0.2475,0.4006,-0.0948,-0.0602,0.0176,7.86,18.06,-60.24,,adl
14.027717,-0.4817,-0.2475,0.4006,-0.1252,-0.0421,0.0463,7.86,18.06,-60.24,,adl
14.036299,-0.4817,-0.2475,0.4006,-0.1252,-0.0421,0.0463,7.56,17.7,-60.12,,adl
14.047972,-0.4817,-0.2475,0.4006,-0.1395,-0.155,0.1619,7.56,17.7,-60.12,,adl
14.052138,-0.4817,-0.2475,0.4006,-0.1395,-0.155,0.1619,7.56,17.7,-60.12,,adl
14.052685,-0.0214,0.365,0.1674,-0.1395,-0.155,0.1619,7.56,17.7,-60.12,,adl
14.069302,-0.0214,0.365,0.1674,-0.2743,-0.172,0.1747,7.56,17.7,-60.12,,adl
14.089341,-0.0214,0.365,0.1674,-0.3206,-0.1454,0.2147,7.56,17.7,-60.12,,adl
14.098309,-0.0214,0.365,0.1674,-0.3206,-0.1454,0.2147,6.72,16.8,-59.34,,adl
14.109953,-0.0214,0.365,0.1674,-0.2913,-0.13,0.3073,6.72,16.8,-59.34,,adl
14.114116,-0.0214,0.365,0.1674,-0.2913,-0.13,0.3073,6.72,16.8,-59.34,,adl
14.114923,-0.1297,-0.9061,-0.2182,-0.2913,-0.13,0.3073,6.72,16.8,-59.34,,adl
14.130245,-0.1297,-0.9061,-0.2182,-0.1875,-0.1646,0.3595,6.72,16.8,-59.34,,adl
14.150754,-0.1297,-0.9061,-0.2182,-0.1965,-0.2834,0.319,6.72,16.8,-59.34,,adl
14.159818,-0.1297,-0.9061,-0.2182,-0.1965,-0.2834,0.319,6.0,15.72,-58.74,,adl
14.171051,-0.1297,-0.9061,-0.2182,-0.2013,-0.3153,0.2242,6.0,15.72,-58.74,,adl
14.17506,-0.1297,-0.9061,-0.2182,-0.2013,-0.3153,0.2242,6.0,15.72,-58.74,,adl
14.175545,-0.281,0.2959,-0.1173,-0.2013,-0.3153,0.2242,6.0,15.72,-58.74,,adl
14.192091,-0.281,0.2959,-0.1173,-0.1928,-0.1981,0.2866,6.0,15.72,-58.74,,adl
14.212331,-0.281,0.2959,-0.1173,-0.1843,0.0506,0.2674,6.0,15.72,-58.74,,adl
14.221513,-0.281,0.2959,-0.1173,-0.1843,0.0506,0.2674,5.1,14.88,-58.08,,adl
14.233317,-0.281,0.2959,-0.1173,-0.1348,0.1007,0.2796,5.1,14.88,-58.08,,adl
14.237099,-0.281,0.2959,-0.1173,-0.1348,0.1007,0.2796,5.1,14.88,-58.08,,adl
14.237555,0.0423,-0.1078,0.1729,-0.1348,0.1007,0.2796,5.1,14.88,-58.08,,adl
14.253351,0.0423,-0.1078,0.1729,-0.0138,-0.0495,0.3281,5.1,14.88,-58.08,,adl
14.274191,0.0423,-0.1078,0.1729,0.1678,-0.1774,0.375,5.1,14.88,-58.08,,adl
14.282715,0.0423,-0.1078,0.1729,0.1678,-0.1774,0.375,4.56,14.4,-57.12,,adl
14.294474,0.0423,-0.1078,0.1729,0.3531,-0.2434,0.2791,4.56,14.4,-57.12,,adl
14.298628,0.0423,-0.1078,0.1729,0.3531,-0.2434,0.2791,4.56,14.4,-57.12,,adl
14.299567,0.4453,-0.0069,0.3633,0.3531,-0.2434,0.2791,4.56,14.4,-57.12,,adl
14.314796,0.4453,-0.0069,0.3633,0.4442,-0.3153,0.1321,4.56,14.4,-57.12,,adl
14.33536,0.4453,-0.0069,0.3633,0.4479,-0.1944,0.0027,4.56,14.4,-57.12,,adl
14.344049,0.4453,-0.0069,0.3633,0.4479,-0.1944,0.0027,4.44,13.44,-55.98,,adl
14.356282,0.4453,-0.0069,0.3633,0.4314,0.0138,-0.0996,4.44,13.44,-55.98,,adl
14.360394,0.4453,-0.0069,0.3633,0.4314,0.0138,-0.0996,4.44,13.44,-55.98,,adl
14.361371,-0.1623,0.2404,0.0435,0.4314,0.0138,-0.0996,4.44,13.44,-55.98,,adl
14.377289,-0.1623,0.2404,0.0435,0.3611,0.0053,-0.0719,4.44,13.44,-55.98,,adl
14.397073,-0.1623,0.2404,0.0435,0.2668,-0.139,-0.0133,4.44,13.44,-55.98,,adl
14.408122,-0.1623,0.2404,0.0435,0.2668,-0.139,-0.0133,3.42,11.46,-54.54,,adl
14.417483,-0.1623,0.2404,0.0435,0.1332,-0.0639,-0.0229,3.42,11.46,-54.54,,adl
14.421913,-0.1623,0.2404,0.0435,0.1332,-0.0639,-0.0229,3.42,11.46,-54.54,,adl
14.422849,0.1447,0.3734,-0.3099,0.1332,-0.0639,-0.0229,3.42,11.46,-54.54,,adl
14.439195,0.1447,0.3734,-0.3099,-0.032,0.2104,-0.0996,3.42,11.46,-54.54,,adl
14.459571,0.1447,0.3734,-0.3099,-0.1427,0.334,-0.1305,3.42,11.46,-54.54,,adl
14.467681,0.1447,0.3734,-0.3099,-0.1427,0.334,-0.1305,3.24,8.76,-53.4,,adl
14.479471,0.1447,0.3734,-0.3099,-0.1758,0.2392,-0.106,3.24,8.76,-53.4,,adl
14.483415,0.1447,0.3734,-0.3099,-0.1758,0.2392,-0.106,3.24,8.76,-53.4,,adl
14.484214,-0.2669,0.3189,0.3595,-0.1758,0.2392,-0.106,3.24,8.76,-53.4,,adl
14.500384,-0.2669,0.3189,0.3595,-0.172,0.0921,-0.0778,3.24,8.76,-53.4,,adl
14.520658,-0.2669,0.3189,0.3595,-0.1262,0.0037,-0.0565,3.24,8.76,-53.4,,adl
14.529777,-0.2669,0.3189,0.3595,-0.1262,0.0037,-0.0565,2.88,6.36,-52.32,,adl
14.54115,-0.2669,0.3189,0.3595,-0.0639,0.025,-0.0101,2.88,6.36,-52.32,,adl
14.545337,-0.2669,0.3189,0.3595,-0.0639,0.025,-0.0101,2.88,6.36,-52.32,,adl
14.546261,-0.0411,-0.2035,-0.1112,-0.0639,0.025,-0.0101,2.88,6.36,-52.32,,adl
14.562167,-0.0411,-0.2035,-0.1112,-0.0543,0.0474,-0.0011,2.88,6.36,-52.32,,adl
14.581392,-0.0411,-0.2035,-0.1112,0.2226,0.4463,-0.0495,2.88,6.36,-52.32,,adl
14.590368,-0.0411,-0.2035,-0.1112,0.2226,0.4463,-0.0495,2.4,4.5,-51.36,,adl
14.602111,-0.0411,-0.2035,-0.1112,0.2381,0.1603,0.0123,2.4,4.5,-51.36,,adl
14.606519,-0.0411,-0.2035,-0.1112,0.2381,0.1603,0.0123,2.4,4.5,-51.36,,adl
14.607303,0.1448,-0.1696,0.4709,0.2381,0.1603,0.0123,2.4,4.5,-51.36,,adl
14.622233,0.1448,-0.1696,0.4709,0.1337,0.0005,0.0293,2.4,4.5,-51.36,,adl
14.643231,0.1448,-0.1696,0.4709,-0.0336,-0.098,0.0011,2.4,4.5,-51.36,,adl
14.652126,0.1448,-0.1696,0.4709,-0.0336,-0.098,0.0011,2.7,3.18,-51.48,,adl
14.664396,0.1448,-0.1696,0.4709,-0.0005,0.0953,0.0085,2.7,3.18,-51.48,,adl
