time,ax,ay,az,wx,wy,wz,Bx,By,Bz,Unnamed: 10,label
0.020169,0.0,0.0,0.0,0.0,0.0,0.0,0.0,0.0,0.0,,adl
0.023754,0.0,0.0,0.0,-0.3206,-0.5406,0.0474,0.0,0.0,0.0,,adl
0.040644,0.0,0.0,0.0,-0.3206,-0.5406,0.0474,0.0,0.0,0.0,,adl
0.041304,-0.0306,0.0099,0.3443,-0.3206,-0.5406,0.0474,0.0,0.0,0.0,,adl
0.045625,-0.0306,0.0099,0.3443,-0.3206,-0.5406,0.0474,-22.02,-4.14,-34.44,,adl
0.046231,-0.0306,0.0099,0.3443,-0.3206,-0.5406,0.0474,-22.02,-4.14,-34.44,,adl
0.061111,-0.0306,0.0099,0.3443,-0.3206,-0.5406,0.0474,-22.02,-4.14,-34.44,,adl
0.061796,-0.2711,0.1957,-0.2506,-0.3206,-0.5406,0.0474,-22.02,-4.14,-34.44,,adl
0.0657,-0.2711,0.1957,-0.2506,-0.3206,-0.5406,0.0474,-22.02,-4.14,-34.44,,adl
0.08168,-0.2711,0.1957,-0.2506,-0.3206,-0.5406,0.0474,-22.02,-4.14,-34.44,,adl
0.082289,-0.1396,0.1428,-0.3631,-0.3206,-0.5406,0.0474,-22.02,-4.14,-34.44,,adl
0.085078,-0.1396,0.1428,-0.3631,-0.1838,-0.2983,0.0027,-22.02,-4.14,-34.44,,adl
0.101957,-0.1396,0.1428,-0.3631,-0.1838,-0.2983,0.0027,-22.02,-4.14,-34.44,,adl
0.102726,-0.0174,0.0032,0.1468,-0.1838,-0.2983,0.0027,-22.02,-4.14,-34.44,,adl
0.10733,-0.0174,0.0032,0.1468,-0.1838,-0.2983,0.0027,-24.9,-17.58,-22.14,,adl
0.108168,-0.0174,0.0032,0.1468,-0.1965,-0.3206,0.0181,-24.9,-17.58,-22.14,,adl
0.123424,-0.0174,0.0032,0.1468,-0.1965,-0.3206,0.0181,-24.9,-17.58,-22.14,,adl
0.124127,0.1463,-0.1491,0.486,-0.1965,-0.3206,0.0181,-24.9,-17.58,-22.14,,adl
0.126524,0.1463,-0.1491,0.486,-0.0272,-0.0224,-0.0048,-24.9,-17.58,-22.14,,adl
0.143443,0.1463,-0.1491,0.486,-0.0272,-0.0224,-0.0048,-24.9,-17.58,-22.14,,adl
0.144133,0.0301,-0.1122,0.4383,-0.0272,-0.0224,-0.0048,-24.9,-17.58,-22.14,,adl
0.146887,0.0301,-0.1122,0.4383,0.1092,0.2088,-0.0197,-24.9,-17.58,-22.14,,adl
0.163757,0.0301,-0.1122,0.4383,0.1092,0.2088,-0.0197,-24.9,-17.58,-22.14,,adl
0.16447,-0.0921,0.016,0.2256,0.1092,0.2088,-0.0197,-24.9,-17.58,-22.14,,adl
0.168304,-0.0921,0.016,0.2256,0.1092,0.2088,-0.0197,-26.4,-24.96,-16.14,,adl
0.169317,-0.0921,0.016,0.2256,0.098,0.1406,-0.0085,-26.4,-24.96,-16.14,,adl
0.184684,-0.0921,0.016,0.2256,0.098,0.1406,-0.0085,-26.4,-24.96,-16.14,,adl
0.185278,-0.0907,0.1002,-0.0376,0.098,0.1406,-0.0085,-26.4,-24.96,-16.14,,adl
0.187549,-0.0907,0.1002,-0.0376,-0.0176,-0.0565,0.0075,-26.4,-24.96,-16.14,,adl
0.204959,-0.0907,0.1002,-0.0376,-0.0176,-0.0565,0.0075,-26.4,-24.96,-16.14,,adl
0.205745,0.0128,0.0524,0.0439,-0.0176,-0.0565,0.0075,-26.4,-24.96,-16.14,,adl
0.209284,0.0128,0.0524,0.0439,-0.0692,-0.1172,0.0085,-26.4,-24.96,-16.14,,adl
0.225579,0.0128,0.0524,0.0439,-0.0692,-0.1172,0.0085,-26.4,-24.96,-16.14,,adl
0.226265,0.03,-0.001,0.1702,-0.0692,-0.1172,0.0085,-26.4,-24.96,-16.14,,adl
0.229733,0.03,-0.001,0.1702,-0.0692,-0.1172,0.0085,-27.96,-32.4,-10.08,,adl
0.230352,0.03,-0.001,0.1702,-0.0325,-0.0368,0.0021,-27.96,-32.4,-10.08,,adl
0.24596,0.03,-0.001,0.1702,-0.0325,-0.0368,0.0021,-27.96,-32.4,-10.08,,adl
0.246626,0.0418,-0.0209,0.2075,-0.0325,-0.0368,0.0021,-27.96,-32.4,-10.08,,adl
0.253233,0.0418,-0.0209,0.2075,0.0304,0.0735,-0.0128,-27.96,-32.4,-10.08,,adl
0.266278,0.0418,-0.0209,0.2075,0.0304,0.0735,-0.0128,-27.96,-32.4,-10.08,,adl
0.266928,-0.0473,0.0217,0.1912,0.0304,0.0735,-0.0128,-27.96,-32.4,-10.08,,adl
0.270449,-0.0473,0.0217,0.1912,0.0256,0.0623,-0.0107,-27.96,-32.4,-10.08,,adl
0.286938,-0.0473,0.0217,0.1912,0.0256,0.0623,-0.0107,-27.96,-32.4,-10.08,,adl
0.287548,-0.0659,0.0096,0.1879,0.0256,0.0623,-0.0107,-27.96,-32.4,-10.08,,adl
0.291108,-0.0659,0.0096,0.1879,0.0256,0.0623,-0.0107,-27.96,-32.58,-10.02,,adl
0.291634,-0.0659,0.0096,0.1879,-0.0117,-0.024,-0.0016,-27.96,-32.58,-10.02,,adl
0.30797,-0.0659,0.0096,0.1879,-0.0117,-0.024,-0.0016,-27.96,-32.58,-10.02,,adl
0.308708,-0.0156,-0.0168,0.1826,-0.0117,-0.024,-0.0016,-27.96,-32.58,-10.02,,adl
0.311119,-0.0156,-0.0168,0.1826,-0.0277,-0.0554,0.0027,-27.96,-32.58,-10.02,,adl
0.328009,-0.0156,-0.0168,0.1826,-0.0277,-0.0554,0.0027,-27.96,-32.58,-10.02,,adl
0.328834,0.0308,-0.0423,0.1597,-0.0277,-0.0554,0.0027,-27.96,-32.58,-10.02,,adl
0.332197,0.0308,-0.0423,0.1597,-0.0037,-0.0016,0.0021,-27.96,-32.58,-10.02,,adl
0.348381,0.0308,-0.0423,0.1597,-0.0037,-0.0016,0.0021,-27.96,-32.58,-10.02,,adl
0.349098,0.028,-0.0534,0.138,-0.0037,-0.0016,0.0021,-27.96,-32.58,-10.02,,adl
0.353011,0.028,-0.0534,0.138,-0.0037,-0.0016,0.0021,-28.02,-32.64,-9.6,,adl
0.353545,0.028,-0.0534,0.138,0.0149,0.0357,-0.0032,-28.02,-32.64,-9.6,,adl
0.369203,0.028,-0.0534,0.138,0.0149,0.0357,-0.0032,-28.02,-32.64,-9.6,,adl
0.36985,-0.0296,-0.0131,0.1436,0.0149,0.0357,-0.0032,-28.02,-32.64,-9.6,,adl
0.37235,-0.0296,-0.0131,0.1436,0.0117,0.0176,-0.0021,-28.02,-32.64,-9.6,,adl
0.388879,-0.0296,-0.0131,0.1436,0.0117,0.0176,-0.0021,-28.02,-32.64,-9.6,,adl
0.389449,-0.0333,0.0134,0.18,0.0117,0.0176,-0.0021,-28.02,-32.64,-9.6,,adl
0.393382,-0.0333,0.0134,0.18,-0.0005,-0.0112,0.0,-28.02,-32.64,-9.6,,adl
0.410113,-0.0333,0.0134,0.18,-0.0005,-0.0112,0.0,-28.02,-32.64,-9.6,,adl
0.410864,-0.0068,0.0184,0.1654,-0.0005,-0.0112,0.0,-28.02,-32.64,-9.6,,adl
0.414352,-0.0068,0.0184,0.1654,-0.0005,-0.0112,0.0,-28.2,-32.58,-9.9,,adl
0.414865,-0.0068,0.0184,0.1654,-0.0069,-0.0107,-0.0027,-28.2,-32.58,-9.9,,adl
0.430347,-0.0068,0.0184,0.1654,-0.0069,-0.0107,-0.0027,-28.2,-32.58,-9.9,,adl
0.431102,-0.0065,-0.0065,0.1747,-0.0069,-0.0107,-0.0027,-28.2,-32.58,-9.9,,adl
0.434306,-0.0065,-0.0065,0.1747,-0.0059,-0.0048,-0.0016,-28.2,-32.58,-9.9,,adl
0.451271,-0.0065,-0.0065,0.1747,-0.0059,-0.0048,-0.0016,-28.2,-32.58,-9.9,,adl
0.451874,-0.041,-0.0053,0.1554,-0.0059,-0.0048,-0.0016,-28.2,-32.58,-9.9,,adl
0.454805,-0.041,-0.0053,0.1554,0.0,0.0016,-0.0043,-28.2,-32.58,-9.9,,adl
0.471261,-0.041,-0.0053,0.1554,0.0,0.0016,-0.0043,-28.2,-32.58,-9.9,,adl
0.471855,-0.0501,-0.0099,0.1626,0.0,0.0016,-0.0043,-28.2,-32.58,-9.9,,adl
0.476335,-0.0501,-0.0099,0.1626,0.0,0.0016,-0.0043,-28.44,-32.64,-10.38,,adl
0.477264,-0.0501,-0.0099,0.1626,0.0048,0.0117,-0.0016,-28.44,-32.64,-10.38,,adl
0.49155,-0.0501,-0.0099,0.1626,0.0048,0.0117,-0.0016,-28.44,-32.64,-10.38,,adl
0.492124,-0.0429,0.0108,0.1701,0.0048,0.0117,-0.0016,-28.44,-32.64,-10.38,,adl
0.495409,-0.0429,0.0108,0.1701,0.0,0.0096,0.0,-28.44,-32.64,-10.38,,adl
0.512021,-0.0429,0.0108,0.1701,0.0,0.0096,0.0,-28.44,-32.64,-10.38,,adl
0.512592,-0.0098,0.0227,0.1607,0.0,0.0096,0.0,-28.44,-32.64,-10.38,,adl
0.515907,-0.0098,0.0227,0.1607,-0.0043,-0.0043,0.0,-28.44,-32.64,-10.38,,adl
0.533247,-0.0098,0.0227,0.1607,-0.0043,-0.0043,0.0,-28.44,-32.64,-10.38,,adl
0.533921,0.0109,0.0044,0.1654,-0.0043,-0.0043,0.0,-28.44,-32.64,-10.38,,adl
0.537636,0.0109,0.0044,0.1654,-0.0043,-0.0043,0.0,-28.68,-32.58,-10.26,,adl
0.538139,0.0109,0.0044,0.1654,-0.0085,-0.0091,0.0005,-28.68,-32.58,-10.26,,adl
0.553975,0.0109,0.0044,0.1654,-0.0085,-0.0091,0.0005,-28.68,-32.58,-10.26,,adl
0.554602,0.0162,-0.0059,0.1532,-0.0085,-0.0091,0.0005,-28.68,-32.58,-10.26,,adl
0.557312,0.0162,-0.0059,0.1532,-0.0059,0.0011,-0.0005,-28.68,-32.58,-10.26,,adl
0.57448,0.0162,-0.0059,0.1532,-0.0059,0.0011,-0.0005,-28.68,-32.58,-10.26,,adl
0.575399,0.0044,-0.0118,0.1771,-0.0059,0.0011,-0.0005,-28.68,-32.58,-10.26,,adl
0.578387,0.0044,-0.0118,0.1771,0.0005,0.0096,0.0011,-28.68,-32.58,-10.26,,adl
0.594273,0.0044,-0.0118,0.1771,0.0005,0.0096,0.0011,-28.68,-32.58,-10.26,,adl
0.595042,0.0181,-0.0094,0.1772,0.0005,0.0096,0.0011,-28.68,-32.58,-10.26,,adl
0.598486,0.0181,-0.0094,0.1772,0.0005,0.0096,0.0011,-29.28,-32.7,-10.26,,adl
0.599326,0.0181,-0.0094,0.1772,0.0016,0.0091,-0.0021,-29.28,-32.7,-10.26,,adl
0.615248,0.0181,-0.0094,0.1772,0.0016,0.0091,-0.0021,-29.28,-32.7,-10.26,,adl
0.616027,-0.0019,-0.0024,0.1798,0.0016,0.0091,-0.0021,-29.28,-32.7,-10.26,,adl
0.61901,-0.0019,-0.0024,0.1798,-0.0011,-0.0048,-0.0021,-29.28,-32.7,-10.26,,adl
0.635924,-0.0019,-0.0024,0.1798,-0.0011,-0.0048,-0.0021,-29.28,-32.7,-10.26,,adl
0.637322,-0.0221,0.0098,0.1821,-0.0011,-0.0048,-0.0021,-29.28,-32.7,-10.26,,adl
0.63953,-0.0221,0.0098,0.1821,0.0,-0.0085,-0.0037,-29.28,-32.7,-10.26,,adl
0.657953,-0.0221,0.0098,0.1821,0.0,-0.0085,-0.0037,-29.28,-32.7,-10.26,,adl
0.659024,-0.0285,0.0195,0.1628,0.0,-0.0085,-0.0037,-29.28,-32.7,-10.26,,adl
0.660968,-0.0285,0.0195,0.1628,0.0,-0.0085,-0.0037,-29.4,-32.88,-9.78,,adl
0.661979,-0.0285,0.0195,0.1628,0.0,0.0,-0.0027,-29.4,-32.88,-9.78,,adl
0.676657,-0.0285,0.0195,0.1628,0.0,0.0,-0.0027,-29.4,-32.88,-9.78,,adl
0.677707,-0.0309,0.0076,0.1436,0.0,0.0,-0.0027,-29.4,-32.88,-9.78,,adl
0.680502,-0.0309,0.0076,0.1436,-0.0005,0.0096,-0.0011,-29.4,-32.88,-9.78,,adl
0.696728,-0.0309,0.0076,0.1436,-0.0005,0.0096,-0.0011,-29.4,-32.88,-9.78,,adl
0.697606,-0.0386,-0.0139,0.1653,-0.0005,0.0096,-0.0011,-29.4,-32.88,-9.78,,adl
0.701031,-0.0386,-0.0139,0.1653,-0.0032,0.0091,0.0005,-29.4,-32.88,-9.78,,adl
0.717818,-0.0386,-0.0139,0.1653,-0.0032,0.0091,0.0005,-29.4,-32.88,-9.78,,adl
0.71874,-0.0296,-0.0061,0.1727,-0.0032,0.0091,0.0005,-29.4,-32.88,-9.78,,adl
0.722013,-0.0296,-0.0061,0.1727,-0.0032,0.0091,0.0005,-29.16,-33.18,-9.36,,adl
0.722932,-0.0296,-0.0061,0.1727,-0.0048,-0.0016,0.0,-29.16,-33.18,-9.36,,adl
0.738098,-0.0296,-0.0061,0.1727,-0.0048,-0.0016,0.0,-29.16,-33.18,-9.36,,adl
0.739097,-0.0035,-0.0194,0.1822,-0.0048,-0.0016,0.0,-29.16,-33.18,-9.36,,adl
0.741886,-0.0035,-0.0194,0.1822,-0.0043,-0.0107,-0.0011,-29.16,-33.18,-9.36,,adl
0.758981,-0.0035,-0.0194,0.1822,-0.0043,-0.0107,-0.0011,-29.16,-33.18,-9.36,,adl
0.759923,-0.02,-0.0137,0.1676,-0.0043,-0.0107,-0.0011,-29.16,-33.18,-9.36,,adl
0.763239,-0.02,-0.0137,0.1676,-0.0011,0.0005,-0.0027,-29.16,-33.18,-9.36,,adl
0.779243,-0.02,-0.0137,0.1676,-0.0011,0.0005,-0.0027,-29.16,-33.18,-9.36,,adl
0.780261,-0.0342,0.0034,0.1748,-0.0011,0.0005,-0.0027,-29.16,-33.18,-9.36,,adl
0.783554,-0.0342,0.0034,0.1748,-0.0011,0.0005,-0.0027,-29.58,-33.36,-9.54,,adl
0.784933,-0.0342,0.0034,0.1748,0.0011,0.0064,-0.0005,-29.58,-33.36,-9.54,,adl
0.799224,-0.0342,0.0034,0.1748,0.0011,0.0064,-0.0005,-29.58,-33.36,-9.54,,adl
0.800168,-0.0042,0.008,0.139,0.0011,0.0064,-0.0005,-29.58,-33.36,-9.54,,adl
0.803862,-0.0042,0.008,0.139,0.0011,0.0133,-0.0032,-29.58,-33.36,-9.54,,adl
0.820371,-0.0042,0.008,0.139,0.0011,0.0133,-0.0032,-29.58,-33.36,-9.54,,adl
0.821505,-0.0159,0.0031,0.1632,0.0011,0.0133,-0.0032,-29.58,-33.36,-9.54,,adl
0.824394,-0.0159,0.0031,0.1632,-0.0059,0.0005,-0.0011,-29.58,-33.36,-9.54,,adl
0.84094,-0.0159,0.0031,0.1632,-0.0059,0.0005,-0.0011,-29.58,-33.36,-9.54,,adl
0.841953,-0.0158,-0.0101,0.1704,-0.0059,0.0005,-0.0011,-29.58,-33.36,-9.54,,adl
0.846065,-0.0158,-0.0101,0.1704,-0.0059,0.0005,-0.0011,-28.56,-33.3,-10.14,,adl
0.847066,-0.0158,-0.0101,0.1704,-0.0085,-0.0112,-0.0021,-28.56,-33.3,-10.14,,adl
0.861402,-0.0158,-0.0101,0.1704,-0.0085,-0.0112,-0.0021,-28.56,-33.3,-10.14,,adl
0.862383,-0.0108,-0.0036,0.1796,-0.0085,-0.0112,-0.0021,-28.56,-33.3,-10.14,,adl
0.867578,-0.0108,-0.0036,0.1796,-0.0053,-0.0011,-0.0016,-28.56,-33.3,-10.14,,adl
0.883149,-0.0108,-0.0036,0.1796,-0.0053,-0.0011,-0.0016,-28.56,-33.3,-10.14,,adl
0.884249,-0.0062,-0.0001,0.1915,-0.0053,-0.0011,-0.0016,-28.56,-33.3,-10.14,,adl
0.885456,-0.0062,-0.0001,0.1915,0.0043,0.0096,-0.0011,-28.56,-33.3,-10.14,,adl
0.90217,-0.0062,-0.0001,0.1915,0.0043,0.0096,-0.0011,-28.56,-33.3,-10.14,,adl
0.902817,-0.0091,-0.0009,0.163,0.0043,0.0096,-0.0011,-28.56,-33.3,-10.14,,adl
0.907867,-0.0091,-0.0009,0.163,0.0043,0.0096,-0.0011,-28.44,-33.24,-10.2,,adl
0.908854,-0.0091,-0.0009,0.163,0.0027,0.0037,0.0,-28.44,-33.24,-10.2,,adl
0.922634,-0.0091,-0.0009,0.163,0.0027,0.0037,0.0,-28.44,-33.24,-10.2,,adl
0.923611,-0.0108,0.0249,0.156,0.0027,0.0037,0.0,-28.44,-33.24,-10.2,,adl
0.926387,-0.0108,0.0249,0.156,-0.0021,-0.0037,-0.0016,-28.44,-33.24,-10.2,,adl
0.946821,-0.0108,0.0249,0.156,-0.0043,-0.0011,-0.0027,-28.44,-33.24,-10.2,,adl
0.968225,-0.0108,0.0249,0.156,-0.0043,-0.0011,-0.0027,-28.74,-33.66,-10.62,,adl
0.969451,-0.0108,0.0249,0.156,-0.0021,0.0037,-0.0064,-28.74,-33.66,-10.62,,adl
0.984103,-0.0108,0.0249,0.156,-0.0021,0.0037,-0.0064,-28.74,-33.66,-10.62,,adl
0.985024,-0.0039,-0.0184,0.1534,-0.0021,0.0037,-0.0064,-28.74,-33.66,-10.62,,adl
0.987838,-0.0039,-0.0184,0.1534,-0.0059,0.0101,-0.0037,-28.74,-33.66,-10.62,,adl
1.008952,-0.0039,-0.0184,0.1534,-0.0123,0.0053,-0.0005,-28.74,-33.66,-10.62,,adl
1.029269,-0.0039,-0.0184,0.1534,-0.0123,0.0053,-0.0005,-28.5,-33.42,-10.56,,adl
1.029724,-0.0039,-0.0184,0.1534,-0.0069,-0.0133,0.0005,-28.5,-33.42,-10.56,,adl
1.045191,-0.0039,-0.0184,0.1534,-0.0069,-0.0133,0.0005,-28.5,-33.42,-10.56,,adl
1.045581,-0.0084,0.0059,0.182,-0.0069,-0.0133,0.0005,-28.5,-33.42,-10.56,,adl
1.049831,-0.0084,0.0059,0.182,0.0064,-0.0069,-0.0037,-28.5,-33.42,-10.56,,adl
1.07011,-0.0084,0.0059,0.182,0.0053,0.0123,0.0011,-28.5,-33.42,-10.56,,adl
1.09241,-0.0084,0.0059,0.182,0.0053,0.0123,0.0011,-28.8,-33.42,-10.14,,adl
1.09341,-0.0084,0.0059,0.182,-0.0021,0.008,0.0,-28.8,-33.42,-10.14,,adl
1.107168,-0.0084,0.0059,0.182,-0.0021,0.008,0.0,-28.8,-33.42,-10.14,,adl
1.108097,0.0154,0.0397,0.1368,-0.0021,0.008,0.0,-28.8,-33.42,-10.14,,adl
1.111009,0.0154,0.0397,0.1368,-0.0069,-0.0011,-0.0027,-28.8,-33.42,-10.14,,adl
1.132388,0.0154,0.0397,0.1368,-0.0075,-0.0005,-0.0043,-28.8,-33.42,-10.14,,adl
1.1529,0.0154,0.0397,0.1368,-0.0075,-0.0005,-0.0043,-28.62,-33.42,-10.32,,adl
1.153632,0.0154,0.0397,0.1368,-0.0096,-0.0016,-0.0053,-28.62,-33.42,-10.32,,adl
1.169448,0.0154,0.0397,0.1368,-0.0096,-0.0016,-0.0053,-28.62,-33.42,-10.32,,adl
1.170291,-0.045,-0.0341,0.1845,-0.0096,-0.0016,-0.0053,-28.62,-33.42,-10.32,,adl
1.174261,-0.045,-0.0341,0.1845,-0.0064,0.0005,-0.0021,-28.62,-33.42,-10.32,,adl
1.193784,-0.045,-0.0341,0.1845,0.0011,0.0053,0.0021,-28.62,-33.42,-10.32,,adl
1.214773,-0.045,-0.0341,0.1845,0.0011,0.0053,0.0021,-28.14,-32.64,-10.32,,adl
1.216001,-0.045,-0.0341,0.1845,0.0064,0.0016,0.0016,-28.14,-32.64,-10.32,,adl
1.230103,-0.045,-0.0341,0.1845,0.0064,0.0016,0.0016,-28.14,-32.64,-10.32,,adl
1.230481,-0.0076,-0.0055,0.1535,0.0064,0.0016,0.0016,-28.14,-32.64,-10.32,,adl
1.23393,-0.0076,-0.0055,0.1535,0.008,-0.0053,-0.0011,-28.14,-32.64,-10.32,,adl
1.254664,-0.0076,-0.0055,0.1535,0.0016,0.0005,-0.0016,-28.14,-32.64,-10.32,,adl
1.276327,-0.0076,-0.0055,0.1535,0.0016,0.0005,-0.0016,-27.78,-32.34,-9.84,,adl
1.276834,-0.0076,-0.0055,0.1535,-0.0059,0.0021,-0.0021,-27.78,-32.34,-9.84,,adl
1.291586,-0.0076,-0.0055,0.1535,-0.0059,0.0021,-0.0021,-27.78,-32.34,-9.84,,adl
1.291963,-0.0153,0.0178,0.1822,-0.0059,0.0021,-0.0021,-27.78,-32.34,-9.84,,adl
1.295708,-0.0153,0.0178,0.1822,-0.0075,0.0,-0.0021,-27.78,-32.34,-9.84,,adl
1.316165,-0.0153,0.0178,0.1822,0.0011,0.0021,-0.0027,-27.78,-32.34,-9.84,,adl
1.337757,-0.0153,0.0178,0.1822,0.0011,0.0021,-0.0027,-27.78,-32.46,-9.9,,adl
1.338464,-0.0153,0.0178,0.1822,0.0048,0.0005,-0.0016,-27.78,-32.46,-9.9,,adl
1.353743,-0.0153,0.0178,0.1822,0.0048,0.0005,-0.0016,-27.78,-32.46,-9.9,,adl
1.354336,-0.0291,0.0159,0.1535,0.0048,0.0005,-0.0016,-27.78,-32.46,-9.9,,adl
1.357712,-0.0291,0.0159,0.1535,-0.0005,-0.0005,-0.0005,-27.78,-32.46,-9.9,,adl
1.377823,-0.0291,0.0159,0.1535,-0.0043,0.0021,0.0005,-27.78,-32.46,-9.9,,adl
1.399422,-0.0291,0.0159,0.1535,-0.0043,0.0021,0.0005,-28.14,-32.58,-9.78,,adl
1.400244,-0.0291,0.0159,0.1535,-0.0053,0.0016,0.0,-28.14,-32.58,-9.78,,adl
1.415814,-0.0291,0.0159,0.1535,-0.0053,0.0016,0.0,-28.14,-32.58,-9.78,,adl
1.416695,0.0213,-0.0059,0.1678,-0.0053,0.0016,0.0,-28.14,-32.58,-9.78,,adl
1.418999,0.0213,-0.0059,0.1678,-0.0043,0.0021,-0.0016,-28.14,-32.58,-9.78,,adl
1.439206,0.0213,-0.0059,0.1678,-0.0032,-0.0016,-0.0016,-28.14,-32.58,-9.78,,adl
1.460224,0.0213,-0.0059,0.1678,-0.0032,-0.0016,-0.0016,-28.26,-33.0,-9.48,,adl
1.46202,0.0213,-0.0059,0.1678,-0.0016,-0.0005,-0.0021,-28.26,-33.0,-9.48,,adl
1.476158,0.0213,-0.0059,0.1678,-0.0016,-0.0005,-0.0021,-28.26,-33.0,-9.48,,adl
1.477259,-0.0053,0.015,0.1797,-0.0016,-0.0005,-0.0021,-28.26,-33.0,-9.48,,adl
1.480001,-0.0053,0.015,0.1797,0.0021,0.0053,-0.0021,-28.26,-33.0,-9.48,,adl
1.500876,-0.0053,0.015,0.1797,0.0027,0.0048,-0.0032,-28.26,-33.0,-9.48,,adl
1.522299,-0.0053,0.015,0.1797,0.0027,0.0048,-0.0032,-28.62,-33.36,-9.72,,adl
1.52308,-0.0053,0.015,0.1797,0.0037,0.0011,0.0,-28.62,-33.36,-9.72,,adl
1.538479,-0.0053,0.015,0.1797,0.0037,0.0011,0.0,-28.62,-33.36,-9.72,,adl
1.539269,-0.0034,0.0251,0.1416,0.0037,0.0011,0.0,-28.62,-33.36,-9.72,,adl
1.54192,-0.0034,0.0251,0.1416,-0.0005,-0.0016,0.0,-28.62,-33.36,-9.72,,adl
1.562478,-0.0034,0.0251,0.1416,-0.0032,-0.0027,-0.0021,-28.62,-33.36,-9.72,,adl
1.583616,-0.0034,0.0251,0.1416,-0.0032,-0.0027,-0.0021,-28.68,-33.18,-9.84,,adl
1.584515,-0.0034,0.0251,0.1416,-0.0048,0.0011,-0.0037,-28.68,-33.18,-9.84,,adl
1.599996,-0.0034,0.0251,0.1416,-0.0048,0.0011,-0.0037,-28.68,-33.18,-9.84,,adl
1.601063,-0.0586,0.017,0.1751,-0.0048,0.0011,-0.0037,-28.68,-33.18,-9.84,,adl
1.603672,-0.0586,0.017,0.1751,-0.0085,0.0048,-0.0037,-28.68,-33.18,-9.84,,adl
1.623878,-0.0586,0.017,0.1751,-0.0027,0.008,-0.0021,-28.68,-33.18,-9.84,,adl
1.646031,-0.0586,0.017,0.1751,-0.0027,0.008,-0.0021,-28.38,-32.7,-9.9,,adl
1.647018,-0.0586,0.017,0.1751,-0.0011,0.0011,0.0,-28.38,-32.7,-9.9,,adl
1.66208,-0.0586,0.017,0.1751,-0.0011,0.0011,0.0,-28.38,-32.7,-9.9,,adl
1.663129,0.0182,-0.0091,0.1729,-0.0011,0.0011,0.0,-28.38,-32.7,-9.9,,adl
1.666454,0.0182,-0.0091,0.1729,0.0037,0.0005,0.0021,-28.38,-32.7,-9.9,,adl
1.685808,0.0182,-0.0091,0.1729,0.0011,-0.0005,0.0037,-28.38,-32.7,-9.9,,adl
1.70715,0.0182,-0.0091,0.1729,0.0011,-0.0005,0.0037,-28.2,-32.46,-10.14,,adl
1.708175,0.0182,-0.0091,0.1729,-0.0016,0.0,0.0021,-28.2,-32.46,-10.14,,adl
1.72417,0.0182,-0.0091,0.1729,-0.0016,0.0,0.0021,-28.2,-32.46,-10.14,,adl
1.725397,0.031,0.0115,0.156,-0.0016,0.0,0.0021,-28.2,-32.46,-10.14,,adl
1.726907,0.031,0.0115,0.156,-0.0032,0.0,0.0,-28.2,-32.46,-10.14,,adl
1.747405,0.031,0.0115,0.156,-0.0021,0.0016,-0.0032,-28.2,-32.46,-10.14,,adl
1.768812,0.031,0.0115,0.156,-0.0021,0.0016,-0.0032,-28.08,-32.34,-10.68,,adl
1.769822,0.031,0.0115,0.156,0.0021,-0.0005,-0.0059,-28.08,-32.34,-10.68,,adl
1.784517,0.031,0.0115,0.156,0.0021,-0.0005,-0.0059,-28.08,-32.34,-10.68,,adl
1.78564,-0.0147,0.0357,0.1416,0.0021,-0.0005,-0.0059,-28.08,-32.34,-10.68,,adl
1.788214,-0.0147,0.0357,0.1416,0.0032,0.0,-0.0048,-28.08,-32.34,-10.68,,adl
1.808985,-0.0147,0.0357,0.1416,-0.0016,0.0032,-0.0005,-28.08,-32.34,-10.68,,adl
1.829996,-0.0147,0.0357,0.1416,-0.0016,0.0032,-0.0005,-28.08,-32.34,-10.8,,adl
1.830925,-0.0147,0.0357,0.1416,-0.008,0.0091,-0.0016,-28.08,-32.34,-10.8,,adl
1.846406,-0.0147,0.0357,0.1416,-0.008,0.0091,-0.0016,-28.08,-32.34,-10.8,,adl
1.847385,-0.0291,-0.0321,0.2112,-0.008,0.0091,-0.0016,-28.08,-32.34,-10.8,,adl
1.850269,-0.0291,-0.0321,0.2112,-0.0107,-0.0043,0.0,-28.08,-32.34,-10.8,,adl
1.870484,-0.0291,-0.0321,0.2112,0.0053,-0.0085,-0.0011,-28.08,-32.34,-10.8,,adl
1.891864,-0.0291,-0.0321,0.2112,0.0053,-0.0085,-0.0011,-27.96,-32.58,-10.44,,adl
1.892973,-0.0291,-0.0321,0.2112,0.0075,0.0048,0.0,-27.96,-32.58,-10.44,,adl
1.907489,-0.0291,-0.0321,0.2112,0.0075,0.0048,0.0,-27.96,-32.58,-10.44,,adl
1.908668,-0.0116,0.0599,0.1225,0.0075,0.0048,0.0,-27.96,-32.58,-10.44,,adl
1.911843,-0.0116,0.0599,0.1225,-0.0027,0.0096,0.0016,-27.96,-32.58,-10.44,,adl
1.932132,-0.0116,0.0599,0.1225,-0.0091,0.0005,0.0,-27.96,-32.58,-10.44,,adl
1.953412,-0.0116,0.0599,0.1225,-0.0091,0.0005,0.0,-28.26,-32.52,-10.14,,adl
1.954503,-0.0116,0.0599,0.1225,-0.0021,0.0011,-0.0048,-28.26,-32.52,-10.14,,adl
1.969425,-0.0116,0.0599,0.1225,-0.0021,0.0011,-0.0048,-28.26,-32.52,-10.14,,adl
1.970356,-0.0069,-0.0139,0.1537,-0.0021,0.0011,-0.0048,-28.26,-32.52,-10.14,,adl
1.974088,-0.0069,-0.0139,0.1537,0.0032,0.0011,-0.0037,-28.26,-32.52,-10.14,,adl
1.994397,-0.0069,-0.0139,0.1537,-0.0016,-0.0032,-0.0011,-28.26,-32.52,-10.14,,adl
2.015478,-0.0069,-0.0139,0.1537,-0.0016,-0.0032,-0.0011,-28.14,-32.7,-10.62,,adl
2.016348,-0.0069,-0.0139,0.1537,-0.0101,0.0016,0.0005,-28.14,-32.7,-10.62,,adl
2.030004,-0.0069,-0.0139,0.1537,-0.0101,0.0016,0.0005,-28.14,-32.7,-10.62,,adl
2.030805,-0.0049,-0.0166,0.2135,-0.0101,0.0016,0.0005,-28.14,-32.7,-10.62,,adl
2.033968,-0.0049,-0.0166,0.2135,-0.0048,0.0059,0.0021,-28.14,-32.7,-10.62,,adl
2.055165,-0.0049,-0.0166,0.2135,0.008,0.0,0.0,-28.14,-32.7,-10.62,,adl
2.076191,-0.0049,-0.0166,0.2135,0.008,0.0,0.0,-27.9,-32.76,-10.32,,adl
2.077346,-0.0049,-0.0166,0.2135,0.0117,-0.0048,-0.0032,-27.9,-32.76,-10.32,,adl
2.092051,-0.0049,-0.0166,0.2135,0.0117,-0.0048,-0.0032,-27.9,-32.76,-10.32,,adl
2.093223,0.0069,0.0399,0.0915,0.0117,-0.0048,-0.0032,-27.9,-32.76,-10.32,,adl
2.096153,0.0069,0.0399,0.0915,0.0032,0.0021,-0.0016,-27.9,-32.76,-10.32,,adl
2.116673,0.0069,0.0399,0.0915,-0.0085,0.0059,-0.0016,-27.9,-32.76,-10.32,,adl
2.137491,0.0069,0.0399,0.0915,-0.0085,0.0059,-0.0016,-28.14,-32.88,-10.56,,adl
2.138423,0.0069,0.0399,0.0915,-0.0091,0.0016,-0.0032,-28.14,-32.88,-10.56,,adl
2.15434,0.0069,0.0399,0.0915,-0.0091,0.0016,-0.0032,-28.14,-32.88,-10.56,,adl
2.155318,-0.0294,-0.0002,0.2209,-0.0091,0.0016,-0.0032,-28.14,-32.88,-10.56,,adl
2.158153,-0.0294,-0.0002,0.2209,0.0,-0.0016,-0.0021,-28.14,-32.88,-10.56,,adl
2.178043,-0.0294,-0.0002,0.2209,0.0048,0.0011,-0.0016,-28.14,-32.88,-10.56,,adl
2.199338,-0.0294,-0.0002,0.2209,0.0048,0.0011,-0.0016,-28.26,-33.18,-10.38,,adl
2.20035,-0.0294,-0.0002,0.2209,0.0011,0.0016,0.0011,-28.26,-33.18,-10.38,,adl
2.215989,-0.0294,-0.0002,0.2209,0.0011,0.0016,0.0011,-28.26,-33.18,-10.38,,adl
2.217234,-0.0148,0.0179,0.1443,0.0011,0.0016,0.0011,-28.26,-33.18,-10.38,,adl
2.218879,-0.0148,0.0179,0.1443,-0.0016,0.0021,0.0011,-28.26,-33.18,-10.38,,adl
2.240359,-0.0148,0.0179,0.1443,-0.0027,0.0027,0.0011,-28.26,-33.18,-10.38,,adl
2.260955,-0.0148,0.0179,0.1443,-0.0027,0.0027,0.0011,-28.44,-32.94,-9.84,,adl
2.261992,-0.0148,0.0179,0.1443,0.0,0.0005,0.0,-28.44,-32.94,-9.84,,adl
2.276929,-0.0148,0.0179,0.1443,0.0,0.0005,0.0,-28.44,-32.94,-9.84,,adl
2.277993,0.0121,0.016,0.1539,0.0,0.0005,0.0,-28.44,-32.94,-9.84,,adl
2.28059,0.0121,0.016,0.1539,0.0016,-0.0011,-0.0005,-28.44,-32.94,-9.84,,adl
2.301827,0.0121,0.016,0.1539,-0.0005,-0.0016,-0.0021,-28.44,-32.94,-9.84,,adl
2.322951,0.0121,0.016,0.1539,-0.0027,0.0,-0.0005,-28.44,-32.94,-9.84,,adl
2.323853,0.0121,0.016,0.1539,-0.0027,0.0,-0.0005,-28.86,-33.06,-9.6,,adl
2.338466,0.0121,0.016,0.1539,-0.0027,0.0,-0.0005,-28.86,-33.06,-9.6,,adl
2.339413,-0.0245,0.0326,0.1635,-0.0027,0.0,-0.0005,-28.86,-33.06,-9.6,,adl
2.342623,-0.0245,0.0326,0.1635,-0.0021,0.0043,0.0005,-28.86,-33.06,-9.6,,adl
2.36297,-0.0245,0.0326,0.1635,0.0011,0.0053,0.0021,-28.86,-33.06,-9.6,,adl
2.383824,-0.0245,0.0326,0.1635,0.0011,0.0053,0.0021,-28.62,-32.94,-9.6,,adl
2.385042,-0.0245,0.0326,0.1635,-0.0032,0.0048,0.0027,-28.62,-32.94,-9.6,,adl
2.400331,-0.0245,0.0326,0.1635,-0.0032,0.0048,0.0027,-28.62,-32.94,-9.6,,adl
2.401461,0.0091,-0.0074,0.1541,-0.0032,0.0048,0.0027,-28.62,-32.94,-9.6,,adl
2.404163,0.0091,-0.0074,0.1541,-0.0069,0.0021,0.0048,-28.62,-32.94,-9.6,,adl
2.424156,0.0091,-0.0074,0.1541,-0.0037,-0.0005,0.0037,-28.62,-32.94,-9.6,,adl
2.445842,0.0091,-0.0074,0.1541,-0.0037,-0.0005,0.0037,-28.62,-32.88,-9.84,,adl
2.446827,0.0091,-0.0074,0.1541,0.0005,0.0032,-0.0005,-28.62,-32.88,-9.84,,adl
2.46257,0.0091,-0.0074,0.1541,0.0005,0.0032,-0.0005,-28.62,-32.88,-9.84,,adl
2.463584,0.0453,0.0247,0.1826,0.0005,0.0032,-0.0005,-28.62,-32.88,-9.84,,adl
2.466189,0.0453,0.0247,0.1826,0.0048,-0.0021,-0.0032,-28.62,-32.88,-9.84,,adl
2.48612,0.0453,0.0247,0.1826,0.008,-0.0069,-0.0048,-28.62,-32.88,-9.84,,adl
2.506775,0.0453,0.0247,0.1826,0.008,-0.0069,-0.0048,-28.56,-33.06,-9.78,,adl
2.507797,0.0453,0.0247,0.1826,0.0032,-0.0005,-0.0037,-28.56,-33.06,-9.78,,adl
2.523417,0.0453,0.0247,0.1826,0.0032,-0.0005,-0.0037,-28.56,-33.06,-9.78,,adl
2.524447,-0.0617,0.0168,0.1011,0.0032,-0.0005,-0.0037,-28.56,-33.06,-9.78,,adl
2.527333,-0.0617,0.0168,0.1011,-0.0048,0.0043,-0.0027,-28.56,-33.06,-9.78,,adl
2.547336,-0.0617,0.0168,0.1011,-0.0053,0.0053,0.0021,-28.56,-33.06,-9.78,,adl
2.568702,-0.0617,0.0168,0.1011,-0.0053,0.0053,0.0021,-28.56,-32.94,-10.14,,adl
2.569738,-0.0617,0.0168,0.1011,-0.0021,0.0,0.0075,-28.56,-32.94,-10.14,,adl
2.584427,-0.0617,0.0168,0.1011,-0.0021,0.0,0.0075,-28.56,-32.94,-10.14,,adl
2.585562,0.0023,0.0165,0.1922,-0.0021,0.0,0.0075,-28.56,-32.94,-10.14,,adl
2.588847,0.0023,0.0165,0.1922,0.0027,-0.0059,0.0096,-28.56,-32.94,-10.14,,adl
2.608749,0.0023,0.0165,0.1922,0.0069,-0.0032,0.0091,-28.56,-32.94,-10.14,,adl
2.63028,0.0023,0.0165,0.1922,0.0069,-0.0032,0.0091,-28.86,-32.94,-10.62,,adl
2.631299,0.0023,0.0165,0.1922,0.0053,-0.0016,0.0059,-28.86,-32.94,-10.62,,adl
2.646337,0.0023,0.0165,0.1922,0.0053,-0.0016,0.0059,-28.86,-32.94,-10.62,,adl
2.647416,0.0429,0.0561,0.1249,0.0053,-0.0016,0.0059,-28.86,-32.94,-10.62,,adl
2.650098,0.0429,0.0561,0.1249,0.0069,-0.0016,-0.0011,-28.86,-32.94,-10.62,,adl
2.670555,0.0429,0.0561,0.1249,0.0011,0.0,-0.0059,-28.86,-32.94,-10.62,,adl
2.691398,0.0429,0.0561,0.1249,0.0011,0.0,-0.0059,-29.16,-33.06,-10.68,,adl
2.692428,0.0429,0.0561,0.1249,-0.0037,0.0069,-0.0069,-29.16,-33.06,-10.68,,adl
2.707624,0.0429,0.0561,0.1249,-0.0037,0.0069,-0.0069,-29.16,-33.06,-10.68,,adl
2.708761,-0.0374,0.0002,0.1633,-0.0037,0.0069,-0.0069,-29.16,-33.06,-10.68,,adl
2.711692,-0.0374,0.0002,0.1633,-0.0165,0.0037,-0.0043,-29.16,-33.06,-10.68,,adl
2.732188,-0.0374,0.0002,0.1633,-0.0107,-0.0091,-0.0005,-29.16,-33.06,-10.68,,adl
2.753003,-0.0374,0.0002,0.1633,-0.0107,-0.0091,-0.0005,-29.16,-32.94,-10.68,,adl
2.753895,-0.0374,0.0002,0.1633,0.0053,-0.0027,0.0037,-29.16,-32.94,-10.68,,adl
2.76982,-0.0374,0.0002,0.1633,0.0053,-0.0027,0.0037,-29.16,-32.94,-10.68,,adl
2.771733,-0.027,-0.0002,0.1702,0.0053,-0.0027,0.0037,-29.16,-32.94,-10.68,,adl
2.775542,-0.027,-0.0002,0.1702,0.0149,0.0048,0.0069,-29.16,-32.94,-10.68,,adl
2.793442,-0.027,-0.0002,0.1702,0.0064,0.0016,0.0069,-29.16,-32.94,-10.68,,adl
2.815004,-0.027,-0.0002,0.1702,0.0064,0.0016,0.0069,-28.98,-33.0,-10.74,,adl
2.815984,-0.027,-0.0002,0.1702,-0.0027,-0.0053,0.0016,-28.98,-33.0,-10.74,,adl
2.830958,-0.027,-0.0002,0.1702,-0.0027,-0.0053,0.0016,-28.98,-33.0,-10.74,,adl
2.83198,0.0182,0.0077,0.1416,-0.0027,-0.0053,0.0016,-28.98,-33.0,-10.74,,adl
2.834699,0.0182,0.0077,0.1416,-0.0027,-0.0027,-0.0005,-28.98,-33.0,-10.74,,adl
2.854985,0.0182,0.0077,0.1416,0.0027,0.0,-0.0011,-28.98,-33.0,-10.74,,adl
2.876376,0.0182,0.0077,0.1416,0.0027,0.0,-0.0011,-28.98,-33.0,-10.44,,adl
2.877529,0.0182,0.0077,0.1416,0.0021,0.0005,-0.0005,-28.98,-33.0,-10.44,,adl
2.892485,0.0182,0.0077,0.1416,0.0021,0.0005,-0.0005,-28.98,-33.0,-10.44,,adl
2.893615,-0.0113,0.0425,0.1535,0.0021,0.0005,-0.0005,-28.98,-33.0,-10.44,,adl
2.895955,-0.0113,0.0425,0.1535,-0.0037,0.0016,0.0005,-28.98,-33.0,-10.44,,adl
2.916461,-0.0113,0.0425,0.1535,-0.0005,-0.0016,0.0011,-28.98,-33.0,-10.44,,adl
2.93801,-0.0113,0.0425,0.1535,-0.0005,-0.0016,0.0011,-28.68,-32.76,-10.98,,adl
2.939041,-0.0113,0.0425,0.1535,0.0091,-0.0027,0.0021,-28.68,-32.76,-10.98,,adl
2.953974,-0.0113,0.0425,0.1535,0.0091,-0.0027,0.0021,-28.68,-32.76,-10.98,,adl
2.954986,0.0093,-0.0041,0.1223,0.0091,-0.0027,0.0021,-28.68,-32.76,-10.98,,adl
2.957886,0.0093,-0.0041,0.1223,0.0064,0.0,0.0011,-28.68,-32.76,-10.98,,adl
2.978625,0.0093,-0.0041,0.1223,-0.0027,0.0005,0.0037,-28.68,-32.76,-10.98,,adl
2.999382,0.0093,-0.0041,0.1223,-0.0027,0.0005,0.0037,-28.74,-32.76,-11.1,,adl
3.000336,0.0093,-0.0041,0.1223,-0.0059,0.0,0.0011,-28.74,-32.76,-11.1,,adl
3.015081,0.0093,-0.0041,0.1223,-0.0059,0.0,0.0011,-28.74,-32.76,-11.1,,adl
3.016027,0.0016,0.0221,0.175,-0.0059,0.0,0.0011,-28.74,-32.76,-11.1,,adl
3.01915,0.0016,0.0221,0.175,0.0016,-0.0005,-0.0005,-28.74,-32.76,-11.1,,adl
3.040509,0.0016,0.0221,0.175,0.0043,0.0,-0.0016,-28.74,-32.76,-11.1,,adl
3.061058,0.0016,0.0221,0.175,0.0043,0.0,-0.0016,-28.92,-32.52,-11.28,,adl
3.062347,0.0016,0.0221,0.175,0.0021,-0.0005,-0.0037,-28.92,-32.52,-11.28,,adl
3.076853,0.0016,0.0221,0.175,0.0021,-0.0005,-0.0037,-28.92,-32.52,-11.28,,adl
3.077892,-0.0084,0.0203,0.1223,0.0021,-0.0005,-0.0037,-28.92,-32.52,-11.28,,adl
3.082747,-0.0084,0.0203,0.1223,-0.0021,0.0027,-0.0037,-28.92,-32.52,-11.28,,adl
3.101704,-0.0084,0.0203,0.1223,-0.0011,0.0021,-0.0005,-28.92,-32.52,-11.28,,adl
3.122386,-0.0084,0.0203,0.1223,-0.0011,0.0021,-0.0005,-28.92,-32.52,-10.62,,adl
3.12336,-0.0084,0.0203,0.1223,-0.0016,-0.0016,0.0,-28.92,-32.52,-10.62,,adl
3.138202,-0.0084,0.0203,0.1223,-0.0016,-0.0016,0.0,-28.92,-32.52,-10.62,,adl
3.139135,-0.0127,0.021,0.1606,-0.0016,-0.0016,0.0,-28.92,-32.52,-10.62,,adl
3.142077,-0.0127,0.021,0.1606,-0.0016,-0.0032,0.0,-28.92,-32.52,-10.62,,adl
3.162823,-0.0127,0.021,0.1606,-0.0005,0.0032,0.0016,-28.92,-32.52,-10.62,,adl
3.183781,-0.0127,0.021,0.1606,-0.0005,0.0032,0.0016,-28.86,-32.58,-10.08,,adl
3.184976,-0.0127,0.021,0.1606,0.0005,0.0043,0.0005,-28.86,-32.58,-10.08,,adl
3.201376,-0.0127,0.021,0.1606,0.0005,0.0043,0.0005,-28.86,-32.58,-10.08,,adl
3.202283,0.0091,0.009,0.1726,0.0005,0.0043,0.0005,-28.86,-32.58,-10.08,,adl
3.203514,0.0091,0.009,0.1726,0.0032,0.0027,0.0011,-28.86,-32.58,-10.08,,adl
3.224154,0.0091,0.009,0.1726,0.0037,0.0,-0.0005,-28.86,-32.58,-10.08,,adl
3.246054,0.0091,0.009,0.1726,0.0037,0.0,-0.0005,-29.04,-32.46,-10.08,,adl
3.247054,0.0091,0.009,0.1726,-0.0011,-0.0005,0.0,-29.04,-32.46,-10.08,,adl
3.26165,0.0091,0.009,0.1726,-0.0011,-0.0005,0.0,-29.04,-32.46,-10.08,,adl
3.262522,-0.0099,0.0172,0.1464,-0.0011,-0.0005,0.0,-29.04,-32.46,-10.08,,adl
3.265722,-0.0099,0.0172,0.1464,-0.0048,0.0005,-0.0011,-29.04,-32.46,-10.08,,adl
3.286399,-0.0099,0.0172,0.1464,0.0005,0.0021,0.0,-29.04,-32.46,-10.08,,adl
3.307108,-0.0099,0.0172,0.1464,0.0005,0.0021,0.0,-28.92,-32.76,-9.9,,adl
3.308782,-0.0099,0.0172,0.1464,-0.0005,0.0016,-0.0021,-28.92,-32.76,-9.9,,adl
3.323286,-0.0099,0.0172,0.1464,-0.0005,0.0016,-0.0021,-28.92,-32.76,-9.9,,adl
3.324798,-0.0115,0.011,0.1656,-0.0005,0.0016,-0.0021,-28.92,-32.76,-9.9,,adl
3.326865,-0.0115,0.011,0.1656,0.0027,-0.0016,0.0005,-28.92,-32.76,-9.9,,adl
3.34834,-0.0115,0.011,0.1656,-0.0011,-0.0011,0.0005,-28.92,-32.76,-9.9,,adl
3.368771,-0.0115,0.011,0.1656,-0.0011,-0.0011,0.0005,-28.86,-33.0,-10.44,,adl
3.370258,-0.0115,0.011,0.1656,-0.0011,0.0059,-0.0011,-28.86,-33.0,-10.44,,adl
3.384966,-0.0115,0.011,0.1656,-0.0011,0.0059,-0.0011,-28.86,-33.0,-10.44,,adl
3.386428,-0.0038,0.0061,0.1489,-0.0011,0.0059,-0.0011,-28.86,-33.0,-10.44,,adl
3.388997,-0.0038,0.0061,0.1489,0.0,0.0059,0.0,-28.86,-33.0,-10.44,,adl
3.410291,-0.0038,0.0061,0.1489,-0.0005,-0.0011,-0.0005,-28.86,-33.0,-10.44,,adl
3.431078,-0.0038,0.0061,0.1489,-0.0005,-0.0011,-0.0005,-28.56,-33.0,-10.26,,adl
3.432751,-0.0038,0.0061,0.1489,0.0005,-0.0021,0.0005,-28.56,-33.0,-10.26,,adl
3.447095,-0.0038,0.0061,0.1489,0.0005,-0.0021,0.0005,-28.56,-33.0,-10.26,,adl
3.448644,-0.0035,0.0226,0.1441,0.0005,-0.0021,0.0005,-28.56,-33.0,-10.26,,adl
3.450052,-0.0035,0.0226,0.1441,-0.0011,0.0021,0.0,-28.56,-33.0,-10.26,,adl
3.470504,-0.0035,0.0226,0.1441,0.0,0.0027,-0.0011,-28.56,-33.0,-10.26,,adl
3.492961,-0.0035,0.0226,0.1441,0.0,0.0027,-0.0011,-28.14,-33.0,-9.6,,adl
3.494619,-0.0035,0.0226,0.1441,0.0,0.0021,-0.0011,-28.14,-33.0,-9.6,,adl
3.509495,-0.0035,0.0226,0.1441,0.0,0.0021,-0.0011,-28.14,-33.0,-9.6,,adl
3.511115,-0.0,0.0083,0.1394,0.0,0.0021,-0.0011,-28.14,-33.0,-9.6,,adl
3.512459,-0.0,0.0083,0.1394,-0.0016,0.0043,-0.0027,-28.14,-33.0,-9.6,,adl
3.532244,-0.0,0.0083,0.1394,0.0,0.0,-0.0027,-28.14,-33.0,-9.6,,adl
3.554018,-0.0,0.0083,0.1394,0.0,0.0,-0.0027,-28.26,-32.58,-9.3,,adl
3.555468,-0.0,0.0083,0.1394,-0.0011,-0.0021,-0.0021,-28.26,-32.58,-9.3,,adl
3.570204,-0.0,0.0083,0.1394,-0.0011,-0.0021,-0.0021,-28.26,-32.58,-9.3,,adl
3.571708,0.0001,0.0229,0.1275,-0.0011,-0.0021,-0.0021,-28.26,-32.58,-9.3,,adl
3.575579,0.0001,0.0229,0.1275,-0.0043,0.0053,-0.0016,-28.26,-32.58,-9.3,,adl
3.594824,0.0001,0.0229,0.1275,-0.0101,0.0085,-0.0011,-28.26,-32.58,-9.3,,adl
3.615811,0.0001,0.0229,0.1275,-0.0101,0.0085,-0.0011,-28.14,-32.64,-9.42,,adl
3.617632,0.0001,0.0229,0.1275,-0.0144,-0.0037,0.0,-28.14,-32.64,-9.42,,adl
3.632627,0.0001,0.0229,0.1275,-0.0144,-0.0037,0.0,-28.14,-32.64,-9.42,,adl
3.634099,-0.0173,-0.0332,0.1993,-0.0144,-0.0037,0.0,-28.14,-32.64,-9.42,,adl
3.634922,-0.0173,-0.0332,0.1993,0.0032,-0.0075,-0.0016,-28.14,-32.64,-9.42,,adl
3.655364,-0.0173,-0.0332,0.1993,0.0112,0.0043,0.0,-28.14,-32.64,-9.42,,adl
3.677398,-0.0173,-0.0332,0.1993,0.0112,0.0043,0.0,-28.32,-32.7,-9.72,,adl
3.679161,-0.0173,-0.0332,0.1993,0.0043,0.0085,0.0005,-28.32,-32.7,-9.72,,adl
3.693375,-0.0173,-0.0332,0.1993,0.0043,0.0085,0.0005,-28.32,-32.7,-9.72,,adl
3.694932,0.009,0.083,0.1348,0.0043,0.0085,0.0005,-28.32,-32.7,-9.72,,adl
3.696125,0.009,0.083,0.1348,-0.0091,0.0,-0.0005,-28.32,-32.7,-9.72,,adl
3.71747,0.009,0.083,0.1348,-0.0101,-0.0048,-0.0016,-28.32,-32.7,-9.72,,adl
3.738883,0.009,0.083,0.1348,-0.0037,0.0027,-0.0037,-28.32,-32.7,-9.72,,adl
3.740725,0.009,0.083,0.1348,-0.0037,0.0027,-0.0037,-28.14,-32.52,-10.32,,adl
3.755246,0.009,0.083,0.1348,-0.0037,0.0027,-0.0037,-28.14,-32.52,-10.32,,adl
3.757029,-0.0131,0.0011,0.1346,-0.0037,0.0027,-0.0037,-28.14,-32.52,-10.32,,adl
3.758376,-0.0131,0.0011,0.1346,-0.0021,0.0037,-0.0032,-28.14,-32.52,-10.32,,adl
3.778516,-0.0131,0.0011,0.1346,-0.0069,0.0016,-0.0016,-28.14,-32.52,-10.32,,adl
3.799616,-0.0131,0.0011,0.1346,-0.0069,0.0016,-0.0016,-28.26,-32.34,-10.62,,adl
3.800266,-0.0131,0.0011,0.1346,-0.0048,0.0037,0.0011,-28.26,-32.34,-10.62,,adl
3.816817,-0.0131,0.0011,0.1346,-0.0048,0.0037,0.0011,-28.26,-32.34,-10.62,,adl
3.818421,0.0027,0.0061,0.1969,-0.0048,0.0037,0.0011,-28.26,-32.34,-10.62,,adl
3.819494,0.0027,0.0061,0.1969,0.0027,-0.0005,0.0011,-28.26,-32.34,-10.62,,adl
3.840472,0.0027,0.0061,0.1969,0.0091,-0.0021,0.0,-28.26,-32.34,-10.62,,adl
3.862079,0.0027,0.0061,0.1969,0.0091,-0.0021,0.0,-27.96,-31.86,-11.16,,adl
3.86367,0.0027,0.0061,0.1969,0.0032,0.0064,-0.0021,-27.96,-31.86,-11.16,,adl
3.877254,0.0027,0.0061,0.1969,0.0032,0.0064,-0.0021,-27.96,-31.86,-11.16,,adl
3.878704,0.0168,0.0241,0.1108,0.0032,0.0064,-0.0021,-27.96,-31.86,-11.16,,adl
3.881358,0.0168,0.0241,0.1108,-0.0069,0.0048,-0.0027,-27.96,-31.86,-11.16,,adl
3.902236,0.0168,0.0241,0.1108,-0.0069,-0.0059,-0.0037,-27.96,-31.86,-11.16,,adl
3.923569,0.0168,0.0241,0.1108,-0.0069,-0.0059,-0.0037,-28.02,-32.1,-11.58,,adl
3.925498,0.0168,0.0241,0.1108,0.0016,-0.0027,-0.0027,-28.02,-32.1,-11.58,,adl
3.939095,0.0168,0.0241,0.1108,0.0016,-0.0027,-0.0027,-28.02,-32.1,-11.58,,adl
3.940893,-0.0366,0.0309,0.1657,0.0016,-0.0027,-0.0027,-28.02,-32.1,-11.58,,adl
3.942519,-0.0366,0.0309,0.1657,0.0043,0.0059,-0.0016,-28.02,-32.1,-11.58,,adl
3.963109,-0.0366,0.0309,0.1657,-0.0011,0.0059,0.0005,-28.02,-32.1,-11.58,,adl
3.985111,-0.0366,0.0309,0.1657,-0.0011,0.0059,0.0005,-28.26,-32.16,-11.7,,adl
3.986698,-0.0366,0.0309,0.1657,-0.0059,0.0016,0.0005,-28.26,-32.16,-11.7,,adl
4.000454,-0.0366,0.0309,0.1657,-0.0059,0.0016,0.0005,-28.26,-32.16,-11.7,,adl
4.002094,0.0157,0.0141,0.1588,-0.0059,0.0016,0.0005,-28.26,-32.16,-11.7,,adl
4.004504,0.0157,0.0141,0.1588,-0.0021,0.0016,0.0011,-28.26,-32.16,-11.7,,adl
4.029019,0.0157,0.0141,0.1588,-0.0005,0.0027,-0.0016,-28.26,-32.16,-11.7,,adl
4.046762,0.0157,0.0141,0.1588,-0.0005,0.0027,-0.0016,-28.32,-32.82,-11.64,,adl
4.048319,0.0157,0.0141,0.1588,-0.0032,0.0016,-0.0011,-28.32,-32.82,-11.64,,adl
4.061918,0.0157,0.0141,0.1588,-0.0032,0.0016,-0.0011,-28.32,-32.82,-11.64,,adl
4.063391,0.0134,0.0148,0.154,-0.0032,0.0016,-0.0011,-28.32,-32.82,-11.64,,adl
4.066775,0.0134,0.0148,0.154,-0.0021,-0.0027,-0.0011,-28.32,-32.82,-11.64,,adl
4.085857,0.0134,0.0148,0.154,0.0005,0.0027,-0.0027,-28.32,-32.82,-11.64,,adl
4.108071,0.0134,0.0148,0.154,0.0005,0.0027,-0.0027,-28.62,-33.06,-11.16,,adl
4.109783,0.0134,0.0148,0.154,0.0021,0.0053,-0.0032,-28.62,-33.06,-11.16,,adl
4.123116,0.0134,0.0148,0.154,0.0021,0.0053,-0.0032,-28.62,-33.06,-11.16,,adl
4.124729,-0.0054,0.0285,0.1588,0.0021,0.0053,-0.0032,-28.62,-33.06,-11.16,,adl
4.127142,-0.0054,0.0285,0.1588,0.0011,0.0021,-0.0021,-28.62,-33.06,-11.16,,adl
4.148346,-0.0054,0.0285,0.1588,-0.0027,-0.0027,-0.0005,-28.62,-33.06,-11.16,,adl
4.168916,-0.0054,0.0285,0.1588,-0.0027,-0.0027,-0.0005,-28.56,-32.82,-10.26,,adl
4.170444,-0.0054,0.0285,0.1588,-0.0059,-0.0016,0.0,-28.56,-32.82,-10.26,,adl
4.185257,-0.0054,0.0285,0.1588,-0.0059,-0.0016,0.0,-28.56,-32.82,-10.26,,adl
4.186756,-0.0109,0.0199,0.1515,-0.0059,-0.0016,0.0,-28.56,-32.82,-10.26,,adl
4.189371,-0.0109,0.0199,0.1515,-0.0011,0.0059,-0.0016,-28.56,-32.82,-10.26,,adl
4.210086,-0.0109,0.0199,0.1515,0.0005,0.0075,-0.0037,-28.56,-32.82,-10.26,,adl
4.231395,-0.0109,0.0199,0.1515,0.0005,0.0075,-0.0037,-28.44,-32.64,-9.9,,adl
4.233226,-0.0109,0.0199,0.1515,-0.0032,-0.0011,-0.0032,-28.44,-32.64,-9.9,,adl
4.246842,-0.0109,0.0199,0.1515,-0.0032,-0.0011,-0.0032,-28.44,-32.64,-9.9,,adl
4.248146,-0.011,0.0204,0.123,-0.0032,-0.0011,-0.0032,-28.44,-32.64,-9.9,,adl
4.250731,-0.011,0.0204,0.123,-0.0075,-0.0037,-0.0011,-28.44,-32.64,-9.9,,adl
4.271813,-0.011,0.0204,0.123,-0.0085,0.0016,-0.0011,-28.44,-32.64,-9.9,,adl
4.293039,-0.011,0.0204,0.123,-0.0085,0.0016,-0.0011,-28.2,-32.22,-10.08,,adl
4.294592,-0.011,0.0204,0.123,-0.0005,0.0053,-0.0005,-28.2,-32.22,-10.08,,adl
4.309018,-0.011,0.0204,0.123,-0.0005,0.0053,-0.0005,-28.2,-32.22,-10.08,,adl
4.310654,0.0083,0.0067,0.1684,-0.0005,0.0053,-0.0005,-28.2,-32.22,-10.08,,adl
4.311579,0.0083,0.0067,0.1684,0.0016,0.0064,-0.0011,-28.2,-32.22,-10.08,,adl
4.333171,0.0083,0.0067,0.1684,0.0,-0.0005,-0.0016,-28.2,-32.22,-10.08,,adl
4.353944,0.0083,0.0067,0.1684,0.0,-0.0005,-0.0016,-28.2,-32.04,-9.96,,adl
4.355313,0.0083,0.0067,0.1684,0.0,-0.0011,-0.0027,-28.2,-32.04,-9.96,,adl
4.370203,0.0083,0.0067,0.1684,0.0,-0.0011,-0.0027,-28.2,-32.04,-9.96,,adl
4.371705,0.015,0.0455,0.1349,0.0,-0.0011,-0.0027,-28.2,-32.04,-9.96,,adl
4.373318,0.015,0.0455,0.1349,-0.0032,0.0037,-0.0027,-28.2,-32.04,-9.96,,adl
4.394588,0.015,0.0455,0.1349,-0.0048,0.008,-0.0043,-28.2,-32.04,-9.96,,adl
4.415768,0.015,0.0455,0.1349,-0.0048,0.008,-0.0043,-28.26,-31.92,-10.44,,adl
4.417587,0.015,0.0455,0.1349,-0.0107,0.0075,-0.0032,-28.26,-31.92,-10.44,,adl
4.431633,0.015,0.0455,0.1349,-0.0107,0.0075,-0.0032,-28.26,-31.92,-10.44,,adl
4.433401,-0.0127,-0.0199,0.1974,-0.0107,0.0075,-0.0032,-28.26,-31.92,-10.44,,adl
4.434516,-0.0127,-0.0199,0.1974,-0.0091,-0.0037,0.0005,-28.26,-31.92,-10.44,,adl
4.455508,-0.0127,-0.0199,0.1974,0.0005,-0.0149,0.0005,-28.26,-31.92,-10.44,,adl
4.477094,-0.0127,-0.0199,0.1974,0.0005,-0.0149,0.0005,-28.5,-32.28,-10.56,,adl
4.47877,-0.0127,-0.0199,0.1974,0.0117,0.0043,0.0016,-28.5,-32.28,-10.56,,adl
4.492739,-0.0127,-0.0199,0.1974,0.0117,0.0043,0.0016,-28.5,-32.28,-10.56,,adl
4.494125,0.0049,0.0682,0.1348,0.0117,0.0043,0.0016,-28.5,-32.28,-10.56,,adl
4.496966,0.0049,0.0682,0.1348,0.0037,0.0144,0.0021,-28.5,-32.28,-10.56,,adl
4.517319,0.0049,0.0682,0.1348,-0.0069,0.0005,0.0005,-28.5,-32.28,-10.56,,adl
4.539166,0.0049,0.0682,0.1348,-0.0069,0.0005,0.0005,-28.56,-32.46,-10.14,,adl
4.541367,0.0049,0.0682,0.1348,-0.0075,-0.0043,-0.0043,-28.56,-32.46,-10.14,,adl
4.554363,0.0049,0.0682,0.1348,-0.0075,-0.0043,-0.0043,-28.56,-32.46,-10.14,,adl
4.555393,0.0084,0.0096,0.1636,-0.0075,-0.0043,-0.0043,-28.56,-32.46,-10.14,,adl
4.559592,0.0084,0.0096,0.1636,-0.0032,0.0005,-0.0048,-28.56,-32.46,-10.14,,adl
4.578436,0.0084,0.0096,0.1636,-0.0021,-0.0016,-0.0043,-28.56,-32.46,-10.14,,adl
4.600672,0.0084,0.0096,0.1636,-0.0021,-0.0016,-0.0043,-28.74,-32.28,-10.02,,adl
4.602231,0.0084,0.0096,0.1636,-0.0037,0.0048,0.0011,-28.74,-32.28,-10.02,,adl
4.616336,0.0084,0.0096,0.1636,-0.0037,0.0048,0.0011,-28.74,-32.28,-10.02,,adl
4.618063,-0.0126,-0.0005,0.1588,-0.0037,0.0048,0.0011,-28.74,-32.28,-10.02,,adl
4.619287,-0.0126,-0.0005,0.1588,-0.0037,0.0085,0.0021,-28.74,-32.28,-10.02,,adl
4.64158,-0.0126,-0.0005,0.1588,-0.0011,0.0,0.0,-28.74,-32.28,-10.02,,adl
4.661407,-0.0126,-0.0005,0.1588,-0.0011,0.0,0.0,-28.74,-32.34,-9.84,,adl
4.662833,-0.0126,-0.0005,0.1588,0.0048,-0.0059,-0.0016,-28.74,-32.34,-9.84,,adl
4.67687,-0.0126,-0.0005,0.1588,0.0048,-0.0059,-0.0016,-28.74,-32.34,-9.84,,adl
4.678262,0.0204,0.0252,0.1109,0.0048,-0.0059,-0.0016,-28.74,-32.34,-9.84,,adl
4.680948,0.0204,0.0252,0.1109,0.0021,0.0032,-0.0043,-28.74,-32.34,-9.84,,adl
4.702448,0.0204,0.0252,0.1109,-0.0075,0.0048,-0.0027,-28.74,-32.34,-9.84,,adl
4.722297,0.0204,0.0252,0.1109,-0.0075,0.0048,-0.0027,-28.92,-32.22,-9.72,,adl
4.723822,0.0204,0.0252,0.1109,-0.0075,-0.0005,-0.0021,-28.92,-32.22,-9.72,,adl
4.739227,0.0204,0.0252,0.1109,-0.0075,-0.0005,-0.0021,-28.92,-32.22,-9.72,,adl
4.740184,-0.0213,0.0086,0.1804,-0.0075,-0.0005,-0.0021,-28.92,-32.22,-9.72,,adl
4.743931,-0.0213,0.0086,0.1804,0.0011,-0.0005,-0.0016,-28.92,-32.22,-9.72,,adl
4.762995,-0.0213,0.0086,0.1804,0.0011,0.0016,0.0,-28.92,-32.22,-9.72,,adl
4.784973,-0.0213,0.0086,0.1804,0.0011,0.0016,0.0,-28.8,-32.16,-10.08,,adl
4.786443,-0.0213,0.0086,0.1804,-0.0011,0.0027,-0.0027,-28.8,-32.16,-10.08,,adl
4.800814,-0.0213,0.0086,0.1804,-0.0011,0.0027,-0.0027,-28.8,-32.16,-10.08,,adl
4.802364,0.0371,0.0404,0.1468,-0.0011,0.0027,-0.0027,-28.8,-32.16,-10.08,,adl
4.805329,0.0371,0.0404,0.1468,-0.0016,0.0059,-0.0011,-28.8,-32.16,-10.08,,adl
4.825487,0.0371,0.0404,0.1468,-0.0027,0.0032,-0.0005,-28.8,-32.16,-10.08,,adl
4.84659,0.0371,0.0404,0.1468,-0.0027,0.0032,-0.0005,-28.5,-32.4,-9.9,,adl
4.848083,0.0371,0.0404,0.1468,-0.0053,0.0,-0.0016,-28.5,-32.4,-9.9,,adl
4.862055,0.0371,0.0404,0.1468,-0.0053,0.0,-0.0016,-28.5,-32.4,-9.9,,adl
4.863453,-0.0028,0.0107,0.1444,-0.0053,0.0,-0.0016,-28.5,-32.4,-9.9,,adl
4.865113,-0.0028,0.0107,0.1444,-0.0016,-0.0016,-0.0021,-28.5,-32.4,-9.9,,adl
4.886591,-0.0028,0.0107,0.1444,-0.0021,0.0027,-0.0016,-28.5,-32.4,-9.9,,adl
4.908014,-0.0028,0.0107,0.1444,-0.0021,0.0027,-0.0016,-28.92,-32.58,-9.84,,adl
4.909927,-0.0028,0.0107,0.1444,-0.0011,0.0048,-0.0021,-28.92,-32.58,-9.84,,adl
4.923711,-0.0028,0.0107,0.1444,-0.0011,0.0048,-0.0021,-28.92,-32.58,-9.84,,adl
4.924756,-0.0162,0.0139,0.178,-0.0011,0.0048,-0.0021,-28.92,-32.58,-9.84,,adl
4.928509,-0.0162,0.0139,0.178,-0.0011,-0.0011,-0.0016,-28.92,-32.58,-9.84,,adl
4.948294,-0.0162,0.0139,0.178,0.0016,-0.0005,-0.0032,-28.92,-32.58,-9.84,,adl
4.968976,-0.0162,0.0139,0.178,0.0016,-0.0005,-0.0032,-28.74,-32.82,-10.08,,adl
4.970402,-0.0162,0.0139,0.178,-0.0021,0.0037,-0.0021,-28.74,-32.82,-10.08,,adl
4.986113,-0.0162,0.0139,0.178,-0.0021,0.0037,-0.0021,-28.74,-32.82,-10.08,,adl
4.987651,-0.0157,0.0071,0.1421,-0.0021,0.0037,-0.0021,-28.74,-32.82,-10.08,,adl
4.988915,-0.0157,0.0071,0.1421,-0.0053,0.0011,-0.0016,-28.74,-32.82,-10.08,,adl
5.011028,-0.0157,0.0071,0.1421,-0.0043,0.0005,-0.0016,-28.74,-32.82,-10.08,,adl
5.031605,-0.0157,0.0071,0.1421,-0.0043,0.0005,-0.0016,-28.8,-32.76,-9.9,,adl
5.033277,-0.0157,0.0071,0.1421,-0.0021,0.0027,-0.0016,-28.8,-32.76,-9.9,,adl
5.048002,-0.0157,0.0071,0.1421,-0.0021,0.0027,-0.0016,-28.8,-32.76,-9.9,,adl
5.049674,0.0014,0.0489,0.1421,-0.0021,0.0027,-0.0016,-28.8,-32.76,-9.9,,adl
5.051273,0.0014,0.0489,0.1421,-0.0043,0.0021,-0.0043,-28.8,-32.76,-9.9,,adl
5.071361,0.0014,0.0489,0.1421,-0.008,0.0043,-0.0021,-28.8,-32.76,-9.9,,adl
5.093536,0.0014,0.0489,0.1421,-0.008,0.0043,-0.0021,-29.04,-32.82,-10.26,,adl
5.095079,0.0014,0.0489,0.1421,-0.0037,0.0032,-0.0016,-29.04,-32.82,-10.26,,adl
5.110869,0.0014,0.0489,0.1421,-0.0037,0.0032,-0.0016,-29.04,-32.82,-10.26,,adl
5.112449,0.0098,-0.0219,0.1469,-0.0037,0.0032,-0.0016,-29.04,-32.82,-10.26,,adl
5.113517,0.0098,-0.0219,0.1469,0.0,0.0027,-0.0021,-29.04,-32.82,-10.26,,adl
5.132371,0.0098,-0.0219,0.1469,-0.0032,0.0016,-0.0005,-29.04,-32.82,-10.26,,adl
5.153769,0.0098,-0.0219,0.1469,-0.0032,0.0016,-0.0005,-28.92,-32.7,-10.74,,adl
5.155092,0.0098,-0.0219,0.1469,-0.0011,-0.0032,-0.0005,-28.92,-32.7,-10.74,,adl
5.170131,0.0098,-0.0219,0.1469,-0.0011,-0.0032,-0.0005,-28.92,-32.7,-10.74,,adl
5.171586,0.0159,0.0333,0.1564,-0.0011,-0.0032,-0.0005,-28.92,-32.7,-10.74,,adl
5.177668,0.0159,0.0333,0.1564,-0.0032,0.0032,-0.0032,-28.92,-32.7,-10.74,,adl
5.195162,0.0159,0.0333,0.1564,-0.0032,0.008,-0.0053,-28.92,-32.7,-10.74,,adl
5.214722,0.0159,0.0333,0.1564,-0.0032,0.008,-0.0053,-29.28,-32.34,-10.56,,adl
5.216115,0.0159,0.0333,0.1564,-0.0112,-0.0048,-0.0016,-29.28,-32.34,-10.56,,adl
5.231311,0.0159,0.0333,0.1564,-0.0112,-0.0048,-0.0016,-29.28,-32.34,-10.56,,adl
5.232867,-0.0307,0.0081,0.1731,-0.0112,-0.0048,-0.0016,-29.28,-32.34,-10.56,,adl
5.235113,-0.0307,0.0081,0.1731,-0.0011,-0.0128,-0.0016,-29.28,-32.34,-10.56,,adl
5.255851,-0.0307,0.0081,0.1731,0.0075,0.008,-0.0005,-29.28,-32.34,-10.56,,adl
5.276675,-0.0307,0.0081,0.1731,0.0075,0.008,-0.0005,-29.34,-32.82,-10.74,,adl
5.278412,-0.0307,0.0081,0.1731,0.0005,0.0101,-0.0005,-29.34,-32.82,-10.74,,adl
5.292722,-0.0307,0.0081,0.1731,0.0005,0.0101,-0.0005,-29.34,-32.82,-10.74,,adl
5.294226,0.0055,0.053,0.1541,0.0005,0.0101,-0.0005,-29.34,-32.82,-10.74,,adl
5.296855,0.0055,0.053,0.1541,-0.008,0.0043,-0.0016,-29.34,-32.82,-10.74,,adl
5.317568,0.0055,0.053,0.1541,-0.0107,0.0,-0.0043,-29.34,-32.82,-10.74,,adl
5.339002,0.0055,0.053,0.1541,-0.0107,0.0,-0.0043,-28.86,-32.76,-10.62,,adl
5.340862,0.0055,0.053,0.1541,-0.0048,0.0027,-0.0037,-28.86,-32.76,-10.62,,adl
5.354661,0.0055,0.053,0.1541,-0.0048,0.0027,-0.0037,-28.86,-32.76,-10.62,,adl
5.355724,-0.017,-0.0211,0.1565,-0.0048,0.0027,-0.0037,-28.86,-32.76,-10.62,,adl
5.360057,-0.017,-0.0211,0.1565,-0.0005,0.0027,-0.0016,-28.86,-32.76,-10.62,,adl
5.378452,-0.017,-0.0211,0.1565,-0.0005,0.0005,-0.0005,-28.86,-32.76,-10.62,,adl
5.400488,-0.017,-0.0211,0.1565,-0.0005,0.0005,-0.0005,-28.38,-32.7,-10.14,,adl
5.402142,-0.017,-0.0211,0.1565,0.0,0.0021,0.0027,-28.38,-32.7,-10.14,,adl
5.416221,-0.017,-0.0211,0.1565,0.0,0.0021,0.0027,-28.38,-32.7,-10.14,,adl
5.417867,0.0187,0.0334,0.1948,0.0,0.0021,0.0027,-28.38,-32.7,-10.14,,adl
5.418986,0.0187,0.0334,0.1948,0.0048,-0.0032,0.0,-28.38,-32.7,-10.14,,adl
5.440813,0.0187,0.0334,0.1948,0.0091,-0.0032,-0.0016,-28.38,-32.7,-10.14,,adl
5.461798,0.0187,0.0334,0.1948,0.0091,-0.0032,-0.0016,-27.9,-32.7,-10.32,,adl
5.463225,0.0187,0.0334,0.1948,0.0016,0.0053,-0.0005,-27.9,-32.7,-10.32,,adl
5.476589,0.0187,0.0334,0.1948,0.0016,0.0053,-0.0005,-27.9,-32.7,-10.32,,adl
5.478036,-0.0036,0.0249,0.1134,0.0016,0.0053,-0.0005,-27.9,-32.7,-10.32,,adl
5.481679,-0.0036,0.0249,0.1134,-0.0096,0.0053,-0.0016,-27.9,-32.7,-10.32,,adl
5.502148,-0.0036,0.0249,0.1134,-0.0085,-0.0027,-0.0016,-27.9,-32.7,-10.32,,adl
5.523351,-0.0036,0.0249,0.1134,-0.0085,-0.0027,-0.0016,-27.96,-32.58,-10.38,,adl
5.525116,-0.0036,0.0249,0.1134,0.0037,-0.0027,-0.0016,-27.96,-32.58,-10.38,,adl
5.5393,-0.0036,0.0249,0.1134,0.0037,-0.0027,-0.0016,-27.96,-32.58,-10.38,,adl
5.540276,-0.0299,0.0063,0.166,0.0037,-0.0027,-0.0016,-27.96,-32.58,-10.38,,adl
5.544724,-0.0299,0.0063,0.166,0.0043,0.0037,0.0005,-27.96,-32.58,-10.38,,adl
5.564281,-0.0299,0.0063,0.166,-0.0011,0.0027,0.0011,-27.96,-32.58,-10.38,,adl
5.584355,-0.0299,0.0063,0.166,-0.0011,0.0027,0.0011,-28.5,-32.82,-10.44,,adl
5.585834,-0.0299,0.0063,0.166,-0.0059,-0.0016,0.0,-28.5,-32.82,-10.44,,adl
5.60042,-0.0299,0.0063,0.166,-0.0059,-0.0016,0.0,-28.5,-32.82,-10.44,,adl
5.60205,0.0183,0.0067,0.1684,-0.0059,-0.0016,0.0,-28.5,-32.82,-10.44,,adl
5.604791,0.0183,0.0067,0.1684,-0.0027,0.0021,-0.0005,-28.5,-32.82,-10.44,,adl
5.625208,0.0183,0.0067,0.1684,-0.0016,0.0011,-0.0011,-28.5,-32.82,-10.44,,adl
5.646583,0.0183,0.0067,0.1684,-0.0016,0.0011,-0.0011,-28.74,-32.82,-10.8,,adl
5.648009,0.0183,0.0067,0.1684,-0.0011,0.0,-0.0016,-28.74,-32.82,-10.8,,adl
5.662729,0.0183,0.0067,0.1684,-0.0011,0.0,-0.0016,-28.74,-32.82,-10.8,,adl
5.664253,-0.0008,0.0194,0.154,-0.0011,0.0,-0.0016,-28.74,-32.82,-10.8,,adl
5.665403,-0.0008,0.0194,0.154,-0.0032,0.0,-0.0011,-28.74,-32.82,-10.8,,adl
5.687195,-0.0008,0.0194,0.154,0.0,-0.0005,0.0016,-28.74,-32.82,-10.8,,adl
5.708033,-0.0008,0.0194,0.154,0.0,-0.0005,0.0016,-28.68,-32.7,-10.8,,adl
5.709757,-0.0008,0.0194,0.154,0.0048,0.0,0.0,-28.68,-32.7,-10.8,,adl
5.72382,-0.0008,0.0194,0.154,0.0048,0.0,0.0,-28.68,-32.7,-10.8,,adl
5.724956,-0.0109,0.0281,0.1684,0.0048,0.0,0.0,-28.68,-32.7,-10.8,,adl
5.729353,-0.0109,0.0281,0.1684,0.0032,0.0027,0.0005,-28.68,-32.7,-10.8,,adl
5.748809,-0.0109,0.0281,0.1684,0.0,0.0,0.0005,-28.68,-32.7,-10.8,,adl
5.769863,-0.0109,0.0281,0.1684,0.0,0.0,0.0005,-28.62,-32.64,-10.02,,adl
5.771493,-0.0109,0.0281,0.1684,-0.0059,-0.0005,0.0005,-28.62,-32.64,-10.02,,adl
5.784995,-0.0109,0.0281,0.1684,-0.0059,-0.0005,0.0005,-28.62,-32.64,-10.02,,adl
5.786488,-0.0105,-0.0049,0.1684,-0.0059,-0.0005,0.0005,-28.62,-32.64,-10.02,,adl
5.787896,-0.0105,-0.0049,0.1684,-0.0037,0.0005,0.0011,-28.62,-32.64,-10.02,,adl
5.810174,-0.0105,-0.0049,0.1684,0.0,0.0011,0.0011,-28.62,-32.64,-10.02,,adl
5.830397,-0.0105,-0.0049,0.1684,0.0,0.0011,0.0011,-28.5,-32.4,-9.78,,adl
5.831896,-0.0105,-0.0049,0.1684,0.0027,-0.0011,0.0005,-28.5,-32.4,-9.78,,adl
5.847474,-0.0105,-0.0049,0.1684,0.0027,-0.0011,0.0005,-28.5,-32.4,-9.78,,adl
5.849296,0.0011,0.0307,0.1612,0.0027,-0.0011,0.0005,-28.5,-32.4,-9.78,,adl
5.850417,0.0011,0.0307,0.1612,0.0,-0.0021,0.0016,-28.5,-32.4,-9.78,,adl
5.871808,0.0011,0.0307,0.1612,0.0016,0.0011,0.0011,-28.5,-32.4,-9.78,,adl
5.891701,0.0011,0.0307,0.1612,0.0016,0.0011,0.0011,-28.08,-32.46,-9.42,,adl
5.893096,0.0011,0.0307,0.1612,0.0,0.0011,-0.0016,-28.08,-32.46,-9.42,,adl
5.910051,0.0011,0.0307,0.1612,0.0,0.0011,-0.0016,-28.08,-32.46,-9.42,,adl
5.911524,0.0187,0.0429,0.13,0.0,0.0011,-0.0016,-28.08,-32.46,-9.42,,adl
5.912448,0.0187,0.0429,0.13,0.0,0.0011,-0.0027,-28.08,-32.46,-9.42,,adl
5.933314,0.0187,0.0429,0.13,-0.0032,0.0027,-0.0005,-28.08,-32.46,-9.42,,adl
5.953833,0.0187,0.0429,0.13,-0.0032,0.0027,-0.0005,-28.26,-32.82,-9.66,,adl
5.955169,0.0187,0.0429,0.13,-0.0101,0.0016,0.0011,-28.26,-32.82,-9.66,,adl
5.970073,0.0187,0.0429,0.13,-0.0101,0.0016,0.0011,-28.26,-32.82,-9.66,,adl
5.971506,-0.0188,-0.0095,0.2114,-0.0101,0.0016,0.0011,-28.26,-32.82,-9.66,,adl
5.975812,-0.0188,-0.0095,0.2114,-0.0043,-0.0085,0.0027,-28.26,-32.82,-9.66,,adl
5.994822,-0.0188,-0.0095,0.2114,0.0091,-0.0069,0.0032,-28.26,-32.82,-9.66,,adl
6.015217,-0.0188,-0.0095,0.2114,0.0091,-0.0069,0.0032,-28.2,-32.58,-10.5,,adl
6.016766,-0.0188,-0.0095,0.2114,0.0133,0.0064,0.0011,-28.2,-32.58,-10.5,,adl
6.031217,-0.0188,-0.0095,0.2114,0.0133,0.0064,0.0011,-28.2,-32.58,-10.5,,adl
6.032493,0.0209,0.0634,0.1179,0.0133,0.0064,0.0011,-28.2,-32.58,-10.5,,adl
6.034689,0.0209,0.0634,0.1179,0.0032,0.008,0.0032,-28.2,-32.58,-10.5,,adl
6.055473,0.0209,0.0634,0.1179,-0.0075,-0.0032,0.0011,-28.2,-32.58,-10.5,,adl
6.077411,0.0209,0.0634,0.1179,-0.0075,-0.0032,0.0011,-28.32,-32.58,-10.86,,adl
6.078642,0.0209,0.0634,0.1179,-0.0048,-0.0053,-0.0016,-28.32,-32.58,-10.86,,adl
6.093069,0.0209,0.0634,0.1179,-0.0048,-0.0053,-0.0016,-28.32,-32.58,-10.86,,adl
6.094336,-0.0226,0.0211,0.1609,-0.0048,-0.0053,-0.0016,-28.32,-32.58,-10.86,,adl
6.096651,-0.0226,0.0211,0.1609,-0.0005,-0.0016,-0.0032,-28.32,-32.58,-10.86,,adl
6.116912,-0.0226,0.0211,0.1609,0.0,0.0021,0.0005,-28.32,-32.58,-10.86,,adl
6.139173,-0.0226,0.0211,0.1609,0.0,0.0021,0.0005,-28.86,-32.94,-11.1,,adl
6.140884,-0.0226,0.0211,0.1609,-0.0016,0.0053,0.0011,-28.86,-32.94,-11.1,,adl
6.154561,-0.0226,0.0211,0.1609,-0.0016,0.0053,0.0011,-28.86,-32.94,-11.1,,adl
6.155644,-0.0049,-0.012,0.2041,-0.0016,0.0053,0.0011,-28.86,-32.94,-11.1,,adl
6.159685,-0.0049,-0.012,0.2041,0.0016,0.0016,0.0011,-28.86,-32.94,-11.1,,adl
6.178362,-0.0049,-0.012,0.2041,0.008,-0.0048,0.0005,-28.86,-32.94,-11.1,,adl
6.19908,-0.0049,-0.012,0.2041,0.008,-0.0048,0.0005,-29.4,-32.82,-10.56,,adl
6.200392,-0.0049,-0.012,0.2041,0.008,-0.0027,0.0,-29.4,-32.82,-10.56,,adl
6.216832,-0.0049,-0.012,0.2041,0.008,-0.0027,0.0,-29.4,-32.82,-10.56,,adl
6.218458,0.0192,0.041,0.0939,0.008,-0.0027,0.0,-29.4,-32.82,-10.56,,adl
6.219612,0.0192,0.041,0.0939,-0.0021,0.0037,-0.0011,-29.4,-32.82,-10.56,,adl
6.240174,0.0192,0.041,0.0939,-0.0059,0.0048,-0.0021,-29.4,-32.82,-10.56,,adl
6.261889,0.0192,0.041,0.0939,-0.0059,0.0048,-0.0021,-29.7,-33.18,-10.2,,adl
6.263607,0.0192,0.041,0.0939,0.0,-0.0005,-0.0027,-29.7,-33.18,-10.2,,adl
6.27659,0.0192,0.041,0.0939,0.0,-0.0005,-0.0027,-29.7,-33.18,-10.2,,adl
6.27707,-0.0177,0.0113,0.1945,0.0,-0.0005,-0.0027,-29.7,-33.18,-10.2,,adl
6.280403,-0.0177,0.0113,0.1945,0.0037,-0.0005,-0.0005,-29.7,-33.18,-10.2,,adl
6.301595,-0.0177,0.0113,0.1945,0.0043,-0.0016,0.0016,-29.7,-33.18,-10.2,,adl
6.323359,-0.0177,0.0113,0.1945,-0.0011,0.0005,0.0032,-29.7,-33.18,-10.2,,adl
6.325298,-0.0177,0.0113,0.1945,-0.0011,0.0005,0.0032,-29.7,-33.18,-9.9,,adl
6.340311,-0.0177,0.0113,0.1945,-0.0011,0.0005,0.0032,-29.7,-33.18,-9.9,,adl
6.341535,0.0236,0.0327,0.1537,-0.0011,0.0005,0.0032,-29.7,-33.18,-9.9,,adl
6.342639,0.0236,0.0327,0.1537,-0.0021,0.0,0.0016,-29.7,-33.18,-9.9,,adl
6.363797,0.0236,0.0327,0.1537,0.0037,0.0027,0.0005,-29.7,-33.18,-9.9,,adl
6.385165,0.0236,0.0327,0.1537,0.0037,0.0027,0.0005,-29.64,-32.7,-9.96,,adl
6.387059,0.0236,0.0327,0.1537,0.0021,-0.0011,0.0,-29.64,-32.7,-9.96,,adl
6.400065,0.0236,0.0327,0.1537,0.0021,-0.0011,0.0,-29.64,-32.7,-9.96,,adl
6.401566,-0.0056,0.0216,0.1489,0.0021,-0.0011,0.0,-29.64,-32.7,-9.96,,adl
6.403939,-0.0056,0.0216,0.1489,0.0011,-0.0032,-0.0005,-29.64,-32.7,-9.96,,adl
6.425591,-0.0056,0.0216,0.1489,0.0005,0.0,-0.0005,-29.64,-32.7,-9.96,,adl
6.446878,-0.0056,0.0216,0.1489,0.0005,0.0,-0.0005,-29.1,-32.7,-10.32,,adl
6.448404,-0.0056,0.0216,0.1489,0.0032,0.0005,-0.0005,-29.1,-32.7,-10.32,,adl
6.462959,-0.0056,0.0216,0.1489,0.0032,0.0005,-0.0005,-29.1,-32.7,-10.32,,adl
6.464502,-0.0066,0.0318,0.1657,0.0032,0.0005,-0.0005,-29.1,-32.7,-10.32,,adl
6.467002,-0.0066,0.0318,0.1657,0.0032,0.0011,0.0011,-29.1,-32.7,-10.32,,adl
6.487239,-0.0066,0.0318,0.1657,0.0011,0.0021,0.0005,-29.1,-32.7,-10.32,,adl
6.507557,-0.0066,0.0318,0.1657,0.0011,0.0021,0.0005,-28.56,-32.22,-10.32,,adl
6.5091,-0.0066,0.0318,0.1657,-0.0011,-0.0032,0.0,-28.56,-32.22,-10.32,,adl
6.523578,-0.0066,0.0318,0.1657,-0.0011,-0.0032,0.0,-28.56,-32.22,-10.32,,adl
6.524743,-0.0023,0.0116,0.1561,-0.0011,-0.0032,0.0,-28.56,-32.22,-10.32,,adl
6.528789,-0.0023,0.0116,0.1561,-0.0011,-0.0016,-0.0011,-28.56,-32.22,-10.32,,adl
6.548108,-0.0023,0.0116,0.1561,0.0005,0.0021,-0.0005,-28.56,-32.22,-10.32,,adl
6.569341,-0.0023,0.0116,0.1561,0.0005,0.0021,-0.0005,-28.62,-32.58,-10.44,,adl
6.570924,-0.0023,0.0116,0.1561,-0.0005,0.0021,-0.0005,-28.62,-32.58,-10.44,,adl
6.585754,-0.0023,0.0116,0.1561,-0.0005,0.0021,-0.0005,-28.62,-32.58,-10.44,,adl
6.587307,0.0025,0.0209,0.1537,-0.0005,0.0021,-0.0005,-28.62,-32.58,-10.44,,adl
6.588394,0.0025,0.0209,0.1537,0.0011,-0.0011,-0.0011,-28.62,-32.58,-10.44,,adl
6.609317,0.0025,0.0209,0.1537,-0.0016,-0.0021,0.0,-28.62,-32.58,-10.44,,adl
6.630106,0.0025,0.0209,0.1537,-0.0016,-0.0021,0.0,-28.44,-32.7,-10.5,,adl
6.631507,0.0025,0.0209,0.1537,0.0005,0.0027,0.0,-28.44,-32.7,-10.5,,adl
6.647147,0.0025,0.0209,0.1537,0.0005,0.0027,0.0,-28.44,-32.7,-10.5,,adl
6.648848,0.0043,0.004,0.156,0.0005,0.0027,0.0,-28.44,-32.7,-10.5,,adl
6.64974,0.0043,0.004,0.156,0.0005,0.0037,0.0011,-28.44,-32.7,-10.5,,adl
6.671186,0.0043,0.004,0.156,0.0005,-0.0005,0.0005,-28.44,-32.7,-10.5,,adl
6.692853,0.0043,0.004,0.156,0.0005,-0.0005,0.0005,-28.32,-32.46,-9.9,,adl
6.694556,0.0043,0.004,0.156,0.0021,-0.0005,-0.0005,-28.32,-32.46,-9.9,,adl
6.709044,0.0043,0.004,0.156,0.0021,-0.0005,-0.0005,-28.32,-32.46,-9.9,,adl
6.71047,0.0015,0.0429,0.1513,0.0021,-0.0005,-0.0005,-28.32,-32.46,-9.9,,adl
6.711455,0.0015,0.0429,0.1513,0.0021,0.0005,-0.0005,-28.32,-32.46,-9.9,,adl
6.733307,0.0015,0.0429,0.1513,0.0005,0.0027,-0.0005,-28.32,-32.46,-9.9,,adl
6.754078,0.0015,0.0429,0.1513,0.0005,0.0027,-0.0005,-28.38,-32.64,-10.26,,adl
6.755724,0.0015,0.0429,0.1513,-0.0011,0.0,-0.0011,-28.38,-32.64,-10.26,,adl
6.769996,0.0015,0.0429,0.1513,-0.0011,0.0,-0.0011,-28.38,-32.64,-10.26,,adl
6.771482,0.0176,0.0086,0.1608,-0.0011,0.0,-0.0011,-28.38,-32.64,-10.26,,adl
6.772501,0.0176,0.0086,0.1608,-0.0016,0.0011,-0.0032,-28.38,-32.64,-10.26,,adl
6.793754,0.0176,0.0086,0.1608,-0.0059,0.0032,0.0,-28.38,-32.64,-10.26,,adl
6.815134,0.0176,0.0086,0.1608,-0.0059,0.0032,0.0,-28.2,-32.28,-10.26,,adl
6.816496,0.0176,0.0086,0.1608,-0.008,-0.0069,0.0021,-28.2,-32.28,-10.26,,adl
6.832068,0.0176,0.0086,0.1608,-0.008,-0.0069,0.0021,-28.2,-32.28,-10.26,,adl
6.833706,-0.0308,0.0093,0.1678,-0.008,-0.0069,0.0021,-28.2,-32.28,-10.26,,adl
6.834856,-0.0308,0.0093,0.1678,0.0021,-0.0037,0.0021,-28.2,-32.28,-10.26,,adl
6.856768,-0.0308,0.0093,0.1678,0.0091,0.0075,0.0032,-28.2,-32.28,-10.26,,adl
6.876958,-0.0308,0.0093,0.1678,0.0091,0.0075,0.0032,-28.26,-32.34,-10.26,,adl
6.878392,-0.0308,0.0093,0.1678,0.0069,0.0053,0.0016,-28.26,-32.34,-10.26,,adl
6.893382,-0.0308,0.0093,0.1678,0.0069,0.0053,0.0016,-28.26,-32.34,-10.26,,adl
6.894901,0.0063,0.0405,0.1466,0.0069,0.0053,0.0016,-28.26,-32.34,-10.26,,adl
6.896026,0.0063,0.0405,0.1466,0.0,-0.0064,0.0011,-28.26,-32.34,-10.26,,adl
6.917232,0.0063,0.0405,0.1466,-0.0016,-0.0059,-0.0032,-28.26,-32.34,-10.26,,adl
6.938896,0.0063,0.0405,0.1466,-0.0016,-0.0059,-0.0032,-28.14,-32.58,-10.8,,adl
6.940701,0.0063,0.0405,0.1466,0.0,0.0016,-0.0027,-28.14,-32.58,-10.8,,adl
6.954209,0.0063,0.0405,0.1466,0.0,0.0016,-0.0027,-28.14,-32.58,-10.8,,adl
6.955186,-0.0199,0.0327,0.1463,0.0,0.0016,-0.0027,-28.14,-32.58,-10.8,,adl
6.959219,-0.0199,0.0327,0.1463,-0.0005,0.0053,-0.0027,-28.14,-32.58,-10.8,,adl
6.978861,-0.0199,0.0327,0.1463,-0.0048,0.0053,0.0011,-28.14,-32.58,-10.8,,adl
7.000416,-0.0199,0.0327,0.1463,-0.0048,0.0053,0.0011,-28.38,-32.76,-10.74,,adl
7.002089,-0.0199,0.0327,0.1463,-0.0032,0.0,0.0021,-28.38,-32.76,-10.74,,adl
7.01666,-0.0199,0.0327,0.1463,-0.0032,0.0,0.0021,-28.38,-32.76,-10.74,,adl
7.018083,0.015,0.0053,0.1752,-0.0032,0.0,0.0021,-28.38,-32.76,-10.74,,adl
7.018905,0.015,0.0053,0.1752,0.0011,-0.0059,0.0021,-28.38,-32.76,-10.74,,adl
7.040506,0.015,0.0053,0.1752,0.0064,-0.0011,0.0011,-28.38,-32.76,-10.74,,adl
7.061894,0.015,0.0053,0.1752,0.0064,-0.0011,0.0011,-28.02,-32.58,-10.44,,adl
7.06342,0.015,0.0053,0.1752,0.0048,0.0064,-0.0005,-28.02,-32.58,-10.44,,adl
7.07726,0.015,0.0053,0.1752,0.0048,0.0064,-0.0005,-28.02,-32.58,-10.44,,adl
7.078657,0.0137,0.0236,0.1416,0.0048,0.0064,-0.0005,-28.02,-32.58,-10.44,,adl
7.081342,0.0137,0.0236,0.1416,-0.0021,0.0016,-0.0005,-28.02,-32.58,-10.44,,adl
7.10238,0.0137,0.0236,0.1416,-0.0048,-0.0027,-0.0021,-28.02,-32.58,-10.44,,adl
7.1245,0.0137,0.0236,0.1416,-0.0048,-0.0027,-0.0021,-28.14,-32.22,-10.26,,adl
7.126277,0.0137,0.0236,0.1416,0.0027,0.0,0.0,-28.14,-32.22,-10.26,,adl
7.139442,0.0137,0.0236,0.1416,0.0027,0.0,0.0,-28.14,-32.22,-10.26,,adl
7.140693,-0.0226,0.0264,0.1512,0.0027,0.0,0.0,-28.14,-32.22,-10.26,,adl
7.144674,-0.0226,0.0264,0.1512,0.0027,0.0005,0.0005,-28.14,-32.22,-10.26,,adl
7.164319,-0.0226,0.0264,0.1512,-0.0032,-0.0021,0.0011,-28.14,-32.22,-10.26,,adl
7.185414,-0.0226,0.0264,0.1512,-0.0032,-0.0021,0.0011,-28.68,-32.16,-10.08,,adl
7.18706,-0.0226,0.0264,0.1512,-0.0011,0.0005,-0.0005,-28.68,-32.16,-10.08,,adl
7.201403,-0.0226,0.0264,0.1512,-0.0011,0.0005,-0.0005,-28.68,-32.16,-10.08,,adl
7.20308,0.0101,0.0119,0.1678,-0.0011,0.0005,-0.0005,-28.68,-32.16,-10.08,,adl
7.203937,0.0101,0.0119,0.1678,0.0011,0.0027,-0.0011,-28.68,-32.16,-10.08,,adl
7.225546,0.0101,0.0119,0.1678,0.0,-0.0005,-0.0011,-28.68,-32.16,-10.08,,adl
7.246385,0.0101,0.0119,0.1678,0.0,-0.0005,-0.0011,-28.44,-31.98,-9.78,,adl
7.247921,0.0101,0.0119,0.1678,-0.0064,-0.0037,-0.0005,-28.44,-31.98,-9.78,,adl
7.262535,0.0101,0.0119,0.1678,-0.0064,-0.0037,-0.0005,-28.44,-31.98,-9.78,,adl
7.264063,-0.0073,0.0104,0.1534,-0.0064,-0.0037,-0.0005,-28.44,-31.98,-9.78,,adl
7.265295,-0.0073,0.0104,0.1534,-0.0037,0.0037,-0.0005,-28.44,-31.98,-9.78,,adl
7.287143,-0.0073,0.0104,0.1534,0.0,0.0048,-0.0027,-28.44,-31.98,-9.78,,adl
7.307992,-0.0073,0.0104,0.1534,0.0,0.0048,-0.0027,-28.74,-32.46,-10.2,,adl
7.309755,-0.0073,0.0104,0.1534,-0.0016,0.0,-0.0043,-28.74,-32.46,-10.2,,adl
7.323799,-0.0073,0.0104,0.1534,-0.0016,0.0,-0.0043,-28.74,-32.46,-10.2,,adl
7.324964,0.0343,-0.0711,0.2033,-0.0016,0.0,-0.0043,-28.74,-32.46,-10.2,,adl
7.329316,0.0343,-0.0711,0.2033,-0.0059,-0.0075,-0.0059,-28.74,-32.46,-10.2,,adl
7.348134,0.0343,-0.0711,0.2033,-0.0234,0.0085,-0.0165,-28.74,-32.46,-10.2,,adl
7.370177,0.0343,-0.0711,0.2033,-0.0234,0.0085,-0.0165,-29.04,-33.18,-9.9,,adl
7.371772,0.0343,-0.0711,0.2033,-0.0261,-0.0266,-0.0192,-29.04,-33.18,-9.9,,adl
7.385705,0.0343,-0.0711,0.2033,-0.0261,-0.0266,-0.0192,-29.04,-33.18,-9.9,,adl
7.387332,-0.1898,0.0408,0.124,-0.0261,-0.0266,-0.0192,-29.04,-33.18,-9.9,,adl
7.388771,-0.1898,0.0408,0.124,0.0117,-0.0202,-0.041,-29.04,-33.18,-9.9,,adl
7.410278,-0.1898,0.0408,0.124,0.0602,0.0282,-0.0202,-29.04,-33.18,-9.9,,adl
7.430738,-0.1898,0.0408,0.124,0.0602,0.0282,-0.0202,-28.44,-33.06,-9.96,,adl
7.432107,-0.1898,0.0408,0.124,0.0192,0.0607,0.0032,-28.44,-33.06,-9.96,,adl
7.446628,-0.1898,0.0408,0.124,0.0192,0.0607,0.0032,-28.44,-33.06,-9.96,,adl
7.448218,0.2991,0.1442,0.0741,0.0192,0.0607,0.0032,-28.44,-33.06,-9.96,,adl
7.450467,0.2991,0.1442,0.0741,-0.0937,0.0692,0.0144,-28.44,-33.06,-9.96,,adl
7.471598,0.2991,0.1442,0.0741,-0.1198,-0.0218,0.0202,-28.44,-33.06,-9.96,,adl
7.493757,0.2991,0.1442,0.0741,-0.1198,-0.0218,0.0202,-28.32,-33.24,-10.32,,adl
7.495273,0.2991,0.1442,0.0741,0.0112,-0.1081,0.017,-28.32,-33.24,-10.32,,adl
7.509653,0.2991,0.1442,0.0741,0.0112,-0.1081,0.017,-28.32,-33.24,-10.32,,adl
7.511077,-0.316,-0.4447,0.2662,0.0112,-0.1081,0.017,-28.32,-33.24,-10.32,,adl
7.512346,-0.316,-0.4447,0.2662,0.1587,-0.1023,0.0192,-28.32,-33.24,-10.32,,adl
7.533156,-0.316,-0.4447,0.2662,0.1646,0.0117,-0.0005,-28.32,-33.24,-10.32,,adl
7.553792,-0.316,-0.4447,0.2662,0.1646,0.0117,-0.0005,-28.14,-33.0,-10.2,,adl
7.555278,-0.316,-0.4447,0.2662,0.0192,0.179,-0.0277,-28.14,-33.0,-10.2,,adl
7.570126,-0.316,-0.4447,0.2662,0.0192,0.179,-0.0277,-28.14,-33.0,-10.2,,adl
7.571801,0.2623,0.8146,0.031,0.0192,0.179,-0.0277,-28.14,-33.0,-10.2,,adl
7.573144,0.2623,0.8146,0.031,-0.1294,0.1726,-0.0032,-28.14,-33.0,-10.2,,adl
7.594564,0.2623,0.8146,0.031,-0.1955,-0.0724,0.0123,-28.14,-33.0,-10.2,,adl
7.615668,0.2623,0.8146,0.031,-0.1955,-0.0724,0.0123,-27.66,-32.46,-10.68,,adl
7.618187,0.2623,0.8146,0.031,-0.0911,-0.2445,0.0096,-27.66,-32.46,-10.68,,adl
7.631801,0.2623,0.8146,0.031,-0.0911,-0.2445,0.0096,-27.66,-32.46,-10.68,,adl
7.633642,-0.457,-0.8259,0.4399,-0.0911,-0.2445,0.0096,-27.66,-32.46,-10.68,,adl
7.636642,-0.457,-0.8259,0.4399,0.114,-0.1252,0.0293,-27.66,-32.46,-10.68,,adl
7.655627,-0.457,-0.8259,0.4399,0.2248,0.1374,0.0229,-27.66,-32.46,-10.68,,adl
7.677069,-0.457,-0.8259,0.4399,0.2248,0.1374,0.0229,-27.96,-32.4,-11.1,,adl
7.67858,-0.457,-0.8259,0.4399,0.1688,0.3174,0.0037,-27.96,-32.4,-11.1,,adl
7.692704,-0.457,-0.8259,0.4399,0.1688,0.3174,0.0037,-27.96,-32.4,-11.1,,adl
7.694234,0.3494,1.2633,-0.3824,0.1688,0.3174,0.0037,-27.96,-32.4,-11.1,,adl
7.697441,0.3494,1.2633,-0.3824,-0.0442,0.2131,0.0298,-27.96,-32.4,-11.1,,adl
7.71791,0.3494,1.2633,-0.3824,-0.2477,-0.1172,0.0144,-27.96,-32.4,-11.1,,adl
7.739143,0.3494,1.2633,-0.3824,-0.2477,-0.1172,0.0144,-28.08,-32.7,-11.04,,adl
7.741056,0.3494,1.2633,-0.3824,-0.2818,-0.2988,-0.033,-28.08,-32.7,-11.04,,adl
7.755419,0.3494,1.2633,-0.3824,-0.2818,-0.2988,-0.033,-28.08,-32.7,-11.04,,adl
7.756486,-0.184,-1.1245,0.9711,-0.2818,-0.2988,-0.033,-28.08,-32.7,-11.04,,adl
7.758076,-0.184,-1.1245,0.9711,-0.081,-0.2274,-0.0431,-28.08,-32.7,-11.04,,adl
7.779819,-0.184,-1.1245,0.9711,0.2269,0.0874,-0.0186,-28.08,-32.7,-11.04,,adl
7.800698,-0.184,-1.1245,0.9711,0.2269,0.0874,-0.0186,-28.32,-32.88,-10.8,,adl
7.802277,-0.184,-1.1245,0.9711,0.31,0.3691,-0.0027,-28.32,-32.88,-10.8,,adl
7.817413,-0.184,-1.1245,0.9711,0.31,0.3691,-0.0027,-28.32,-32.88,-10.8,,adl
7.818947,-0.026,0.9325,-0.6937,0.31,0.3691,-0.0027,-28.32,-32.88,-10.8,,adl
7.820114,-0.026,0.9325,-0.6937,0.1625,0.3084,0.0399,-28.32,-32.88,-10.8,,adl
7.841097,-0.026,0.9325,-0.6937,-0.1268,-0.0352,0.0501,-28.32,-32.88,-10.8,,adl
7.861993,-0.026,0.9325,-0.6937,-0.1268,-0.0352,0.0501,-28.38,-32.94,-10.62,,adl
7.863587,-0.026,0.9325,-0.6937,-0.318,-0.2258,-0.0181,-28.38,-32.94,-10.62,,adl
7.877225,-0.026,0.9325,-0.6937,-0.318,-0.2258,-0.0181,-28.38,-32.94,-10.62,,adl
7.878635,0.2522,-0.4144,1.1124,-0.318,-0.2258,-0.0181,-28.38,-32.94,-10.62,,adl
7.881473,0.2522,-0.4144,1.1124,-0.2823,-0.2264,-0.0543,-28.38,-32.94,-10.62,,adl
7.90247,0.2522,-0.4144,1.1124,-0.0288,-0.1577,-0.0538,-28.38,-32.94,-10.62,,adl
7.923294,0.2522,-0.4144,1.1124,-0.0288,-0.1577,-0.0538,-28.2,-33.12,-10.32,,adl
7.925206,0.2522,-0.4144,1.1124,0.27,0.0975,-0.0128,-28.2,-33.12,-10.32,,adl
7.938958,0.2522,-0.4144,1.1124,0.27,0.0975,-0.0128,-28.2,-33.12,-10.32,,adl
7.939978,-0.65,-0.1708,-0.7097,0.27,0.0975,-0.0128,-28.2,-33.12,-10.32,,adl
7.943764,-0.65,-0.1708,-0.7097,0.3409,0.3462,0.0218,-28.2,-33.12,-10.32,,adl
7.963352,-0.65,-0.1708,-0.7097,0.2029,0.2519,0.0708,-28.2,-33.12,-10.32,,adl
7.984925,-0.65,-0.1708,-0.7097,0.2029,0.2519,0.0708,-28.38,-32.64,-10.32,,adl
7.986412,-0.65,-0.1708,-0.7097,-0.0799,-0.0479,0.0714,-28.38,-32.64,-10.32,,adl
8.00089,-0.65,-0.1708,-0.7097,-0.0799,-0.0479,0.0714,-28.38,-32.64,-10.32,,adl
8.00235,0.962,0.85,-0.1304,-0.0799,-0.0479,0.0714,-28.38,-32.64,-10.32,,adl
8.003598,0.962,0.85,-0.1304,-0.2312,-0.1593,-0.0229,-28.38,-32.64,-10.32,,adl
8.025273,0.962,0.85,-0.1304,-0.1896,-0.1252,-0.0549,-28.38,-32.64,-10.32,,adl
8.046625,0.962,0.85,-0.1304,-0.1896,-0.1252,-0.0549,-28.2,-32.4,-10.26,,adl
8.048184,0.962,0.85,-0.1304,-0.1683,-0.0874,-0.0687,-28.2,-32.4,-10.26,,adl
8.061166,0.962,0.85,-0.1304,-0.1683,-0.0874,-0.0687,-28.2,-32.4,-10.26,,adl
8.062611,-0.4238,-0.7639,1.23,-0.1683,-0.0874,-0.0687,-28.2,-32.4,-10.26,,adl
8.06536,-0.4238,-0.7639,1.23,-0.1209,-0.1678,-0.0623,-28.2,-32.4,-10.26,,adl
8.086039,-0.4238,-0.7639,1.23,0.1023,-0.1017,-0.0245,-28.2,-32.4,-10.26,,adl
8.108142,-0.4238,-0.7639,1.23,0.1023,-0.1017,-0.0245,-28.32,-32.4,-11.04,,adl
8.109731,-0.4238,-0.7639,1.23,0.3718,0.2024,0.0336,-28.32,-32.4,-11.04,,adl
8.123093,-0.4238,-0.7639,1.23,0.3718,0.2024,0.0336,-28.32,-32.4,-11.04,,adl
8.12405,-0.1206,1.0543,-0.823,0.3718,0.2024,0.0336,-28.32,-32.4,-11.04,,adl
8.128121,-0.1206,1.0543,-0.823,0.3883,0.391,0.0671,-28.32,-32.4,-11.04,,adl
8.147923,-0.1206,1.0543,-0.823,0.082,0.2226,0.0772,-28.32,-32.4,-11.04,,adl
8.167917,-0.1206,1.0543,-0.823,0.082,0.2226,0.0772,-28.68,-32.52,-10.74,,adl
8.169374,-0.1206,1.0543,-0.823,-0.2482,-0.098,0.0053,-28.68,-32.52,-10.74,,adl
8.185059,-0.1206,1.0543,-0.823,-0.2482,-0.098,0.0053,-28.68,-32.52,-10.74,,adl
8.186603,0.505,0.8266,0.1975,-0.2482,-0.098,0.0053,-28.68,-32.52,-10.74,,adl
8.187788,0.505,0.8266,0.1975,-0.3095,-0.2397,-0.0959,-28.68,-32.52,-10.74,,adl
8.209795,0.505,0.8266,0.1975,-0.2061,-0.1822,-0.0953,-28.68,-32.52,-10.74,,adl
8.23068,0.505,0.8266,0.1975,-0.2061,-0.1822,-0.0953,-28.62,-32.76,-10.62,,adl
8.23217,0.505,0.8266,0.1975,-0.1076,-0.1033,-0.0767,-28.62,-32.76,-10.62,,adl
8.246958,0.505,0.8266,0.1975,-0.1076,-0.1033,-0.0767,-28.62,-32.76,-10.62,,adl
8.248411,-0.5324,-0.7678,0.9337,-0.1076,-0.1033,-0.0767,-28.62,-32.76,-10.62,,adl
8.249853,-0.5324,-0.7678,0.9337,0.0181,-0.0463,-0.0256,-28.62,-32.76,-10.62,,adl
8.271183,-0.5324,-0.7678,0.9337,0.2344,0.115,0.0549,-28.62,-32.76,-10.62,,adl
8.293117,-0.5324,-0.7678,0.9337,0.2344,0.115,0.0549,-28.62,-32.64,-10.74,,adl
8.294636,-0.5324,-0.7678,0.9337,0.3515,0.261,0.0895,-28.62,-32.64,-10.74,,adl
8.309759,-0.5324,-0.7678,0.9337,0.3515,0.261,0.0895,-28.62,-32.64,-10.74,,adl
8.311213,0.9409,1.5425,-0.8516,0.3515,0.261,0.0895,-28.62,-32.64,-10.74,,adl
8.312698,0.9409,1.5425,-0.8516,0.2141,0.245,0.1023,-28.62,-32.64,-10.74,,adl
8.333256,0.9409,1.5425,-0.8516,-0.1289,-0.0053,0.0357,-28.62,-32.64,-10.74,,adl
8.354498,0.9409,1.5425,-0.8516,-0.1289,-0.0053,0.0357,-28.38,-32.64,-9.84,,adl
8.356246,0.9409,1.5425,-0.8516,-0.319,-0.1965,-0.0778,-28.38,-32.64,-9.84,,adl
8.370041,0.9409,1.5425,-0.8516,-0.319,-0.1965,-0.0778,-28.38,-32.64,-9.84,,adl
8.370987,0.5095,0.1558,0.9152,-0.319,-0.1965,-0.0778,-28.38,-32.64,-9.84,,adl
8.374578,0.5095,0.1558,0.9152,-0.2945,-0.2338,-0.1129,-28.38,-32.64,-9.84,,adl
8.394943,0.5095,0.1558,0.9152,-0.1348,-0.1646,-0.1166,-28.38,-32.64,-9.84,,adl
8.415967,0.5095,0.1558,0.9152,-0.1348,-0.1646,-0.1166,-28.14,-32.7,-10.2,,adl
8.417659,0.5095,0.1558,0.9152,0.0969,-0.0059,-0.0581,-28.14,-32.7,-10.2,,adl
8.431664,0.5095,0.1558,0.9152,0.0969,-0.0059,-0.0581,-28.14,-32.7,-10.2,,adl
8.433366,-0.7923,-0.3794,0.2516,0.0969,-0.0059,-0.0581,-28.14,-32.7,-10.2,,adl
8.434599,-0.7923,-0.3794,0.2516,0.2919,0.1832,0.0154,-28.14,-32.7,-10.2,,adl
8.456439,-0.7923,-0.3794,0.2516,0.3366,0.2913,0.0714,-28.14,-32.7,-10.2,,adl
8.475845,-0.7923,-0.3794,0.2516,0.3366,0.2913,0.0714,-28.62,-32.7,-9.96,,adl
8.477211,-0.7923,-0.3794,0.2516,0.123,0.1779,0.1177,-28.62,-32.7,-9.96,,adl
8.492982,-0.7923,-0.3794,0.2516,0.123,0.1779,0.1177,-28.62,-32.7,-9.96,,adl
8.494342,1.3776,1.4893,-0.7011,0.123,0.1779,0.1177,-28.62,-32.7,-9.96,,adl
8.496123,1.3776,1.4893,-0.7011,-0.1699,-0.0586,0.0463,-28.62,-32.7,-9.96,,adl
8.517236,1.3776,1.4893,-0.7011,-0.2786,-0.1779,-0.0613,-28.62,-32.7,-9.96,,adl
8.53875,1.3776,1.4893,-0.7011,-0.2786,-0.1779,-0.0613,-28.8,-32.94,-10.14,,adl
8.540429,1.3776,1.4893,-0.7011,-0.1907,-0.139,-0.0943,-28.8,-32.94,-10.14,,adl
8.554987,1.3776,1.4893,-0.7011,-0.1907,-0.139,-0.0943,-28.8,-32.94,-10.14,,adl
8.556153,-0.0527,-0.3919,1.1011,-0.1907,-0.139,-0.0943,-28.8,-32.94,-10.14,,adl
8.560664,-0.0527,-0.3919,1.1011,-0.0975,-0.1017,-0.0959,-28.8,-32.94,-10.14,,adl
8.578461,-0.0527,-0.3919,1.1011,0.0165,-0.0719,-0.0767,-28.8,-32.94,-10.14,,adl
8.600292,-0.0527,-0.3919,1.1011,0.0165,-0.0719,-0.0767,-28.86,-33.3,-10.44,,adl
8.601903,-0.0527,-0.3919,1.1011,0.1949,0.0836,-0.0059,-28.86,-33.3,-10.44,,adl
8.616178,-0.0527,-0.3919,1.1011,0.1949,0.0836,-0.0059,-28.86,-33.3,-10.44,,adl
8.617874,-0.2664,0.504,-0.0648,0.1949,0.0836,-0.0059,-28.86,-33.3,-10.44,,adl
8.619175,-0.2664,0.504,-0.0648,0.3222,0.2567,0.066,-28.86,-33.3,-10.44,,adl
8.640881,-0.2664,0.504,-0.0648,0.2035,0.2162,0.0879,-28.86,-33.3,-10.44,,adl
8.661717,-0.2664,0.504,-0.0648,0.2035,0.2162,0.0879,-28.5,-33.24,-10.68,,adl
8.663312,-0.2664,0.504,-0.0648,-0.0921,0.0272,0.0538,-28.5,-33.24,-10.68,,adl
8.677596,-0.2664,0.504,-0.0648,-0.0921,0.0272,0.0538,-28.5,-33.24,-10.68,,adl
8.679065,1.0315,0.809,-0.3365,-0.0921,0.0272,0.0538,-28.5,-33.24,-10.68,,adl
8.680855,1.0315,0.809,-0.3365,-0.2791,-0.1316,-0.0415,-28.5,-33.24,-10.68,,adl
8.702273,1.0315,0.809,-0.3365,-0.1907,-0.1545,-0.0911,-28.5,-33.24,-10.68,,adl
8.72238,1.0315,0.809,-0.3365,-0.1907,-0.1545,-0.0911,-27.84,-33.3,-11.16,,adl
8.723045,1.0315,0.809,-0.3365,-0.0218,-0.0442,-0.0991,-27.84,-33.3,-11.16,,adl
8.737799,1.0315,0.809,-0.3365,-0.0218,-0.0442,-0.0991,-27.84,-33.3,-11.16,,adl
8.738182,-0.4984,-0.3999,0.8334,-0.0218,-0.0442,-0.0991,-27.84,-33.3,-11.16,,adl
8.741419,-0.4984,-0.3999,0.8334,0.0032,0.0383,-0.0746,-27.84,-33.3,-11.16,,adl
8.762614,-0.4984,-0.3999,0.8334,-0.0234,-0.0304,-0.0181,-27.84,-33.3,-11.16,,adl
8.783875,-0.4984,-0.3999,0.8334,-0.0234,-0.0304,-0.0181,-27.84,-33.18,-10.98,,adl
8.784441,-0.4984,-0.3999,0.8334,0.1044,0.0059,0.0272,-27.84,-33.18,-10.98,,adl
8.799535,-0.4984,-0.3999,0.8334,0.1044,0.0059,0.0272,-27.84,-33.18,-10.98,,adl
8.800193,-0.0606,0.1269,0.0594,0.1044,0.0059,0.0272,-27.84,-33.18,-10.98,,adl
8.803322,-0.0606,0.1269,0.0594,0.2844,0.1822,0.0469,-27.84,-33.18,-10.98,,adl
8.824895,-0.0606,0.1269,0.0594,0.2583,0.2402,0.0469,-27.84,-33.18,-10.98,,adl
8.846175,-0.0606,0.1269,0.0594,0.2583,0.2402,0.0469,-27.96,-33.0,-11.04,,adl
8.847389,-0.0606,0.1269,0.0594,-0.0176,0.0794,0.0426,-27.96,-33.0,-11.04,,adl
8.861872,-0.0606,0.1269,0.0594,-0.0176,0.0794,0.0426,-27.96,-33.0,-11.04,,adl
8.863329,1.0334,0.7706,-0.7195,-0.0176,0.0794,0.0426,-27.96,-33.0,-11.04,,adl
8.865981,1.0334,0.7706,-0.7195,-0.277,-0.1747,-0.0192,-27.96,-33.0,-11.04,,adl
8.886013,1.0334,0.7706,-0.7195,-0.2855,-0.2365,-0.0687,-27.96,-33.0,-11.04,,adl
8.907985,1.0334,0.7706,-0.7195,-0.2855,-0.2365,-0.0687,-28.26,-33.12,-10.98,,adl
8.909767,1.0334,0.7706,-0.7195,-0.0581,-0.0911,-0.0826,-28.26,-33.12,-10.98,,adl
8.923318,1.0334,0.7706,-0.7195,-0.0581,-0.0911,-0.0826,-28.26,-33.12,-10.98,,adl
8.924204,-0.307,-0.494,0.9207,-0.0581,-0.0911,-0.0826,-28.26,-33.12,-10.98,,adl
8.928387,-0.307,-0.494,0.9207,0.0639,0.0629,-0.0644,-28.26,-33.12,-10.98,,adl
8.948259,-0.307,-0.494,0.9207,-0.0192,0.0277,-0.0064,-28.26,-33.12,-10.98,,adl
8.969326,-0.307,-0.494,0.9207,-0.0192,0.0277,-0.0064,-28.14,-33.06,-10.8,,adl
8.970984,-0.307,-0.494,0.9207,-0.0517,-0.0783,0.0186,-28.14,-33.06,-10.8,,adl
8.985159,-0.307,-0.494,0.9207,-0.0517,-0.0783,0.0186,-28.14,-33.06,-10.8,,adl
8.986533,-0.2853,-0.2589,0.8547,-0.0517,-0.0783,0.0186,-28.14,-33.06,-10.8,,adl
8.987683,-0.2853,-0.2589,0.8547,0.131,0.0202,0.0293,-28.14,-33.06,-10.8,,adl
9.009651,-0.2853,-0.2589,0.8547,0.3068,0.18,0.0469,-28.14,-33.06,-10.8,,adl
9.031031,-0.2853,-0.2589,0.8547,0.3068,0.18,0.0469,-28.38,-33.0,-11.22,,adl
9.032666,-0.2853,-0.2589,0.8547,0.2514,0.1955,0.025,-28.38,-33.0,-11.22,,adl
9.048373,-0.2853,-0.2589,0.8547,0.2514,0.1955,0.025,-28.38,-33.0,-11.22,,adl
9.050399,1.1465,1.6196,-1.4117,0.2514,0.1955,0.025,-28.38,-33.0,-11.22,,adl
9.051602,1.1465,1.6196,-1.4117,-0.0437,0.0676,0.0192,-28.38,-33.0,-11.22,,adl
9.070446,1.1465,1.6196,-1.4117,-0.2594,-0.0985,-0.016,-28.38,-33.0,-11.22,,adl
9.092645,1.1465,1.6196,-1.4117,-0.2594,-0.0985,-0.016,-28.08,-32.88,-11.28,,adl
9.094346,1.1465,1.6196,-1.4117,-0.2455,-0.1838,-0.0783,-28.08,-32.88,-11.28,,adl
9.109266,1.1465,1.6196,-1.4117,-0.2455,-0.1838,-0.0783,-28.08,-32.88,-11.28,,adl
9.110662,0.125,-0.133,0.975,-0.2455,-0.1838,-0.0783,-28.08,-32.88,-11.28,,adl
9.111938,0.125,-0.133,0.975,-0.0511,-0.0964,-0.0874,-28.08,-32.88,-11.28,,adl
9.132927,0.125,-0.133,0.975,0.0442,0.0362,-0.0671,-28.08,-32.88,-11.28,,adl
9.153666,0.125,-0.133,0.975,0.0442,0.0362,-0.0671,-27.9,-32.7,-11.1,,adl
9.155227,0.125,-0.133,0.975,-0.0399,0.0202,-0.008,-27.9,-32.7,-11.1,,adl
9.169896,0.125,-0.133,0.975,-0.0399,0.0202,-0.008,-27.9,-32.7,-11.1,,adl
9.171431,-0.3118,-0.4156,1.1246,-0.0399,0.0202,-0.008,-27.9,-32.7,-11.1,,adl
9.179091,-0.3118,-0.4156,1.1246,-0.1055,-0.0927,0.0298,-27.9,-32.7,-11.1,,adl
9.194826,-0.3118,-0.4156,1.1246,0.0666,-0.0208,0.0277,-27.9,-32.7,-11.1,,adl
9.214587,-0.3118,-0.4156,1.1246,0.0666,-0.0208,0.0277,-28.38,-32.82,-11.52,,adl
9.216263,-0.3118,-0.4156,1.1246,0.2924,0.1587,0.0362,-28.38,-32.82,-11.52,,adl
9.229623,-0.3118,-0.4156,1.1246,0.2924,0.1587,0.0362,-28.38,-32.82,-11.52,,adl
9.230096,0.4871,0.845,-1.0033,0.2924,0.1587,0.0362,-28.38,-32.82,-11.52,,adl
9.233726,0.4871,0.845,-1.0033,0.3137,0.221,0.0266,-28.38,-32.82,-11.52,,adl
9.254099,0.4871,0.845,-1.0033,0.0671,0.1273,0.0197,-28.38,-32.82,-11.52,,adl
9.275259,0.4871,0.845,-1.0033,0.0671,0.1273,0.0197,-28.02,-32.76,-10.86,,adl
9.275996,0.4871,0.845,-1.0033,-0.2232,-0.0256,0.0128,-28.02,-32.76,-10.86,,adl
9.29118,0.4871,0.845,-1.0033,-0.2232,-0.0256,0.0128,-28.02,-32.76,-10.86,,adl
9.291869,0.8727,0.82,0.2731,-0.2232,-0.0256,0.0128,-28.02,-32.76,-10.86,,adl
9.295365,0.8727,0.82,0.2731,-0.3084,-0.1774,-0.065,-28.02,-32.76,-10.86,,adl
9.31629,0.8727,0.82,0.2731,-0.1369,-0.1891,-0.0985,-28.02,-32.76,-10.86,,adl
9.33707,0.8727,0.82,0.2731,-0.1369,-0.1891,-0.0985,-27.84,-33.0,-10.8,,adl
9.337518,0.8727,0.82,0.2731,0.057,-0.0368,-0.0783,-27.84,-33.0,-10.8,,adl
9.352985,0.8727,0.82,0.2731,0.057,-0.0368,-0.0783,-27.84,-33.0,-10.8,,adl
9.353704,-0.5689,-0.4306,0.3758,0.057,-0.0368,-0.0783,-27.84,-33.0,-10.8,,adl
9.35718,-0.5689,-0.4306,0.3758,0.0453,0.0895,-0.0165,-27.84,-33.0,-10.8,,adl
9.377787,-0.5689,-0.4306,0.3758,-0.1049,0.0048,0.0463,-27.84,-33.0,-10.8,,adl
9.398628,-0.5689,-0.4306,0.3758,-0.1049,0.0048,0.0463,-28.02,-33.6,-11.1,,adl
9.39935,-0.5689,-0.4306,0.3758,-0.0772,-0.0783,0.0458,-28.02,-33.6,-11.1,,adl
9.414405,-0.5689,-0.4306,0.3758,-0.0772,-0.0783,0.0458,-28.02,-33.6,-11.1,,adl
9.41516,-0.0789,-0.2134,0.9092,-0.0772,-0.0783,0.0458,-28.02,-33.6,-11.1,,adl
9.41816,-0.0789,-0.2134,0.9092,0.1577,0.0373,0.024,-28.02,-33.6,-11.1,,adl
9.438794,-0.0789,-0.2134,0.9092,0.3089,0.1683,0.025,-28.02,-33.6,-11.1,,adl
9.46,-0.0789,-0.2134,0.9092,0.3089,0.1683,0.025,-27.42,-33.72,-11.04,,adl
9.460761,-0.0789,-0.2134,0.9092,0.2088,0.1672,-0.0011,-27.42,-33.72,-11.04,,adl
9.475857,-0.0789,-0.2134,0.9092,0.2088,0.1672,-0.0011,-27.42,-33.72,-11.04,,adl
9.476458,0.9619,1.5685,-1.3428,0.2088,0.1672,-0.0011,-27.42,-33.72,-11.04,,adl
9.479705,0.9619,1.5685,-1.3428,-0.0538,0.0783,-0.0027,-27.42,-33.72,-11.04,,adl
9.500443,0.9619,1.5685,-1.3428,-0.2487,-0.0655,-0.0218,-27.42,-33.72,-11.04,,adl
9.522018,0.9619,1.5685,-1.3428,-0.2487,-0.0655,-0.0218,-27.54,-33.9,-11.4,,adl
9.523221,0.9619,1.5685,-1.3428,-0.2285,-0.1598,-0.0799,-27.54,-33.9,-11.4,,adl
9.53757,0.9619,1.5685,-1.3428,-0.2285,-0.1598,-0.0799,-27.54,-33.9,-11.4,,adl
9.537988,0.1164,-0.1889,0.9238,-0.2285,-0.1598,-0.0799,-27.54,-33.9,-11.4,,adl
9.54142,0.1164,-0.1889,0.9238,-0.041,-0.1145,-0.0964,-27.54,-33.9,-11.4,,adl
9.561719,0.1164,-0.1889,0.9238,0.0746,0.0011,-0.0751,-27.54,-33.9,-11.4,,adl
9.58317,0.1164,-0.1889,0.9238,0.0746,0.0011,-0.0751,-27.96,-34.02,-11.46,,adl
9.584756,0.1164,-0.1889,0.9238,0.0389,0.0181,-0.016,-27.96,-34.02,-11.46,,adl
9.598833,0.1164,-0.1889,0.9238,0.0389,0.0181,-0.016,-27.96,-34.02,-11.46,,adl
9.599466,-0.2926,-0.134,0.6389,0.0389,0.0181,-0.016,-27.96,-34.02,-11.46,,adl
9.602704,-0.2926,-0.134,0.6389,-0.0618,-0.0399,0.0479,-27.96,-34.02,-11.46,,adl
9.623331,-0.2926,-0.134,0.6389,-0.0304,-0.0533,0.0506,-27.96,-34.02,-11.46,,adl
9.644728,-0.2926,-0.134,0.6389,-0.0304,-0.0533,0.0506,-27.48,-33.66,-11.58,,adl
9.645389,-0.2926,-0.134,0.6389,0.0927,0.033,0.0144,-27.48,-33.66,-11.58,,adl
9.660453,-0.2926,-0.134,0.6389,0.0927,0.033,0.0144,-27.48,-33.66,-11.58,,adl
9.661158,0.0296,0.0784,-0.3081,0.0927,0.033,0.0144,-27.48,-33.66,-11.58,,adl
9.664337,0.0296,0.0784,-0.3081,0.1486,0.1241,-0.0032,-27.48,-33.66,-11.58,,adl
9.684986,0.0296,0.0784,-0.3081,0.0767,0.1033,-0.0053,-27.48,-33.66,-11.58,,adl
9.706055,0.0296,0.0784,-0.3081,0.0767,0.1033,-0.0053,-27.9,-33.9,-11.7,,adl
9.706652,0.0296,0.0784,-0.3081,-0.0394,0.032,-0.0213,-27.9,-33.9,-11.7,,adl
9.722936,0.0296,0.0784,-0.3081,-0.0394,0.032,-0.0213,-27.9,-33.9,-11.7,,adl
9.723565,0.5862,0.8912,0.0333,-0.0394,0.032,-0.0213,-27.9,-33.9,-11.7,,adl
9.726098,0.5862,0.8912,0.0333,-0.1113,-0.0288,-0.024,-27.9,-33.9,-11.7,,adl
9.746812,0.5862,0.8912,0.0333,-0.1007,-0.0538,-0.0362,-27.9,-33.9,-11.7,,adl
9.76787,0.5862,0.8912,0.0333,-0.1007,-0.0538,-0.0362,-27.42,-34.02,-11.58,,adl
9.768725,0.5862,0.8912,0.0333,-0.0554,-0.0692,-0.0426,-27.42,-34.02,-11.58,,adl
9.783575,0.5862,0.8912,0.0333,-0.0554,-0.0692,-0.0426,-27.42,-34.02,-11.58,,adl
9.784238,-0.2505,-0.542,0.2861,-0.0554,-0.0692,-0.0426,-27.42,-34.02,-11.58,,adl
9.787487,-0.2505,-0.542,0.2861,-0.0075,-0.0575,-0.0469,-27.42,-34.02,-11.58,,adl
9.808641,-0.2505,-0.542,0.2861,0.0144,-0.0069,-0.0346,-27.42,-34.02,-11.58,,adl
9.831122,-0.2505,-0.542,0.2861,0.0144,-0.0069,-0.0346,-27.18,-33.9,-11.7,,adl
9.832697,-0.2505,-0.542,0.2861,0.0053,0.0154,-0.0048,-27.18,-33.9,-11.7,,adl
9.847222,-0.2505,-0.542,0.2861,0.0053,0.0154,-0.0048,-27.18,-33.9,-11.7,,adl
9.848858,-0.1346,-0.0317,0.6394,0.0053,0.0154,-0.0048,-27.18,-33.9,-11.7,,adl
9.850115,-0.1346,-0.0317,0.6394,0.0314,-0.0085,0.0245,-27.18,-33.9,-11.7,,adl
9.871193,-0.1346,-0.0317,0.6394,0.066,0.0154,0.0261,-27.18,-33.9,-11.7,,adl
9.8909,-0.1346,-0.0317,0.6394,0.066,0.0154,0.0261,-27.66,-34.02,-11.22,,adl
9.892299,-0.1346,-0.0317,0.6394,0.065,0.0533,0.0128,-27.66,-34.02,-11.22,,adl
9.908897,-0.1346,-0.0317,0.6394,0.065,0.0533,0.0128,-27.66,-34.02,-11.22,,adl
9.910422,0.2349,0.5194,-0.3316,0.065,0.0533,0.0128,-27.66,-34.02,-11.22,,adl
9.911636,0.2349,0.5194,-0.3316,0.0293,0.0421,-0.0101,-27.66,-34.02,-11.22,,adl
9.932173,0.2349,0.5194,-0.3316,-0.0176,0.0288,-0.0229,-27.66,-34.02,-11.22,,adl
9.95367,0.2349,0.5194,-0.3316,-0.0176,0.0288,-0.0229,-27.42,-33.78,-10.86,,adl
9.955142,0.2349,0.5194,-0.3316,-0.0602,0.0133,-0.0192,-27.42,-33.78,-10.86,,adl
9.969538,0.2349,0.5194,-0.3316,-0.0602,0.0133,-0.0192,-27.42,-33.78,-10.86,,adl
9.971151,0.1323,0.0706,0.3669,-0.0602,0.0133,-0.0192,-27.42,-33.78,-10.86,,adl
9.97298,0.1323,0.0706,0.3669,-0.0586,-0.0453,-0.0202,-27.42,-33.78,-10.86,,adl
9.994425,0.1323,0.0706,0.3669,-0.0064,-0.0687,-0.0186,-27.42,-33.78,-10.86,,adl
10.015629,0.1323,0.0706,0.3669,-0.0064,-0.0687,-0.0186,-27.78,-33.66,-11.22,,adl
10.017384,0.1323,0.0706,0.3669,0.0639,-0.0224,-0.0091,-27.78,-33.66,-11.22,,adl
10.031622,0.1323,0.0706,0.3669,0.0639,-0.0224,-0.0091,-27.78,-33.66,-11.22,,adl
10.033265,-0.2113,-0.1262,0.005,0.0639,-0.0224,-0.0091,-27.78,-33.66,-11.22,,adl
10.034432,-0.2113,-0.1262,0.005,0.0671,0.032,0.0005,-27.78,-33.66,-11.22,,adl
10.055345,-0.2113,-0.1262,0.005,0.0256,0.0218,0.0123,-27.78,-33.66,-11.22,,adl
10.076298,-0.2113,-0.1262,0.005,0.0256,0.0218,0.0123,-28.2,-33.42,-11.1,,adl
10.077783,-0.2113,-0.1262,0.005,-0.0032,-0.0091,0.0138,-28.2,-33.42,-11.1,,adl
10.092669,-0.2113,-0.1262,0.005,-0.0032,-0.0091,0.0138,-28.2,-33.42,-11.1,,adl
10.094112,0.1176,0.1045,0.2889,-0.0032,-0.0091,0.0138,-28.2,-33.42,-11.1,,adl
10.095506,0.1176,0.1045,0.2889,0.0021,-0.0186,0.0133,-28.2,-33.42,-11.1,,adl
10.117032,0.1176,0.1045,0.2889,0.0138,-0.0154,0.0133,-28.2,-33.42,-11.1,,adl
10.138547,0.1176,0.1045,0.2889,0.0138,-0.0154,0.0133,-28.38,-33.36,-11.34,,adl
10.140143,0.1176,0.1045,0.2889,0.0176,-0.008,0.0064,-28.38,-33.36,-11.34,,adl
10.156614,0.1176,0.1045,0.2889,0.0176,-0.008,0.0064,-28.38,-33.36,-11.34,,adl
10.157632,-0.0491,0.0577,0.0848,0.0176,-0.008,0.0064,-28.38,-33.36,-11.34,,adl
10.158808,-0.0491,0.0577,0.0848,0.0117,0.0064,-0.0059,-28.38,-33.36,-11.34,,adl
10.178691,-0.0491,0.0577,0.0848,0.0053,0.0123,-0.0138,-28.38,-33.36,-11.34,,adl
10.199174,-0.0491,0.0577,0.0848,0.0053,0.0123,-0.0138,-28.56,-33.18,-11.88,,adl
10.200454,-0.0491,0.0577,0.0848,-0.0011,0.0037,-0.0181,-28.56,-33.18,-11.88,,adl
10.215075,-0.0491,0.0577,0.0848,-0.0011,0.0037,-0.0181,-28.56,-33.18,-11.88,,adl
10.21662,-0.0783,0.1047,0.1582,-0.0011,0.0037,-0.0181,-28.56,-33.18,-11.88,,adl
10.219421,-0.0783,0.1047,0.1582,-0.008,-0.0037,-0.0154,-28.56,-33.18,-11.88,,adl
10.240741,-0.0783,0.1047,0.1582,-0.0123,0.0016,-0.0107,-28.56,-33.18,-11.88,,adl
10.262245,-0.0783,0.1047,0.1582,-0.0123,0.0016,-0.0107,-28.56,-33.72,-11.28,,adl
10.263774,-0.0783,0.1047,0.1582,-0.0048,0.008,-0.0053,-28.56,-33.72,-11.28,,adl
10.276336,-0.0783,0.1047,0.1582,-0.0048,0.008,-0.0053,-28.56,-33.72,-11.28,,adl
10.277852,-0.0352,-0.0198,0.1798,-0.0048,0.008,-0.0053,-28.56,-33.72,-11.28,,adl
10.280434,-0.0352,-0.0198,0.1798,0.0053,0.0032,-0.0048,-28.56,-33.72,-11.28,,adl
10.302334,-0.0352,-0.0198,0.1798,0.0005,-0.0075,-0.0048,-28.56,-33.72,-11.28,,adl
10.322493,-0.0352,-0.0198,0.1798,0.0005,-0.0075,-0.0048,-28.26,-34.26,-11.04,,adl
10.324101,-0.0352,-0.0198,0.1798,-0.008,-0.0064,-0.0053,-28.26,-34.26,-11.04,,adl
10.339538,-0.0352,-0.0198,0.1798,-0.008,-0.0064,-0.0053,-28.26,-34.26,-11.04,,adl
10.340509,0.0468,0.0616,0.165,-0.008,-0.0064,-0.0053,-28.26,-34.26,-11.04,,adl
10.341838,0.0468,0.0616,0.165,-0.0053,0.0011,-0.0085,-28.26,-34.26,-11.04,,adl
10.363867,0.0468,0.0616,0.165,0.0021,0.0011,-0.0091,-28.26,-34.26,-11.04,,adl
10.383526,0.0468,0.0616,0.165,0.0021,0.0011,-0.0091,-27.9,-34.02,-10.38,,adl
10.385262,0.0468,0.0616,0.165,0.0075,0.0021,-0.0112,-27.9,-34.02,-10.38,,adl
10.401231,0.0468,0.0616,0.165,0.0075,0.0021,-0.0112,-27.9,-34.02,-10.38,,adl
10.402658,0.0217,0.0212,0.1219,0.0075,0.0021,-0.0112,-27.9,-34.02,-10.38,,adl
10.403491,0.0217,0.0212,0.1219,0.0027,0.0032,-0.0091,-27.9,-34.02,-10.38,,adl
10.425489,0.0217,0.0212,0.1219,-0.0096,-0.0027,-0.0037,-27.9,-34.02,-10.38,,adl
10.446281,0.0217,0.0212,0.1219,-0.0096,-0.0027,-0.0037,-27.48,-34.08,-9.84,,adl
10.447875,0.0217,0.0212,0.1219,-0.0021,-0.0075,-0.0016,-27.48,-34.08,-9.84,,adl
10.462995,0.0217,0.0212,0.1219,-0.0021,-0.0075,-0.0016,-27.48,-34.08,-9.84,,adl
10.46461,-0.01,0.0693,0.1695,-0.0021,-0.0075,-0.0016,-27.48,-34.08,-9.84,,adl
10.465859,-0.01,0.0693,0.1695,0.0117,0.0085,0.0005,-27.48,-34.08,-9.84,,adl
10.48684,-0.01,0.0693,0.1695,0.0091,0.0112,-0.0011,-27.48,-34.08,-9.84,,adl
10.507095,-0.01,0.0693,0.1695,0.0091,0.0112,-0.0011,-27.42,-33.54,-9.78,,adl
10.508835,-0.01,0.0693,0.1695,0.0037,0.0011,-0.0064,-27.42,-33.54,-9.78,,adl
10.526657,-0.01,0.0693,0.1695,0.0037,0.0011,-0.0064,-27.42,-33.54,-9.78,,adl
10.528057,-0.0185,0.0516,0.1271,0.0037,0.0011,-0.0064,-27.42,-33.54,-9.78,,adl
10.529466,-0.0185,0.0516,0.1271,-0.0005,-0.0021,-0.0112,-27.42,-33.54,-9.78,,adl
10.548655,-0.0185,0.0516,0.1271,-0.0032,0.0,-0.0107,-27.42,-33.54,-9.78,,adl
10.569659,-0.0185,0.0516,0.1271,-0.0032,0.0,-0.0107,-27.3,-33.06,-9.9,,adl
10.571336,-0.0185,0.0516,0.1271,-0.008,0.0005,-0.0085,-27.3,-33.06,-9.9,,adl
10.5858,-0.0185,0.0516,0.1271,-0.008,0.0005,-0.0085,-27.3,-33.06,-9.9,,adl
10.58739,-0.0257,0.0175,0.151,-0.008,0.0005,-0.0085,-27.3,-33.06,-9.9,,adl
10.588805,-0.0257,0.0175,0.151,-0.0053,0.0043,-0.0027,-27.3,-33.06,-9.9,,adl
10.609057,-0.0257,0.0175,0.151,-0.0011,0.0075,-0.0011,-27.3,-33.06,-9.9,,adl
10.631393,-0.0257,0.0175,0.151,-0.0011,0.0075,-0.0011,-27.6,-33.3,-10.14,,adl
10.633304,-0.0257,0.0175,0.151,0.0053,-0.0005,-0.0032,-27.6,-33.3,-10.14,,adl
10.647125,-0.0257,0.0175,0.151,0.0053,-0.0005,-0.0032,-27.6,-33.3,-10.14,,adl
10.64887,-0.0117,0.0468,0.1346,0.0053,-0.0005,-0.0032,-27.6,-33.3,-10.14,,adl
10.649794,-0.0117,0.0468,0.1346,0.008,-0.0021,-0.0059,-27.6,-33.3,-10.14,,adl
10.671071,-0.0117,0.0468,0.1346,0.0016,0.0043,-0.0064,-27.6,-33.3,-10.14,,adl
10.692714,-0.0117,0.0468,0.1346,0.0016,0.0043,-0.0064,-28.08,-33.3,-10.02,,adl
10.694184,-0.0117,0.0468,0.1346,-0.0048,0.0053,-0.0059,-28.08,-33.3,-10.02,,adl
10.71144,-0.0117,0.0468,0.1346,-0.0048,0.0053,-0.0059,-28.08,-33.3,-10.02,,adl
10.713323,-0.0079,0.0214,0.1468,-0.0048,0.0053,-0.0059,-28.08,-33.3,-10.02,,adl
10.714447,-0.0079,0.0214,0.1468,-0.0037,0.0043,-0.0059,-28.08,-33.3,-10.02,,adl
10.733202,-0.0079,0.0214,0.1468,-0.0005,-0.0027,-0.0016,-28.08,-33.3,-10.02,,adl
10.753647,-0.0079,0.0214,0.1468,-0.0005,-0.0027,-0.0016,-28.02,-33.6,-10.32,,adl
10.755007,-0.0079,0.0214,0.1468,0.0005,-0.0043,0.0016,-28.02,-33.6,-10.32,,adl
10.769845,-0.0079,0.0214,0.1468,0.0005,-0.0043,0.0016,-28.02,-33.6,-10.32,,adl
10.771173,0.0054,0.0004,0.1682,0.0005,-0.0043,0.0016,-28.02,-33.6,-10.32,,adl
10.774722,0.0054,0.0004,0.1682,0.0005,-0.0011,0.0053,-28.02,-33.6,-10.32,,adl
10.794396,0.0054,0.0004,0.1682,0.0021,-0.0016,0.0037,-28.02,-33.6,-10.32,,adl
10.81524,0.0054,0.0004,0.1682,0.0021,-0.0016,0.0037,-28.68,-34.2,-10.2,,adl
10.816955,0.0054,0.0004,0.1682,0.0069,-0.0011,-0.0005,-28.68,-34.2,-10.2,,adl
10.830722,0.0054,0.0004,0.1682,0.0069,-0.0011,-0.0005,-28.68,-34.2,-10.2,,adl
10.832332,0.0232,0.0913,0.1225,0.0069,-0.0011,-0.0005,-28.68,-34.2,-10.2,,adl
10.835106,0.0232,0.0913,0.1225,0.0075,0.0053,-0.0064,-28.68,-34.2,-10.2,,adl
10.85731,0.0232,0.0913,0.1225,-0.0027,0.0107,-0.0069,-28.68,-34.2,-10.2,,adl
10.875596,0.0232,0.0913,0.1225,-0.0027,0.0107,-0.0069,-28.38,-34.14,-10.14,,adl
10.877024,0.0232,0.0913,0.1225,-0.0128,0.0043,-0.0085,-28.38,-34.14,-10.14,,adl
10.892044,0.0232,0.0913,0.1225,-0.0128,0.0043,-0.0085,-28.38,-34.14,-10.14,,adl
10.893235,-0.0445,0.0291,0.19,-0.0128,0.0043,-0.0085,-28.38,-34.14,-10.14,,adl
10.89546,-0.0445,0.0291,0.19,-0.0096,-0.0069,-0.008,-28.38,-34.14,-10.14,,adl
10.91672,-0.0445,0.0291,0.19,-0.0016,-0.0053,-0.008,-28.38,-34.14,-10.14,,adl
10.937925,-0.0445,0.0291,0.19,-0.0016,-0.0053,-0.008,-28.44,-34.44,-10.62,,adl
10.940383,-0.0445,0.0291,0.19,0.0048,0.0085,-0.0043,-28.44,-34.44,-10.62,,adl
10.953194,-0.0445,0.0291,0.19,0.0048,0.0085,-0.0043,-28.44,-34.44,-10.62,,adl
10.95393,-0.0164,-0.0194,0.1324,0.0048,0.0085,-0.0043,-28.44,-34.44,-10.62,,adl
10.957251,-0.0164,-0.0194,0.1324,-0.0032,0.0096,0.0,-28.44,-34.44,-10.62,,adl
10.977935,-0.0164,-0.0194,0.1324,-0.0075,0.0059,0.0011,-28.44,-34.44,-10.62,,adl
10.998926,-0.0164,-0.0194,0.1324,-0.0075,0.0059,0.0011,-28.68,-34.5,-10.62,,adl
11.000374,-0.0164,-0.0194,0.1324,-0.0032,0.0,0.0037,-28.68,-34.5,-10.62,,adl
11.014869,-0.0164,-0.0194,0.1324,-0.0032,0.0,0.0037,-28.68,-34.5,-10.62,,adl
11.016232,-0.0039,0.0119,0.1782,-0.0032,0.0,0.0037,-28.68,-34.5,-10.62,,adl
11.01931,-0.0039,0.0119,0.1782,0.0037,-0.008,0.0043,-28.68,-34.5,-10.62,,adl
11.039895,-0.0039,0.0119,0.1782,0.0112,-0.0091,0.0021,-28.68,-34.5,-10.62,,adl
11.060778,-0.0039,0.0119,0.1782,0.0112,-0.0091,0.0021,-28.2,-34.26,-11.16,,adl
11.062164,-0.0039,0.0119,0.1782,0.0085,0.0048,-0.0037,-28.2,-34.26,-11.16,,adl
11.07668,-0.0039,0.0119,0.1782,0.0085,0.0048,-0.0037,-28.2,-34.26,-11.16,,adl
11.07852,0.0223,0.0978,0.1277,0.0085,0.0048,-0.0037,-28.2,-34.26,-11.16,,adl
11.080289,0.0223,0.0978,0.1277,0.0043,0.0138,-0.008,-28.2,-34.26,-11.16,,adl
11.101462,0.0223,0.0978,0.1277,-0.0016,0.0037,-0.008,-28.2,-34.26,-11.16,,adl
11.122605,0.0223,0.0978,0.1277,-0.0016,0.0037,-0.008,-28.02,-33.96,-11.34,,adl
11.123952,0.0223,0.0978,0.1277,-0.0096,-0.0096,-0.0043,-28.02,-33.96,-11.34,,adl
11.139117,0.0223,0.0978,0.1277,-0.0096,-0.0096,-0.0043,-28.02,-33.96,-11.34,,adl
11.140047,-0.0076,-0.0086,0.1422,-0.0096,-0.0096,-0.0043,-28.02,-33.96,-11.34,,adl
11.143518,-0.0076,-0.0086,0.1422,-0.0123,-0.0016,-0.0037,-28.02,-33.96,-11.34,,adl
11.163547,-0.0076,-0.0086,0.1422,-0.0096,0.0101,-0.0027,-28.02,-33.96,-11.34,,adl
11.18498,-0.0076,-0.0086,0.1422,-0.0096,0.0101,-0.0027,-27.78,-33.84,-11.34,,adl
11.186605,-0.0076,-0.0086,0.1422,-0.0011,0.0032,-0.0005,-27.78,-33.84,-11.34,,adl
11.2005,-0.0076,-0.0086,0.1422,-0.0011,0.0032,-0.0005,-27.78,-33.84,-11.34,,adl
11.202245,-0.0174,0.0032,0.1734,-0.0011,0.0032,-0.0005,-27.78,-33.84,-11.34,,adl
11.203757,-0.0174,0.0032,0.1734,0.0096,-0.0005,-0.0032,-27.78,-33.84,-11.34,,adl
11.225116,-0.0174,0.0032,0.1734,0.0053,0.0075,-0.0043,-27.78,-33.84,-11.34,,adl
11.246178,-0.0174,0.0032,0.1734,0.0053,0.0075,-0.0043,-27.6,-33.54,-11.28,,adl
11.247718,-0.0174,0.0032,0.1734,-0.0096,0.0069,-0.0059,-27.6,-33.54,-11.28,,adl
11.261948,-0.0174,0.0032,0.1734,-0.0096,0.0069,-0.0059,-27.6,-33.54,-11.28,,adl
11.26344,0.0196,0.0576,0.1425,-0.0096,0.0069,-0.0059,-27.6,-33.54,-11.28,,adl
11.265445,0.0196,0.0576,0.1425,-0.008,-0.0005,-0.0112,-27.6,-33.54,-11.28,,adl
11.286001,0.0196,0.0576,0.1425,-0.0037,0.0037,-0.0149,-27.6,-33.54,-11.28,,adl
11.307579,0.0196,0.0576,0.1425,-0.0037,0.0037,-0.0149,-27.66,-33.42,-10.56,,adl
11.309289,0.0196,0.0576,0.1425,-0.0027,0.0064,-0.0133,-27.66,-33.42,-10.56,,adl
11.323055,0.0196,0.0576,0.1425,-0.0027,0.0064,-0.0133,-27.66,-33.42,-10.56,,adl
11.324055,-0.0404,0.0312,0.1307,-0.0027,0.0064,-0.0133,-27.66,-33.42,-10.56,,adl
11.328281,-0.0404,0.0312,0.1307,-0.008,0.0043,-0.0107,-27.66,-33.42,-10.56,,adl
11.348737,-0.0404,0.0312,0.1307,-0.0085,0.0069,-0.0085,-27.66,-33.42,-10.56,,adl
11.36981,-0.0404,0.0312,0.1307,-0.0085,0.0069,-0.0085,-28.02,-33.54,-10.38,,adl
11.371523,-0.0404,0.0312,0.1307,-0.0032,0.0032,-0.0037,-28.02,-33.54,-10.38,,adl
11.385704,-0.0404,0.0312,0.1307,-0.0032,0.0032,-0.0037,-28.02,-33.54,-10.38,,adl
11.387378,-0.0134,-0.0122,0.162,-0.0032,0.0032,-0.0037,-28.02,-33.54,-10.38,,adl
11.388424,-0.0134,-0.0122,0.162,0.0021,-0.0027,-0.0027,-28.02,-33.54,-10.38,,adl
11.40973,-0.0134,-0.0122,0.162,0.0016,-0.0037,-0.0016,-28.02,-33.54,-10.38,,adl
11.430979,-0.0134,-0.0122,0.162,0.0016,-0.0037,-0.0016,-28.26,-33.54,-10.08,,adl
11.432456,-0.0134,-0.0122,0.162,0.0,0.0048,-0.0016,-28.26,-33.54,-10.08,,adl
11.447197,-0.0134,-0.0122,0.162,0.0,0.0048,-0.0016,-28.26,-33.54,-10.08,,adl
11.44885,0.0022,-0.0609,0.1762,0.0,0.0048,-0.0016,-28.26,-33.54,-10.08,,adl
11.450035,0.0022,-0.0609,0.1762,0.0005,0.0021,0.0005,-28.26,-33.54,-10.08,,adl
11.471056,0.0022,-0.0609,0.1762,0.0075,-0.0085,-0.0011,-28.26,-33.54,-10.08,,adl
11.493357,0.0022,-0.0609,0.1762,0.0075,-0.0085,-0.0011,-28.32,-34.02,-10.14,,adl
11.494979,0.0022,-0.0609,0.1762,0.016,-0.0037,-0.0021,-28.32,-34.02,-10.14,,adl
11.509278,0.0022,-0.0609,0.1762,0.016,-0.0037,-0.0021,-28.32,-34.02,-10.14,,adl
11.510836,-0.0125,0.1286,0.1331,0.016,-0.0037,-0.0021,-28.32,-34.02,-10.14,,adl
11.512032,-0.0125,0.1286,0.1331,0.0154,0.0037,-0.0043,-28.32,-34.02,-10.14,,adl
11.532043,-0.0125,0.1286,0.1331,0.0064,0.0096,-0.0037,-28.32,-34.02,-10.14,,adl
11.553253,-0.0125,0.1286,0.1331,0.0064,0.0096,-0.0037,-28.02,-34.02,-10.32,,adl
11.554545,-0.0125,0.1286,0.1331,-0.0096,0.0064,-0.0016,-28.02,-34.02,-10.32,,adl
11.569596,-0.0125,0.1286,0.1331,-0.0096,0.0064,-0.0016,-28.02,-34.02,-10.32,,adl
11.571109,-0.0087,0.032,0.1385,-0.0096,0.0064,-0.0016,-28.02,-34.02,-10.32,,adl
11.574228,-0.0087,0.032,0.1385,-0.0128,0.0016,-0.0059,-28.02,-34.02,-10.32,,adl
11.593734,-0.0087,0.032,0.1385,-0.008,-0.0005,-0.0053,-28.02,-34.02,-10.32,,adl
11.614609,-0.0087,0.032,0.1385,-0.008,-0.0005,-0.0053,-27.96,-33.96,-10.32,,adl
11.616057,-0.0087,0.032,0.1385,-0.0048,-0.0005,-0.0048,-27.96,-33.96,-10.32,,adl
11.631081,-0.0087,0.032,0.1385,-0.0048,-0.0005,-0.0048,-27.96,-33.96,-10.32,,adl
11.632777,-0.0205,-0.0462,0.1742,-0.0048,-0.0005,-0.0048,-27.96,-33.96,-10.32,,adl
11.634185,-0.0205,-0.0462,0.1742,0.0011,0.0037,-0.0032,-27.96,-33.96,-10.32,,adl
11.656446,-0.0205,-0.0462,0.1742,0.0037,0.0064,-0.0032,-27.96,-33.96,-10.32,,adl
11.6768,-0.0205,-0.0462,0.1742,0.0037,0.0064,-0.0032,-27.48,-33.84,-9.84,,adl
11.678464,-0.0205,-0.0462,0.1742,0.0059,0.0059,-0.0016,-27.48,-33.84,-9.84,,adl
11.69413,-0.0205,-0.0462,0.1742,0.0059,0.0059,-0.0016,-27.48,-33.84,-9.84,,adl
11.695668,-0.0103,-0.0095,0.1339,0.0059,0.0059,-0.0016,-27.48,-33.84,-9.84,,adl
11.696884,-0.0103,-0.0095,0.1339,0.0043,-0.0011,-0.0011,-27.48,-33.84,-9.84,,adl
11.716449,-0.0103,-0.0095,0.1339,0.0048,-0.0053,-0.0027,-27.48,-33.84,-9.84,,adl
11.738191,-0.0103,-0.0095,0.1339,0.0048,-0.0053,-0.0027,-27.42,-33.24,-9.42,,adl
11.739894,-0.0103,-0.0095,0.1339,0.0048,-0.0037,-0.0011,-27.42,-33.24,-9.42,,adl
11.754386,-0.0103,-0.0095,0.1339,0.0048,-0.0037,-0.0011,-27.42,-33.24,-9.42,,adl
11.755369,0.0038,0.0703,0.1577,0.0048,-0.0037,-0.0011,-27.42,-33.24,-9.42,,adl
11.758537,0.0038,0.0703,0.1577,0.0032,0.0048,-0.0005,-27.42,-33.24,-9.42,,adl
11.778184,0.0038,0.0703,0.1577,0.0011,0.0043,-0.0011,-27.42,-33.24,-9.42,,adl
11.800255,0.0038,0.0703,0.1577,0.0011,0.0043,-0.0011,-27.6,-33.18,-9.42,,adl
11.802052,0.0038,0.0703,0.1577,-0.0005,-0.0021,-0.0032,-27.6,-33.18,-9.42,,adl
11.815658,0.0038,0.0703,0.1577,-0.0005,-0.0021,-0.0032,-27.6,-33.18,-9.42,,adl
11.81747,-0.0331,-0.0142,0.1411,-0.0005,-0.0021,-0.0032,-27.6,-33.18,-9.42,,adl
11.81995,-0.0331,-0.0142,0.1411,0.0,-0.0027,-0.0016,-27.6,-33.18,-9.42,,adl
11.840091,-0.0331,-0.0142,0.1411,0.0037,0.0011,-0.0021,-27.6,-33.18,-9.42,,adl
11.861532,-0.0331,-0.0142,0.1411,0.0037,0.0011,-0.0021,-27.42,-33.06,-9.6,,adl
11.862953,-0.0331,-0.0142,0.1411,-0.008,0.0069,-0.0043,-27.42,-33.06,-9.6,,adl
11.877109,-0.0331,-0.0142,0.1411,-0.008,0.0069,-0.0043,-27.42,-33.06,-9.6,,adl
11.878402,0.022,-0.008,0.2249,-0.008,0.0069,-0.0043,-27.42,-33.06,-9.6,,adl
11.881298,0.022,-0.008,0.2249,-0.0181,0.0016,-0.0091,-27.42,-33.06,-9.6,,adl
11.902139,0.022,-0.008,0.2249,-0.0144,-0.0021,-0.0224,-27.42,-33.06,-9.6,,adl
11.922477,0.022,-0.008,0.2249,-0.017,-0.0048,-0.0293,-27.42,-33.06,-9.6,,adl
11.924029,0.022,-0.008,0.2249,-0.017,-0.0048,-0.0293,-27.72,-33.42,-9.96,,adl
11.93854,0.022,-0.008,0.2249,-0.017,-0.0048,-0.0293,-27.72,-33.42,-9.96,,adl
11.939556,-0.0831,0.0433,0.0808,-0.017,-0.0048,-0.0293,-27.72,-33.42,-9.96,,adl
11.942927,-0.0831,0.0433,0.0808,-0.0021,0.0037,-0.0341,-27.72,-33.42,-9.96,,adl
11.963923,-0.0831,0.0433,0.0808,0.0245,0.0186,-0.025,-27.72,-33.42,-9.96,,adl
11.983336,-0.0831,0.0433,0.0808,0.0245,0.0186,-0.025,-27.72,-33.78,-9.78,,adl
11.984989,-0.0831,0.0433,0.0808,0.0138,0.0229,-0.0069,-27.72,-33.78,-9.78,,adl
11.999402,-0.0831,0.0433,0.0808,0.0138,0.0229,-0.0069,-27.72,-33.78,-9.78,,adl
12.002024,0.1333,0.1531,-0.0163,0.0138,0.0229,-0.0069,-27.72,-33.78,-9.78,,adl
12.003342,0.1333,0.1531,-0.0163,-0.0383,0.0261,0.0101,-27.72,-33.78,-9.78,,adl
12.02398,0.1333,0.1531,-0.0163,-0.0586,0.0021,0.0091,-27.72,-33.78,-9.78,,adl
12.046005,0.1333,0.1531,-0.0163,-0.0586,0.0021,0.0091,-27.6,-33.78,-9.78,,adl
12.047441,0.1333,0.1531,-0.0163,-0.0197,-0.0112,0.0085,-27.6,-33.78,-9.78,,adl
12.062455,0.1333,0.1531,-0.0163,-0.0197,-0.0112,0.0085,-27.6,-33.78,-9.78,,adl
12.063891,0.027,-0.3326,0.374,-0.0197,-0.0112,0.0085,-27.6,-33.78,-9.78,,adl
12.065284,0.027,-0.3326,0.374,0.024,-0.0197,0.0005,-27.6,-33.78,-9.78,,adl
12.086699,0.027,-0.3326,0.374,0.0298,-0.0288,-0.0218,-27.6,-33.78,-9.78,,adl
12.108241,0.027,-0.3326,0.374,0.0298,-0.0288,-0.0218,-27.6,-34.14,-9.78,,adl
12.110094,0.027,-0.3326,0.374,0.0208,0.0,-0.0368,-27.6,-34.14,-9.78,,adl
12.127129,0.027,-0.3326,0.374,0.0208,0.0,-0.0368,-27.6,-34.14,-9.78,,adl
12.128499,-0.2125,0.0819,0.0677,0.0208,0.0,-0.0368,-27.6,-34.14,-9.78,,adl
12.129765,-0.2125,0.0819,0.0677,0.024,0.0304,-0.033,-27.6,-34.14,-9.78,,adl
12.147791,-0.2125,0.0819,0.0677,0.0314,0.0234,-0.0112,-27.6,-34.14,-9.78,,adl
12.169441,-0.2125,0.0819,0.0677,0.0314,0.0234,-0.0112,-27.6,-33.96,-9.78,,adl
12.171073,-0.2125,0.0819,0.0677,0.0208,0.0021,0.0096,-27.6,-33.96,-9.78,,adl
12.185075,-0.2125,0.0819,0.0677,0.0208,0.0021,0.0096,-27.6,-33.96,-9.78,,adl
12.186654,0.1257,0.3632,-0.0351,0.0208,0.0021,0.0096,-27.6,-33.96,-9.78,,adl
12.188094,0.1257,0.3632,-0.0351,-0.0208,0.0091,0.0186,-27.6,-33.96,-9.78,,adl
12.20968,0.1257,0.3632,-0.0351,-0.0506,0.0208,0.0107,-27.6,-33.96,-9.78,,adl
12.231109,0.1257,0.3632,-0.0351,-0.0506,0.0208,0.0107,-27.3,-33.66,-10.38,,adl
12.232685,0.1257,0.3632,-0.0351,-0.032,0.0112,0.0027,-27.3,-33.66,-10.38,,adl
12.247257,0.1257,0.3632,-0.0351,-0.032,0.0112,0.0027,-27.3,-33.66,-10.38,,adl
12.248876,0.0067,-0.2549,0.3141,-0.032,0.0112,0.0027,-27.3,-33.66,-10.38,,adl
12.24998,0.0067,-0.2549,0.3141,0.0037,-0.0144,-0.0027,-27.3,-33.66,-10.38,,adl
12.271261,0.0067,-0.2549,0.3141,0.0224,-0.0309,-0.0144,-27.3,-33.66,-10.38,,adl
12.292157,0.0067,-0.2549,0.3141,0.0224,-0.0309,-0.0144,-27.54,-33.78,-10.38,,adl
12.293726,0.0067,-0.2549,0.3141,0.0096,-0.0027,-0.0138,-27.54,-33.78,-10.38,,adl
12.309395,0.0067,-0.2549,0.3141,0.0096,-0.0027,-0.0138,-27.54,-33.78,-10.38,,adl
12.310996,-0.062,-0.1101,0.2053,0.0096,-0.0027,-0.0138,-27.54,-33.78,-10.38,,adl
12.31453,-0.062,-0.1101,0.2053,0.0021,0.0202,-0.008,-27.54,-33.78,-10.38,,adl
12.332096,-0.062,-0.1101,0.2053,0.0128,0.0048,-0.0043,-27.54,-33.78,-10.38,,adl
12.353653,-0.062,-0.1101,0.2053,0.0128,0.0048,-0.0043,-27.48,-33.12,-10.26,,adl
12.355109,-0.062,-0.1101,0.2053,0.0192,-0.0144,-0.0059,-27.48,-33.12,-10.26,,adl
12.369846,-0.062,-0.1101,0.2053,0.0192,-0.0144,-0.0059,-27.48,-33.12,-10.26,,adl
12.371367,-0.0599,0.2182,0.0459,0.0192,-0.0144,-0.0059,-27.48,-33.12,-10.26,,adl
12.372743,-0.0599,0.2182,0.0459,0.0245,-0.0048,-0.0091,-27.48,-33.12,-10.26,,adl
12.393847,-0.0599,0.2182,0.0459,0.0208,0.0202,-0.0075,-27.48,-33.12,-10.26,,adl
12.416017,-0.0599,0.2182,0.0459,0.0208,0.0202,-0.0075,-27.24,-33.24,-9.96,,adl
12.417641,-0.0599,0.2182,0.0459,-0.0123,0.0336,-0.0043,-27.24,-33.24,-9.96,,adl
12.431656,-0.0599,0.2182,0.0459,-0.0123,0.0336,-0.0043,-27.24,-33.24,-9.96,,adl
12.433494,0.0736,0.111,0.1071,-0.0123,0.0336,-0.0043,-27.24,-33.24,-9.96,,adl
12.434658,0.0736,0.111,0.1071,-0.0495,0.0176,-0.0005,-27.24,-33.24,-9.96,,adl
12.456148,0.0736,0.111,0.1071,-0.0474,-0.0123,-0.0005,-27.24,-33.24,-9.96,,adl
12.476484,0.0736,0.111,0.1071,-0.0474,-0.0123,-0.0005,-27.36,-33.54,-10.02,,adl
12.478431,0.0736,0.111,0.1071,-0.0027,-0.0218,-0.0005,-27.36,-33.54,-10.02,,adl
12.492814,0.0736,0.111,0.1071,-0.0027,-0.0218,-0.0005,-27.36,-33.54,-10.02,,adl
12.494262,-0.07,-0.333,0.2418,-0.0027,-0.0218,-0.0005,-27.36,-33.54,-10.02,,adl
12.496176,-0.07,-0.333,0.2418,0.025,-0.0101,-0.0021,-27.36,-33.54,-10.02,,adl
12.517116,-0.07,-0.333,0.2418,0.025,0.0021,-0.0043,-27.36,-33.54,-10.02,,adl
12.539015,-0.07,-0.333,0.2418,0.025,0.0021,-0.0043,-27.12,-33.72,-10.2,,adl
12.540677,-0.07,-0.333,0.2418,0.0224,0.0176,-0.0011,-27.12,-33.72,-10.2,,adl
12.553897,-0.07,-0.333,0.2418,0.0224,0.0176,-0.0011,-27.12,-33.72,-10.2,,adl
12.554856,-0.0248,0.1601,0.1612,0.0224,0.0176,-0.0011,-27.12,-33.72,-10.2,,adl
12.55876,-0.0248,0.1601,0.1612,0.0266,0.0128,0.0032,-27.12,-33.72,-10.2,,adl
12.579308,-0.0248,0.1601,0.1612,0.0192,-0.008,0.0021,-27.12,-33.72,-10.2,,adl
12.600351,-0.0248,0.1601,0.1612,0.0192,-0.008,0.0021,-27.78,-34.32,-10.38,,adl
12.601975,-0.0248,0.1601,0.1612,-0.0043,-0.016,-0.0016,-27.78,-34.32,-10.38,,adl
12.615214,-0.0248,0.1601,0.1612,-0.0043,-0.016,-0.0016,-27.78,-34.32,-10.38,,adl
12.616613,0.0344,0.0734,0.0559,-0.0043,-0.016,-0.0016,-27.78,-34.32,-10.38,,adl
12.619327,0.0344,0.0734,0.0559,-0.0378,0.0075,-0.0101,-27.78,-34.32,-10.38,,adl
12.639503,0.0344,0.0734,0.0559,-0.041,0.0138,-0.0144,-27.78,-34.32,-10.38,,adl
12.65988,0.0344,0.0734,0.0559,-0.041,0.0138,-0.0144,-27.54,-34.02,-10.86,,adl
12.660283,0.0344,0.0734,0.0559,-0.0091,-0.0053,-0.016,-27.54,-34.02,-10.86,,adl
12.676447,0.0344,0.0734,0.0559,-0.0091,-0.0053,-0.016,-27.54,-34.02,-10.86,,adl
12.677133,-0.0929,0.0002,0.1826,-0.0091,-0.0053,-0.016,-27.54,-34.02,-10.86,,adl
12.680591,-0.0929,0.0002,0.1826,0.0245,-0.0075,-0.0144,-27.54,-34.02,-10.86,,adl
12.70158,-0.0929,0.0002,0.1826,0.0197,0.0176,-0.0053,-27.54,-34.02,-10.86,,adl
12.723338,-0.0929,0.0002,0.1826,0.0197,0.0176,-0.0053,-27.6,-34.08,-11.1,,adl
12.724718,-0.0929,0.0002,0.1826,-0.0123,0.0208,0.0021,-27.6,-34.08,-11.1,,adl
12.73945,-0.0929,0.0002,0.1826,-0.0123,0.0208,0.0021,-27.6,-34.08,-11.1,,adl
12.740251,0.0999,-0.0362,0.1737,-0.0123,0.0208,0.0021,-27.6,-34.08,-11.1,,adl
12.743838,0.0999,-0.0362,0.1737,-0.0272,0.0037,0.0037,-27.6,-34.08,-11.1,,adl
12.762775,0.0999,-0.0362,0.1737,-0.0117,-0.0096,0.0027,-27.6,-34.08,-11.1,,adl
12.785036,0.0999,-0.0362,0.1737,-0.0117,-0.0096,0.0027,-28.02,-33.9,-10.98,,adl
12.786531,0.0999,-0.0362,0.1737,0.016,-0.0107,-0.0021,-28.02,-33.9,-10.98,,adl
12.800731,0.0999,-0.0362,0.1737,0.016,-0.0107,-0.0021,-28.02,-33.9,-10.98,,adl
12.802271,-0.0475,-0.1069,0.1537,0.016,-0.0107,-0.0021,-28.02,-33.9,-10.98,,adl
12.804893,-0.0475,-0.1069,0.1537,0.0213,-0.0107,-0.0064,-28.02,-33.9,-10.98,,adl
12.825147,-0.0475,-0.1069,0.1537,0.0149,-0.0037,-0.0112,-28.02,-33.9,-10.98,,adl
12.846499,-0.0475,-0.1069,0.1537,0.0149,-0.0037,-0.0112,-27.6,-33.72,-10.68,,adl
12.847878,-0.0475,-0.1069,0.1537,0.0138,0.0165,-0.0091,-27.6,-33.72,-10.68,,adl
12.861628,-0.0475,-0.1069,0.1537,0.0138,0.0165,-0.0091,-27.6,-33.72,-10.68,,adl
12.863095,-0.093,0.1567,0.1617,0.0138,0.0165,-0.0091,-27.6,-33.72,-10.68,,adl
12.86614,-0.093,0.1567,0.1617,0.0154,0.0229,0.0,-27.6,-33.72,-10.68,,adl
12.88685,-0.093,0.1567,0.1617,-0.0005,0.0011,0.0053,-27.6,-33.72,-10.68,,adl
12.908,-0.093,0.1567,0.1617,-0.0005,0.0011,0.0053,-28.08,-34.08,-11.04,,adl
12.909814,-0.093,0.1567,0.1617,-0.0224,-0.0133,0.0,-28.08,-34.08,-11.04,,adl
12.923618,-0.093,0.1567,0.1617,-0.0224,-0.0133,0.0,-28.08,-34.08,-11.04,,adl
12.924756,0.0836,0.0931,0.1067,-0.0224,-0.0133,0.0,-28.08,-34.08,-11.04,,adl
12.929144,0.0836,0.0931,0.1067,-0.0234,0.0021,-0.0075,-28.08,-34.08,-11.04,,adl
12.948121,0.0836,0.0931,0.1067,-0.0133,0.0144,-0.0165,-28.08,-34.08,-11.04,,adl
12.969096,0.0836,0.0931,0.1067,-0.0133,0.0144,-0.0165,-28.32,-34.02,-10.26,,adl
12.970502,0.0836,0.0931,0.1067,-0.0053,0.0037,-0.0165,-28.32,-34.02,-10.26,,adl
12.985063,0.0836,0.0931,0.1067,-0.0053,0.0037,-0.0165,-28.32,-34.02,-10.26,,adl
12.986487,-0.0604,-0.1093,0.1906,-0.0053,0.0037,-0.0165,-28.32,-34.02,-10.26,,adl
12.987952,-0.0604,-0.1093,0.1906,0.0005,-0.0032,-0.0117,-28.32,-34.02,-10.26,,adl
13.009543,-0.0604,-0.1093,0.1906,0.0048,0.0032,-0.0048,-28.32,-34.02,-10.26,,adl
13.029884,-0.0604,-0.1093,0.1906,0.0048,0.0032,-0.0048,-27.72,-33.9,-10.26,,adl
13.0312,-0.0604,-0.1093,0.1906,0.0043,0.0075,0.0011,-27.72,-33.9,-10.26,,adl
13.045649,-0.0604,-0.1093,0.1906,0.0043,0.0075,0.0011,-27.72,-33.9,-10.26,,adl
13.046939,0.0093,-0.0453,0.181,0.0043,0.0075,0.0011,-27.72,-33.9,-10.26,,adl
13.049216,0.0093,-0.0453,0.181,0.0053,0.0011,0.0032,-27.72,-33.9,-10.26,,adl
13.070109,0.0093,-0.0453,0.181,0.0085,-0.0096,0.0021,-27.72,-33.9,-10.26,,adl
13.091117,0.0093,-0.0453,0.181,0.0085,-0.0096,0.0021,-27.66,-34.14,-10.44,,adl
13.09321,0.0093,-0.0453,0.181,0.008,-0.0085,-0.0021,-27.66,-34.14,-10.44,,adl
13.106975,0.0093,-0.0453,0.181,0.008,-0.0085,-0.0021,-27.66,-34.14,-10.44,,adl
13.108801,-0.0229,0.0995,0.1281,0.008,-0.0085,-0.0021,-27.66,-34.14,-10.44,,adl
13.111095,-0.0229,0.0995,0.1281,0.0075,0.0011,-0.0075,-27.66,-34.14,-10.44,,adl
13.131333,-0.0229,0.0995,0.1281,0.0021,0.0133,-0.0117,-27.66,-34.14,-10.44,,adl
13.153322,-0.0229,0.0995,0.1281,0.0021,0.0133,-0.0117,-27.66,-34.08,-10.08,,adl
13.154444,-0.0229,0.0995,0.1281,-0.0059,0.0053,-0.0133,-27.66,-34.08,-10.08,,adl
13.168659,-0.0229,0.0995,0.1281,-0.0059,0.0053,-0.0133,-27.66,-34.08,-10.08,,adl
13.170088,-0.0422,0.0288,0.1551,-0.0059,0.0053,-0.0133,-27.66,-34.08,-10.08,,adl
13.173143,-0.0422,0.0288,0.1551,-0.0107,-0.0032,-0.0123,-27.66,-34.08,-10.08,,adl
13.193377,-0.0422,0.0288,0.1551,-0.0096,-0.0016,-0.0059,-27.66,-34.08,-10.08,,adl
13.21444,-0.0422,0.0288,0.1551,-0.0096,-0.0016,-0.0059,-27.42,-33.96,-10.62,,adl
13.215791,-0.0422,0.0288,0.1551,-0.0032,0.0032,0.0,-27.42,-33.96,-10.62,,adl
13.230496,-0.0422,0.0288,0.1551,-0.0032,0.0032,0.0,-27.42,-33.96,-10.62,,adl
13.231855,-0.016,-0.0259,0.1764,-0.0032,0.0032,0.0,-27.42,-33.96,-10.62,,adl
13.234254,-0.016,-0.0259,0.1764,0.0016,0.0059,0.0016,-27.42,-33.96,-10.62,,adl
13.254926,-0.016,-0.0259,0.1764,-0.0016,0.0091,-0.0005,-27.42,-33.96,-10.62,,adl
13.275731,-0.016,-0.0259,0.1764,-0.0016,0.0091,-0.0005,-27.54,-34.08,-10.74,,adl
13.277102,-0.016,-0.0259,0.1764,-0.0021,0.0053,-0.0021,-27.54,-34.08,-10.74,,adl
13.291763,-0.016,-0.0259,0.1764,-0.0021,0.0053,-0.0021,-27.54,-34.08,-10.74,,adl
13.293143,0.0229,-0.0036,0.1743,-0.0021,0.0053,-0.0021,-27.54,-34.08,-10.74,,adl
13.295419,0.0229,-0.0036,0.1743,0.0032,-0.0037,-0.0064,-27.54,-34.08,-10.74,,adl
13.316129,0.0229,-0.0036,0.1743,0.0053,-0.0048,-0.0096,-27.54,-34.08,-10.74,,adl
13.337482,0.0229,-0.0036,0.1743,0.0053,-0.0048,-0.0096,-27.3,-33.84,-10.86,,adl
13.338781,0.0229,-0.0036,0.1743,0.0,-0.0011,-0.0096,-27.3,-33.84,-10.86,,adl
13.353492,0.0229,-0.0036,0.1743,0.0,-0.0011,-0.0096,-27.3,-33.84,-10.86,,adl
13.354365,-0.0105,0.0449,0.1406,0.0,-0.0011,-0.0096,-27.3,-33.84,-10.86,,adl
13.357127,-0.0105,0.0449,0.1406,-0.0048,0.0123,-0.008,-27.3,-33.84,-10.86,,adl
13.377814,-0.0105,0.0449,0.1406,-0.0096,0.0075,-0.0027,-27.3,-33.84,-10.86,,adl
13.399163,-0.0105,0.0449,0.1406,-0.0096,0.0075,-0.0027,-26.88,-33.66,-11.28,,adl
13.400456,-0.0105,0.0449,0.1406,-0.0027,-0.0048,-0.0016,-26.88,-33.66,-11.28,,adl
13.414944,-0.0105,0.0449,0.1406,-0.0027,-0.0048,-0.0016,-26.88,-33.66,-11.28,,adl
13.41628,-0.0526,-0.0441,0.172,-0.0027,-0.0048,-0.0016,-26.88,-33.66,-11.28,,adl
13.418796,-0.0526,-0.0441,0.172,0.0027,-0.0021,-0.0027,-26.88,-33.66,-11.28,,adl
13.439518,-0.0526,-0.0441,0.172,0.0053,0.0043,-0.0011,-26.88,-33.66,-11.28,,adl
13.460374,-0.0526,-0.0441,0.172,0.0053,0.0043,-0.0011,-26.82,-33.9,-11.1,,adl
13.461999,-0.0526,-0.0441,0.172,0.0064,0.0037,-0.0048,-26.82,-33.9,-11.1,,adl
13.476511,-0.0526,-0.0441,0.172,0.0064,0.0037,-0.0048,-26.82,-33.9,-11.1,,adl
13.47719,-0.0059,0.0761,0.1148,0.0064,0.0037,-0.0048,-26.82,-33.9,-11.1,,adl
13.479839,-0.0059,0.0761,0.1148,0.0021,0.0048,-0.0069,-26.82,-33.9,-11.1,,adl
13.50102,-0.0059,0.0761,0.1148,-0.0048,0.0053,-0.0091,-26.82,-33.9,-11.1,,adl
13.522197,-0.0059,0.0761,0.1148,-0.0048,0.0053,-0.0091,-26.76,-33.78,-11.1,,adl
13.523682,-0.0059,0.0761,0.1148,-0.0091,0.0053,-0.0043,-26.76,-33.78,-11.1,,adl
13.538149,-0.0059,0.0761,0.1148,-0.0091,0.0053,-0.0043,-26.76,-33.78,-11.1,,adl
13.539033,0.0087,-0.0403,0.1725,-0.0091,0.0053,-0.0043,-26.76,-33.78,-11.1,,adl
13.54185,0.0087,-0.0403,0.1725,-0.0064,0.0011,-0.0011,-26.76,-33.78,-11.1,,adl
13.5626,0.0087,-0.0403,0.1725,0.0,-0.0011,0.0016,-26.76,-33.78,-11.1,,adl
13.583502,0.0087,-0.0403,0.1725,0.0,-0.0011,0.0016,-26.52,-33.6,-10.74,,adl
13.58519,0.0087,-0.0403,0.1725,0.0085,-0.0005,0.0016,-26.52,-33.6,-10.74,,adl
13.599676,0.0087,-0.0403,0.1725,0.0085,-0.0005,0.0016,-26.52,-33.6,-10.74,,adl
13.601093,0.0008,0.0048,0.1532,0.0085,-0.0005,0.0016,-26.52,-33.6,-10.74,,adl
13.603259,0.0008,0.0048,0.1532,0.0128,0.0037,-0.0032,-26.52,-33.6,-10.74,,adl
13.623925,0.0008,0.0048,0.1532,0.0091,0.0069,-0.0048,-26.52,-33.6,-10.74,,adl
13.644956,0.0008,0.0048,0.1532,0.0091,0.0069,-0.0048,-27.12,-33.66,-10.62,,adl
13.646232,0.0008,0.0048,0.1532,0.0021,0.0021,-0.0069,-27.12,-33.66,-10.62,,adl
13.661135,0.0008,0.0048,0.1532,0.0021,0.0021,-0.0069,-27.12,-33.66,-10.62,,adl
13.662435,-0.0182,0.0219,0.1466,0.0021,0.0021,-0.0069,-27.12,-33.66,-10.62,,adl
13.664856,-0.0182,0.0219,0.1466,-0.0011,-0.0037,-0.0064,-27.12,-33.66,-10.62,,adl
13.685425,-0.0182,0.0219,0.1466,0.0016,-0.0027,-0.0053,-27.12,-33.66,-10.62,,adl
13.706358,-0.0182,0.0219,0.1466,0.0016,-0.0027,-0.0053,-27.36,-33.24,-10.5,,adl
13.706859,-0.0182,0.0219,0.1466,0.0,0.0,-0.0037,-27.36,-33.24,-10.5,,adl
13.723727,-0.0182,0.0219,0.1466,0.0,0.0,-0.0037,-27.36,-33.24,-10.5,,adl
13.725202,-0.0548,0.0219,0.1776,0.0,0.0,-0.0037,-27.36,-33.24,-10.5,,adl
13.72636,-0.0548,0.0219,0.1776,-0.0032,0.0037,-0.0043,-27.36,-33.24,-10.5,,adl
13.747269,-0.0548,0.0219,0.1776,0.0,0.0064,-0.0011,-27.36,-33.24,-10.5,,adl
13.768205,-0.0548,0.0219,0.1776,0.0,0.0064,-0.0011,-27.42,-33.24,-10.74,,adl
13.768785,-0.0548,0.0219,0.1776,0.0011,0.0048,-0.0011,-27.42,-33.24,-10.74,,adl
13.784261,-0.0548,0.0219,0.1776,0.0011,0.0048,-0.0011,-27.42,-33.24,-10.74,,adl
13.785627,0.0289,-0.0132,0.1419,0.0011,0.0048,-0.0011,-27.42,-33.24,-10.74,,adl
13.788196,0.0289,-0.0132,0.1419,0.0011,0.0032,-0.0005,-27.42,-33.24,-10.74,,adl
13.80876,0.0289,-0.0132,0.1419,-0.0016,-0.0011,-0.0037,-27.42,-33.24,-10.74,,adl
13.830042,0.0289,-0.0132,0.1419,-0.0016,-0.0011,-0.0037,-28.14,-33.54,-10.92,,adl
13.831398,0.0289,-0.0132,0.1419,0.0016,-0.0005,-0.0043,-28.14,-33.54,-10.92,,adl
13.845797,0.0289,-0.0132,0.1419,0.0016,-0.0005,-0.0043,-28.14,-33.54,-10.92,,adl
13.847107,0.0111,0.041,0.173,0.0016,-0.0005,-0.0043,-28.14,-33.54,-10.92,,adl
13.849739,0.0111,0.041,0.173,0.0064,-0.0016,-0.0037,-28.14,-33.54,-10.92,,adl
13.870245,0.0111,0.041,0.173,0.0043,0.0011,-0.0037,-28.14,-33.54,-10.92,,adl
13.891176,0.0111,0.041,0.173,0.0043,0.0011,-0.0037,-28.02,-33.78,-11.04,,adl
13.891709,0.0111,0.041,0.173,0.0005,0.0027,-0.0048,-28.02,-33.78,-11.04,,adl
13.907097,0.0111,0.041,0.173,0.0005,0.0027,-0.0048,-28.02,-33.78,-11.04,,adl
13.908339,-0.0291,0.0055,0.1563,0.0005,0.0027,-0.0048,-28.02,-33.78,-11.04,,adl
13.911156,-0.0291,0.0055,0.1563,0.0011,0.0048,-0.0037,-28.02,-33.78,-11.04,,adl
13.93157,-0.0291,0.0055,0.1563,0.0048,0.0037,-0.0043,-28.02,-33.78,-11.04,,adl
13.952717,-0.0291,0.0055,0.1563,0.0048,0.0037,-0.0043,-27.84,-34.2,-11.22,,adl
13.954353,-0.0291,0.0055,0.1563,0.0005,-0.0005,-0.0032,-27.84,-34.2,-11.22,,adl
13.968747,-0.0291,0.0055,0.1563,0.0005,-0.0005,-0.0032,-27.84,-34.2,-11.22,,adl
13.970056,-0.0178,-0.0003,0.1518,0.0005,-0.0005,-0.0032,-27.84,-34.2,-11.22,,adl
13.973207,-0.0178,-0.0003,0.1518,-0.0005,-0.0011,-0.0027,-27.84,-34.2,-11.22,,adl
13.993314,-0.0178,-0.0003,0.1518,0.0,0.0037,-0.0037,-27.84,-34.2,-11.22,,adl
14.015463,-0.0178,-0.0003,0.1518,0.0,0.0037,-0.0037,-28.02,-34.56,-11.22,,adl
14.017913,-0.0178,-0.0003,0.1518,0.0005,0.0021,-0.0027,-28.02,-34.56,-11.22,,adl
14.030749,-0.0178,-0.0003,0.1518,0.0005,0.0021,-0.0027,-28.02,-34.56,-11.22,,adl
14.032459,-0.0026,0.0213,0.1591,0.0005,0.0021,-0.0027,-28.02,-34.56,-11.22,,adl
14.034139,-0.0026,0.0213,0.1591,0.0037,0.0016,-0.0053,-28.02,-34.56,-11.22,,adl
14.055808,-0.0026,0.0213,0.1591,0.0053,0.0037,-0.0053,-28.02,-34.56,-11.22,,adl
14.076307,-0.0026,0.0213,0.1591,0.0053,0.0037,-0.0053,-27.78,-34.74,-11.34,,adl
14.078827,-0.0026,0.0213,0.1591,-0.0005,0.0048,-0.0048,-27.78,-34.74,-11.34,,adl
14.093085,-0.0026,0.0213,0.1591,-0.0005,0.0048,-0.0048,-27.78,-34.74,-11.34,,adl
14.096904,0.013,-0.0038,0.1449,-0.0005,0.0048,-0.0048,-27.78,-34.74,-11.34,,adl
14.098615,0.013,-0.0038,0.1449,-0.0107,0.0064,-0.0053,-27.78,-34.74,-11.34,,adl
14.116665,0.013,-0.0038,0.1449,-0.0101,0.0027,-0.0037,-27.78,-34.74,-11.34,,adl
14.138667,0.013,-0.0038,0.1449,-0.0101,0.0027,-0.0037,-27.78,-34.98,-11.34,,adl
14.140996,0.013,-0.0038,0.1449,0.0016,-0.0005,-0.0053,-27.78,-34.98,-11.34,,adl
14.153952,0.013,-0.0038,0.1449,0.0016,-0.0005,-0.0053,-27.78,-34.98,-11.34,,adl
14.15593,-0.0378,0.0264,0.1426,0.0016,-0.0005,-0.0053,-27.78,-34.98,-11.34,,adl
14.157898,-0.0378,0.0264,0.1426,0.0053,0.0032,-0.0048,-27.78,-34.98,-11.34,,adl
14.178703,-0.0378,0.0264,0.1426,0.0,0.0032,-0.0037,-27.78,-34.98,-11.34,,adl
14.199671,-0.0378,0.0264,0.1426,0.0,0.0032,-0.0037,-28.2,-34.92,-11.1,,adl
14.201756,-0.0378,0.0264,0.1426,0.0,0.0048,-0.0053,-28.2,-34.92,-11.1,,adl
14.215545,-0.0378,0.0264,0.1426,0.0,0.0048,-0.0053,-28.2,-34.92,-11.1,,adl
14.217716,0.0117,0.0297,0.1381,0.0,0.0048,-0.0053,-28.2,-34.92,-11.1,,adl
14.219634,0.0117,0.0297,0.1381,-0.0016,0.0075,-0.0059,-28.2,-34.92,-11.1,,adl
14.241068,0.0117,0.0297,0.1381,-0.0059,0.0059,-0.0064,-28.2,-34.92,-11.1,,adl
14.261799,0.0117,0.0297,0.1381,-0.0059,0.0059,-0.0064,-27.78,-34.74,-11.16,,adl
14.264082,0.0117,0.0297,0.1381,-0.0037,0.0043,-0.0037,-27.78,-34.74,-11.16,,adl
14.276413,0.0117,0.0297,0.1381,-0.0037,0.0043,-0.0037,-27.78,-34.74,-11.16,,adl
14.278275,-0.0278,-0.0227,0.1719,-0.0037,0.0043,-0.0037,-27.78,-34.74,-11.16,,adl
14.280404,-0.0278,-0.0227,0.1719,-0.0032,0.0064,-0.0021,-27.78,-34.74,-11.16,,adl
14.301688,-0.0278,-0.0227,0.1719,0.0096,0.0005,0.0,-27.78,-34.74,-11.16,,adl
14.323358,-0.0278,-0.0227,0.1719,0.0096,0.0005,0.0,-27.54,-34.32,-11.46,,adl
14.325952,-0.0278,-0.0227,0.1719,0.0261,0.0027,0.0,-27.54,-34.32,-11.46,,adl
14.33941,-0.0278,-0.0227,0.1719,0.0261,0.0027,0.0,-27.54,-34.32,-11.46,,adl
14.341477,0.0027,0.033,0.1149,0.0261,0.0027,0.0,-27.54,-34.32,-11.46,,adl
14.343038,0.0027,0.033,0.1149,0.0245,0.0101,0.0016,-27.54,-34.32,-11.46,,adl
14.363349,0.0027,0.033,0.1149,0.0011,0.0128,0.0005,-27.54,-34.32,-11.46,,adl
14.384809,0.0027,0.033,0.1149,0.0011,0.0128,0.0005,-27.42,-34.26,-11.4,,adl
14.387603,0.0027,0.033,0.1149,-0.0123,0.0021,-0.0032,-27.42,-34.26,-11.4,,adl
14.400365,0.0027,0.033,0.1149,-0.0123,0.0021,-0.0032,-27.42,-34.26,-11.4,,adl
14.403722,0.0398,0.004,0.1897,-0.0123,0.0021,-0.0032,-27.42,-34.26,-11.4,,adl
14.406532,0.0398,0.004,0.1897,-0.0107,-0.0075,-0.0091,-27.42,-34.26,-11.4,,adl
14.425086,0.0398,0.004,0.1897,0.0027,-0.0107,-0.0117,-27.42,-34.26,-11.4,,adl
14.446494,0.0398,0.004,0.1897,0.0027,-0.0107,-0.0117,-27.0,-34.38,-11.58,,adl
14.449034,0.0398,0.004,0.1897,0.0133,0.0027,-0.0091,-27.0,-34.38,-11.58,,adl
14.462183,0.0398,0.004,0.1897,0.0133,0.0027,-0.0091,-27.0,-34.38,-11.58,,adl
14.464322,-0.092,0.0036,0.1439,0.0133,0.0027,-0.0091,-27.0,-34.38,-11.58,,adl
14.465944,-0.092,0.0036,0.1439,0.0123,0.0149,-0.0027,-27.0,-34.38,-11.58,,adl
14.486944,-0.092,0.0036,0.1439,0.0016,0.0101,0.0005,-27.0,-34.38,-11.58,,adl
14.509951,-0.092,0.0036,0.1439,0.0016,0.0101,0.0005,-27.42,-34.74,-11.04,,adl
14.512351,-0.092,0.0036,0.1439,-0.0075,-0.0016,0.0043,-27.42,-34.74,-11.04,,adl
14.525069,-0.092,0.0036,0.1439,-0.0075,-0.0016,0.0043,-27.42,-34.74,-11.04,,adl
14.527013,0.036,0.0559,0.1445,-0.0075,-0.0016,0.0043,-27.42,-34.74,-11.04,,adl
14.528772,0.036,0.0559,0.1445,-0.0112,-0.0043,-0.0027,-27.42,-34.74,-11.04,,adl
14.548002,0.036,0.0559,0.1445,-0.0107,-0.0027,-0.0096,-27.42,-34.74,-11.04,,adl
14.568781,0.036,0.0559,0.1445,-0.0107,-0.0027,-0.0096,-27.42,-34.8,-10.56,,adl
14.570624,0.036,0.0559,0.1445,-0.0037,0.0069,-0.016,-27.42,-34.8,-10.56,,adl
14.584713,0.036,0.0559,0.1445,-0.0037,0.0069,-0.016,-27.42,-34.8,-10.56,,adl
14.587175,-0.0193,0.0315,0.1443,-0.0037,0.0069,-0.016,-27.42,-34.8,-10.56,,adl
14.58827,-0.0193,0.0315,0.1443,0.0032,0.016,-0.0144,-27.42,-34.8,-10.56,,adl
14.609929,-0.0193,0.0315,0.1443,-0.0016,0.0154,-0.0075,-27.42,-34.8,-10.56,,adl
14.63123,-0.0193,0.0315,0.1443,-0.0016,0.0154,-0.0075,-27.18,-34.26,-10.14,,adl
14.633832,-0.0193,0.0315,0.1443,-0.0107,0.0011,-0.0011,-27.18,-34.26,-10.14,,adl
14.646627,-0.0193,0.0315,0.1443,-0.0107,0.0011,-0.0011,-27.18,-34.26,-10.14,,adl
14.648378,0.0226,-0.1072,0.1612,-0.0107,0.0011,-0.0011,-27.18,-34.26,-10.14,,adl
14.649846,0.0226,-0.1072,0.1612,-0.0101,-0.0048,0.0043,-27.18,-34.26,-10.14,,adl
14.671289,0.0226,-0.1072,0.1612,-0.0027,-0.0043,0.0059,-27.18,-34.26,-10.14,,adl
14.691545,0.0226,-0.1072,0.1612,-0.0027,-0.0043,0.0059,-27.18,-33.9,-9.9,,adl
14.693185,0.0226,-0.1072,0.1612,0.0123,0.0005,0.0021,-27.18,-33.9,-9.9,,adl
14.708398,0.0226,-0.1072,0.1612,0.0123,0.0005,0.0021,-27.18,-33.9,-9.9,,adl
14.710355,-0.0319,0.0387,0.1801,0.0123,0.0005,0.0021,-27.18,-33.9,-9.9,,adl
14.712296,-0.0319,0.0387,0.1801,0.0208,0.0011,-0.0032,-27.18,-33.9,-9.9,,adl
14.733193,-0.0319,0.0387,0.1801,0.0154,0.0069,-0.008,-27.18,-33.9,-9.9,,adl
14.753256,-0.0319,0.0387,0.1801,0.0154,0.0069,-0.008,-27.42,-33.78,-10.2,,adl
14.755372,-0.0319,0.0387,0.1801,0.0,0.0107,-0.0123,-27.42,-33.78,-10.2,,adl
14.769651,-0.0319,0.0387,0.1801,0.0,0.0107,-0.0123,-27.42,-33.78,-10.2,,adl
14.77298,0.0041,0.1147,0.0828,0.0,0.0107,-0.0123,-27.42,-33.78,-10.2,,adl
14.775057,0.0041,0.1147,0.0828,-0.017,0.0032,-0.0149,-27.42,-33.78,-10.2,,adl
14.794382,0.0041,0.1147,0.0828,-0.0213,-0.0032,-0.0149,-27.42,-33.78,-10.2,,adl
14.814357,0.0041,0.1147,0.0828,-0.0213,-0.0032,-0.0149,-27.36,-34.02,-10.14,,adl
14.815416,0.0041,0.1147,0.0828,-0.016,0.0027,-0.0107,-27.36,-34.02,-10.14,,adl
14.83098,0.0041,0.1147,0.0828,-0.016,0.0027,-0.0107,-27.36,-34.02,-10.14,,adl
14.833217,-0.0547,-0.0577,0.1758,-0.016,0.0027,-0.0107,-27.36,-34.02,-10.14,,adl
14.834844,-0.0547,-0.0577,0.1758,-0.0128,0.0091,-0.0069,-27.36,-34.02,-10.14,,adl
14.855638,-0.0547,-0.0577,0.1758,-0.0112,0.016,0.0011,-27.36,-34.02,-10.14,,adl
14.876874,-0.0547,-0.0577,0.1758,-0.0112,0.016,0.0011,-27.78,-34.38,-10.2,,adl
14.878999,-0.0547,-0.0577,0.1758,-0.0091,0.0107,0.0027,-27.78,-34.38,-10.2,,adl
14.89229,-0.0547,-0.0577,0.1758,-0.0091,0.0107,0.0027,-27.78,-34.38,-10.2,,adl
14.894559,0.0613,-0.0325,0.1902,-0.0091,0.0107,0.0027,-27.78,-34.38,-10.2,,adl
14.895992,0.0613,-0.0325,0.1902,0.0043,0.0,-0.0011,-27.78,-34.38,-10.2,,adl
14.917251,0.0613,-0.0325,0.1902,0.0133,-0.0011,-0.0037,-27.78,-34.38,-10.2,,adl
14.938092,0.0613,-0.0325,0.1902,0.0133,-0.0011,-0.0037,-28.26,-34.62,-10.02,,adl
14.939533,0.0613,-0.0325,0.1902,0.0021,-0.0005,-0.0069,-28.26,-34.62,-10.02,,adl
14.95401,0.0613,-0.0325,0.1902,0.0021,-0.0005,-0.0069,-28.26,-34.62,-10.02,,adl
14.954837,0.0156,0.0353,0.123,0.0021,-0.0005,-0.0069,-28.26,-34.62,-10.02,,adl
14.958161,0.0156,0.0353,0.123,-0.008,-0.0027,-0.0059,-28.26,-34.62,-10.02,,adl
14.979696,0.0156,0.0353,0.123,-0.0048,0.0011,-0.008,-28.26,-34.62,-10.02,,adl
14.999363,0.0156,0.0353,0.123,-0.0048,0.0011,-0.008,-27.66,-34.32,-10.26,,adl
15.000703,0.0156,0.0353,0.123,0.008,0.0096,-0.0059,-27.66,-34.32,-10.26,,adl
15.016145,0.0156,0.0353,0.123,0.008,0.0096,-0.0059,-27.66,-34.32,-10.26,,adl
15.017572,-0.0963,0.0195,0.1425,0.008,0.0096,-0.0059,-27.66,-34.32,-10.26,,adl
15.019692,-0.0963,0.0195,0.1425,0.0085,0.0075,-0.0037,-27.66,-34.32,-10.26,,adl
15.040629,-0.0963,0.0195,0.1425,0.0011,0.0037,-0.0021,-27.66,-34.32,-10.26,,adl
15.06105,-0.0963,0.0195,0.1425,0.0011,0.0037,-0.0021,-27.9,-34.32,-10.2,,adl
15.062323,-0.0963,0.0195,0.1425,-0.0091,0.0011,0.0005,-27.9,-34.32,-10.2,,adl
15.079082,-0.0963,0.0195,0.1425,-0.0091,0.0011,0.0005,-27.9,-34.32,-10.2,,adl
15.080441,0.0163,-0.0044,0.1356,-0.0091,0.0011,0.0005,-27.9,-34.32,-10.2,,adl
15.081543,0.0163,-0.0044,0.1356,-0.0133,0.0021,0.0,-27.9,-34.32,-10.2,,adl
15.10241,0.0163,-0.0044,0.1356,-0.0032,0.0021,-0.0032,-27.9,-34.32,-10.2,,adl
15.123973,0.0163,-0.0044,0.1356,-0.0032,0.0021,-0.0032,-27.36,-34.14,-10.14,,adl
15.125577,0.0163,-0.0044,0.1356,0.0011,0.0053,-0.0069,-27.36,-34.14,-10.14,,adl
15.139671,0.0163,-0.0044,0.1356,0.0011,0.0053,-0.0069,-27.36,-34.14,-10.14,,adl
15.140715,-0.0013,-0.0245,0.1237,0.0011,0.0053,-0.0069,-27.36,-34.14,-10.14,,adl
15.144777,-0.0013,-0.0245,0.1237,0.0027,0.0021,-0.0053,-27.36,-34.14,-10.14,,adl
15.164282,-0.0013,-0.0245,0.1237,0.0032,-0.0005,-0.0016,-27.36,-34.14,-10.14,,adl
15.184738,-0.0013,-0.0245,0.1237,0.0032,-0.0005,-0.0016,-26.64,-33.72,-10.08,,adl
15.186223,-0.0013,-0.0245,0.1237,0.0069,0.0059,0.0005,-26.64,-33.72,-10.08,,adl
15.200298,-0.0013,-0.0245,0.1237,0.0069,0.0059,0.0005,-26.64,-33.72,-10.08,,adl
15.201784,0.0158,0.035,0.1646,0.0069,0.0059,0.0005,-26.64,-33.72,-10.08,,adl
