time,ax,ay,az,wx,wy,wz,Bx,By,Bz,Unnamed: 10,label
0.018601,0.0,0.0,0.0,0.0,0.0,0.0,-25.38,-20.58,-27.6,,adl
0.019024,0.0,0.0,0.0,0.0085,0.0325,-0.0543,-25.38,-20.58,-27.6,,adl
0.032686,0.0,0.0,0.0,0.0085,0.0325,-0.0543,-25.38,-20.58,-27.6,,adl
0.037688,0.0,0.0,0.0,0.0085,0.0325,-0.0543,-25.38,-20.58,-27.6,,adl
0.058003,0.0,0.0,0.0,0.0085,0.0325,-0.0543,-25.38,-20.58,-27.6,,adl
0.078315,0.0,0.0,0.0,0.0085,0.0325,-0.0543,-8.46,-14.64,-34.32,,adl
0.078957,0.0,0.0,0.0,0.0186,0.1433,-0.041,-8.46,-14.64,-34.32,,adl
0.09411,0.0,0.0,0.0,0.0186,0.1433,-0.041,-8.46,-14.64,-34.32,,adl
0.094787,0.0809,0.0593,-0.0175,0.0186,0.1433,-0.041,-8.46,-14.64,-34.32,,adl
0.099198,0.0809,0.0593,-0.0175,0.0016,0.2061,-0.0565,-8.46,-14.64,-34.32,,adl
0.118491,0.0809,0.0593,-0.0175,-0.0831,0.188,-0.0405,-8.46,-14.64,-34.32,,adl
0.140001,0.0809,0.0593,-0.0175,-0.0831,0.188,-0.0405,-0.78,-11.1,-37.02,,adl
0.140735,0.0809,0.0593,-0.0175,-0.1641,0.2226,-0.1193,-0.78,-11.1,-37.02,,adl
0.156046,0.0809,0.0593,-0.0175,-0.1641,0.2226,-0.1193,-0.78,-11.1,-37.02,,adl
0.156985,1.0036,0.7501,-0.2734,-0.1641,0.2226,-0.1193,-0.78,-11.1,-37.02,,adl
0.159685,1.0036,0.7501,-0.2734,-0.3473,0.2589,-0.3451,-0.78,-11.1,-37.02,,adl
0.180259,1.0036,0.7501,-0.2734,-0.6711,0.4384,-0.8554,-0.78,-11.1,-37.02,,adl
0.201345,1.0036,0.7501,-0.2734,-0.6711,0.4384,-0.8554,7.32,-7.56,-39.42,,adl
0.202192,1.0036,0.7501,-0.2734,-0.9667,0.7542,-1.4903,7.32,-7.56,-39.42,,adl
0.217262,1.0036,0.7501,-0.2734,-0.9667,0.7542,-1.4903,7.32,-7.56,-39.42,,adl
0.21792,2.445,1.4087,-0.5698,-0.9667,0.7542,-1.4903,7.32,-7.56,-39.42,,adl
0.221408,2.445,1.4087,-0.5698,-0.8682,0.7068,-1.9984,7.32,-7.56,-39.42,,adl
0.241771,2.445,1.4087,-0.5698,-0.587,0.1406,-2.2962,7.32,-7.56,-39.42,,adl
0.26318,2.445,1.4087,-0.5698,-0.587,0.1406,-2.2962,8.4,-6.42,-39.72,,adl
0.26432,2.445,1.4087,-0.5698,-0.465,-0.1332,-2.5566,8.4,-6.42,-39.72,,adl
0.279279,2.445,1.4087,-0.5698,-0.465,-0.1332,-2.5566,8.4,-6.42,-39.72,,adl
0.28022,1.4421,0.1467,-0.1828,-0.465,-0.1332,-2.5566,8.4,-6.42,-39.72,,adl
0.284028,1.4421,0.1467,-0.1828,-0.0362,0.7547,-2.7031,8.4,-6.42,-39.72,,adl
0.304025,1.4421,0.1467,-0.1828,0.2775,1.2773,-3.1244,8.4,-6.42,-39.72,,adl
0.324694,1.4421,0.1467,-0.1828,0.2775,1.2773,-3.1244,9.0,-5.34,-39.3,,adl
0.325337,1.4421,0.1467,-0.1828,0.1917,1.4477,-3.468,9.0,-5.34,-39.3,,adl
0.340809,1.4421,0.1467,-0.1828,0.1917,1.4477,-3.468,9.0,-5.34,-39.3,,adl
0.341434,1.6523,1.9204,-1.2753,0.1917,1.4477,-3.468,9.0,-5.34,-39.3,,adl
0.344403,1.6523,1.9204,-1.2753,-0.1369,1.4482,-3.8808,9.0,-5.34,-39.3,,adl
0.365175,1.6523,1.9204,-1.2753,-0.7404,0.1236,-2.9657,9.0,-5.34,-39.3,,adl
0.385956,1.6523,1.9204,-1.2753,-0.7404,0.1236,-2.9657,10.74,-3.24,-39.3,,adl
0.386598,1.6523,1.9204,-1.2753,-1.036,-0.1593,-0.9747,10.74,-3.24,-39.3,,adl
0.402039,1.6523,1.9204,-1.2753,-1.036,-0.1593,-0.9747,10.74,-3.24,-39.3,,adl
0.402643,-5.9294,-7.5371,0.5984,-1.036,-0.1593,-0.9747,10.74,-3.24,-39.3,,adl
0.405941,-5.9294,-7.5371,0.5984,-0.3388,0.9119,-0.3601,10.74,-3.24,-39.3,,adl
0.426661,-5.9294,-7.5371,0.5984,0.187,0.1859,0.1587,10.74,-3.24,-39.3,,adl
0.447978,-5.9294,-7.5371,0.5984,0.187,0.1859,0.1587,12.18,-0.48,-38.4,,adl
0.448834,-5.9294,-7.5371,0.5984,0.6573,-0.2274,0.4969,12.18,-0.48,-38.4,,adl
0.46395,-5.9294,-7.5371,0.5984,0.6573,-0.2274,0.4969,12.18,-0.48,-38.4,,adl
0.464581,3.1622,-0.689,-1.4523,0.6573,-0.2274,0.4969,12.18,-0.48,-38.4,,adl
0.467514,3.1622,-0.689,-1.4523,0.2077,-0.7366,0.3286,12.18,-0.48,-38.4,,adl
0.488424,3.1622,-0.689,-1.4523,-0.3148,-0.4511,-0.032,12.18,-0.48,-38.4,,adl
0.509418,3.1622,-0.689,-1.4523,-0.3148,-0.4511,-0.032,12.72,1.2,-37.98,,adl
0.51003,3.1622,-0.689,-1.4523,-0.3009,-0.0181,-0.1321,12.72,1.2,-37.98,,adl
0.524953,3.1622,-0.689,-1.4523,-0.3009,-0.0181,-0.1321,12.72,1.2,-37.98,,adl
0.52584,-1.181,0.5726,-0.3027,-0.3009,-0.0181,-0.1321,12.72,1.2,-37.98,,adl
0.529265,-1.181,0.5726,-0.3027,-0.1614,-0.22,-0.1182,12.72,1.2,-37.98,,adl
0.550188,-1.181,0.5726,-0.3027,0.0245,-0.3079,-0.0682,12.72,1.2,-37.98,,adl
0.571523,-1.181,0.5726,-0.3027,0.0245,-0.3079,-0.0682,13.8,2.82,-38.04,,adl
0.572869,-1.181,0.5726,-0.3027,0.0517,-0.1156,0.0298,13.8,2.82,-38.04,,adl
0.588551,-1.181,0.5726,-0.3027,0.0517,-0.1156,0.0298,13.8,2.82,-38.04,,adl
0.589586,0.2132,-0.2271,-0.7706,0.0517,-0.1156,0.0298,13.8,2.82,-38.04,,adl
0.590816,0.2132,-0.2271,-0.7706,-0.0261,-0.0218,0.016,13.8,2.82,-38.04,,adl
0.611974,0.2132,-0.2271,-0.7706,-0.0581,-0.016,-0.0245,13.8,2.82,-38.04,,adl
0.633203,0.2132,-0.2271,-0.7706,-0.0581,-0.016,-0.0245,13.86,3.6,-37.8,,adl
0.634376,0.2132,-0.2271,-0.7706,-0.0399,-0.0314,-0.025,13.86,3.6,-37.8,,adl
0.649091,0.2132,-0.2271,-0.7706,-0.0399,-0.0314,-0.025,13.86,3.6,-37.8,,adl
0.650164,-0.1138,-0.082,0.0775,-0.0399,-0.0314,-0.025,13.86,3.6,-37.8,,adl
0.652525,-0.1138,-0.082,0.0775,-0.0245,-0.0112,-0.0043,13.86,3.6,-37.8,,adl
0.673679,-0.1138,-0.082,0.0775,-0.0261,0.0224,0.0293,13.86,3.6,-37.8,,adl
0.694414,-0.1138,-0.082,0.0775,-0.0261,0.0224,0.0293,14.1,3.42,-38.34,,adl
0.69565,-0.1138,-0.082,0.0775,-0.0256,0.0117,0.0442,14.1,3.42,-38.34,,adl
0.709954,-0.1138,-0.082,0.0775,-0.0256,0.0117,0.0442,14.1,3.42,-38.34,,adl
0.710942,0.2151,0.0088,-0.002,-0.0256,0.0117,0.0442,14.1,3.42,-38.34,,adl
0.714219,0.2151,0.0088,-0.002,-0.0091,-0.0032,0.0234,14.1,3.42,-38.34,,adl
0.734595,0.2151,0.0088,-0.002,-0.0053,0.0037,-0.0197,14.1,3.42,-38.34,,adl
0.755866,0.2151,0.0088,-0.002,-0.0053,0.0037,-0.0197,14.4,3.9,-37.92,,adl
0.757206,0.2151,0.0088,-0.002,-0.0266,0.0314,-0.0586,14.4,3.9,-37.92,,adl
0.772993,0.2151,0.0088,-0.002,-0.0266,0.0314,-0.0586,14.4,3.9,-37.92,,adl
0.77468,0.1011,-0.0527,-0.0851,-0.0266,0.0314,-0.0586,14.4,3.9,-37.92,,adl
0.776449,0.1011,-0.0527,-0.0851,-0.0485,0.0533,-0.0735,14.4,3.9,-37.92,,adl
0.796677,0.1011,-0.0527,-0.0851,-0.0687,0.049,-0.0666,14.4,3.9,-37.92,,adl
0.817298,0.1011,-0.0527,-0.0851,-0.0975,0.033,-0.0554,14.4,3.9,-37.92,,adl
0.817722,0.1011,-0.0527,-0.0851,-0.0975,0.033,-0.0554,14.34,4.2,-37.92,,adl
0.832964,0.1011,-0.0527,-0.0851,-0.0975,0.033,-0.0554,14.34,4.2,-37.92,,adl
0.833894,-0.2983,0.2234,0.0088,-0.0975,0.033,-0.0554,14.34,4.2,-37.92,,adl
0.837115,-0.2983,0.2234,0.0088,-0.1401,0.0138,-0.0517,14.34,4.2,-37.92,,adl
0.858386,-0.2983,0.2234,0.0088,-0.1848,-0.0069,-0.0463,14.34,4.2,-37.92,,adl
0.8804,-0.2983,0.2234,0.0088,-0.1848,-0.0069,-0.0463,14.22,4.32,-38.28,,adl
0.881749,-0.2983,0.2234,0.0088,-0.2232,-0.0581,-0.0479,14.22,4.32,-38.28,,adl
0.895833,-0.2983,0.2234,0.0088,-0.2232,-0.0581,-0.0479,14.22,4.32,-38.28,,adl
0.896951,-0.0289,0.0461,0.3399,-0.2232,-0.0581,-0.0479,14.22,4.32,-38.28,,adl
0.900261,-0.0289,0.0461,0.3399,-0.2338,-0.1204,-0.0533,14.22,4.32,-38.28,,adl
0.920505,-0.0289,0.0461,0.3399,-0.2392,-0.1694,-0.0639,14.22,4.32,-38.28,,adl
0.940916,-0.0289,0.0461,0.3399,-0.2392,-0.1694,-0.0639,13.62,4.5,-38.1,,adl
0.941923,-0.0289,0.0461,0.3399,-0.2706,-0.1859,-0.0719,13.62,4.5,-38.1,,adl
0.956828,-0.0289,0.0461,0.3399,-0.2706,-0.1859,-0.0719,13.62,4.5,-38.1,,adl
0.957891,-0.1428,-0.0544,0.3341,-0.2706,-0.1859,-0.0719,13.62,4.5,-38.1,,adl
0.960974,-0.1428,-0.0544,0.3341,-0.2999,-0.2035,-0.0708,13.62,4.5,-38.1,,adl
0.981363,-0.1428,-0.0544,0.3341,-0.3009,-0.2711,-0.0597,13.62,4.5,-38.1,,adl
1.002498,-0.1428,-0.0544,0.3341,-0.3009,-0.2711,-0.0597,13.44,4.92,-38.22,,adl
1.003518,-0.1428,-0.0544,0.3341,-0.2892,-0.3569,-0.0383,13.44,4.92,-38.22,,adl
1.018719,-0.1428,-0.0544,0.3341,-0.2892,-0.3569,-0.0383,13.44,4.92,-38.22,,adl
1.019673,-0.2544,-0.0405,0.3272,-0.2892,-0.3569,-0.0383,13.44,4.92,-38.22,,adl
1.022562,-0.2544,-0.0405,0.3272,-0.2743,-0.3718,-0.0314,13.44,4.92,-38.22,,adl
1.04312,-0.2544,-0.0405,0.3272,-0.2509,-0.327,-0.0346,13.44,4.92,-38.22,,adl
1.063908,-0.2544,-0.0405,0.3272,-0.2509,-0.327,-0.0346,13.44,4.98,-37.68,,adl
1.065149,-0.2544,-0.0405,0.3272,-0.2162,-0.3009,-0.0597,13.44,4.98,-37.68,,adl
1.080126,-0.2544,-0.0405,0.3272,-0.2162,-0.3009,-0.0597,13.44,4.98,-37.68,,adl
1.081046,-0.3142,0.7376,-0.2922,-0.2162,-0.3009,-0.0597,13.44,4.98,-37.68,,adl
1.083512,-0.3142,0.7376,-0.2922,-0.2429,-0.3595,-0.0788,13.44,4.98,-37.68,,adl
1.104836,-0.3142,0.7376,-0.2922,-0.326,-0.5241,-0.0607,13.44,4.98,-37.68,,adl
1.125505,-0.3142,0.7376,-0.2922,-0.326,-0.5241,-0.0607,13.26,5.94,-37.8,,adl
1.126509,-0.3142,0.7376,-0.2922,-0.4112,-0.7782,-0.0123,13.26,5.94,-37.8,,adl
1.14184,-0.3142,0.7376,-0.2922,-0.4112,-0.7782,-0.0123,13.26,5.94,-37.8,,adl
1.142891,-2.1541,0.437,-0.9552,-0.4112,-0.7782,-0.0123,13.26,5.94,-37.8,,adl
1.146595,-2.1541,0.437,-0.9552,-0.4645,-0.9353,0.0836,13.26,5.94,-37.8,,adl
1.166182,-2.1541,0.437,-0.9552,-0.4975,-0.8426,0.1822,13.26,5.94,-37.8,,adl
1.187781,-2.1541,0.437,-0.9552,-0.4975,-0.8426,0.1822,12.66,6.9,-37.74,,adl
1.189051,-2.1541,0.437,-0.9552,-0.5497,-0.5587,0.2487,12.66,6.9,-37.74,,adl
1.202861,-2.1541,0.437,-0.9552,-0.5497,-0.5587,0.2487,12.66,6.9,-37.74,,adl
1.203431,0.0517,-0.1854,0.3802,-0.5497,-0.5587,0.2487,12.66,6.9,-37.74,,adl
1.206989,0.0517,-0.1854,0.3802,-0.5204,-0.2663,0.2104,12.66,6.9,-37.74,,adl
1.228404,0.0517,-0.1854,0.3802,-0.3691,-0.2013,0.1214,12.66,6.9,-37.74,,adl
1.249025,0.0517,-0.1854,0.3802,-0.3691,-0.2013,0.1214,11.16,7.86,-38.22,,adl
1.25011,0.0517,-0.1854,0.3802,-0.2093,-0.1848,0.0383,11.16,7.86,-38.22,,adl
1.264668,0.0517,-0.1854,0.3802,-0.2093,-0.1848,0.0383,11.16,7.86,-38.22,,adl
1.265702,0.8435,-0.7293,1.3975,-0.2093,-0.1848,0.0383,11.16,7.86,-38.22,,adl
1.268516,0.8435,-0.7293,1.3975,-0.0597,-0.0597,-0.0618,11.16,7.86,-38.22,,adl
1.289114,0.8435,-0.7293,1.3975,0.0197,-0.0581,-0.1491,11.16,7.86,-38.22,,adl
1.310553,0.8435,-0.7293,1.3975,0.0197,-0.0581,-0.1491,9.66,8.76,-38.52,,adl
1.311448,0.8435,-0.7293,1.3975,0.066,-0.1502,-0.2423,9.66,8.76,-38.52,,adl
1.325851,0.8435,-0.7293,1.3975,0.066,-0.1502,-0.2423,9.66,8.76,-38.52,,adl
1.326793,-0.4488,-0.0795,-0.7001,0.066,-0.1502,-0.2423,9.66,8.76,-38.52,,adl
1.329888,-0.4488,-0.0795,-0.7001,0.0586,-0.2663,-0.2732,9.66,8.76,-38.52,,adl
1.35055,-0.4488,-0.0795,-0.7001,0.0442,-0.2461,-0.2748,9.66,8.76,-38.52,,adl
1.372019,-0.4488,-0.0795,-0.7001,0.0698,-0.1395,-0.2567,9.66,8.76,-38.52,,adl
1.373052,-0.4488,-0.0795,-0.7001,0.0698,-0.1395,-0.2567,8.16,9.06,-38.52,,adl
1.387892,-0.4488,-0.0795,-0.7001,0.0698,-0.1395,-0.2567,8.16,9.06,-38.52,,adl
1.388367,-0.6966,0.5387,0.214,0.0698,-0.1395,-0.2567,8.16,9.06,-38.52,,adl
1.391539,-0.6966,0.5387,0.214,0.1262,0.0394,-0.2775,8.16,9.06,-38.52,,adl
1.413445,-0.6966,0.5387,0.214,0.131,0.0932,-0.3111,8.16,9.06,-38.52,,adl
1.434791,-0.6966,0.5387,0.214,0.131,0.0932,-0.3111,7.26,9.48,-39.0,,adl
1.436238,-0.6966,0.5387,0.214,0.0948,-0.0671,-0.294,7.26,9.48,-39.0,,adl
1.449274,-0.6966,0.5387,0.214,0.0948,-0.0671,-0.294,7.26,9.48,-39.0,,adl
1.45013,-0.3809,0.374,-0.0286,0.0948,-0.0671,-0.294,7.26,9.48,-39.0,,adl
1.453003,-0.3809,0.374,-0.0286,0.0586,-0.2312,-0.2285,7.26,9.48,-39.0,,adl
1.474493,-0.3809,0.374,-0.0286,-0.0218,-0.3041,-0.1619,7.26,9.48,-39.0,,adl
1.495326,-0.3809,0.374,-0.0286,-0.0218,-0.3041,-0.1619,6.66,9.72,-39.18,,adl
1.49655,-0.3809,0.374,-0.0286,-0.1401,-0.2264,-0.1033,6.66,9.72,-39.18,,adl
1.511878,-0.3809,0.374,-0.0286,-0.1401,-0.2264,-0.1033,6.66,9.72,-39.18,,adl
1.51288,0.1627,-0.0868,-0.297,-0.1401,-0.2264,-0.1033,6.66,9.72,-39.18,,adl
1.51589,0.1627,-0.0868,-0.297,-0.2344,-0.1539,-0.082,6.66,9.72,-39.18,,adl
1.535229,0.1627,-0.0868,-0.297,-0.3025,-0.0751,-0.0692,6.66,9.72,-39.18,,adl
1.556683,0.1627,-0.0868,-0.297,-0.3025,-0.0751,-0.0692,5.88,9.6,-39.12,,adl
1.558197,0.1627,-0.0868,-0.297,-0.3009,-0.0293,-0.0453,5.88,9.6,-39.12,,adl
1.5722,0.1627,-0.0868,-0.297,-0.3009,-0.0293,-0.0453,5.88,9.6,-39.12,,adl
1.573321,0.1446,-1.0591,0.9849,-0.3009,-0.0293,-0.0453,5.88,9.6,-39.12,,adl
1.576465,0.1446,-1.0591,0.9849,-0.179,-0.066,-0.0037,5.88,9.6,-39.12,,adl
1.597088,0.1446,-1.0591,0.9849,0.1486,-0.1182,0.0517,5.88,9.6,-39.12,,adl
1.618652,0.1446,-1.0591,0.9849,0.1486,-0.1182,0.0517,5.58,9.72,-39.12,,adl
1.619687,0.1446,-1.0591,0.9849,0.5316,-0.1854,0.2051,5.58,9.72,-39.12,,adl
1.633978,0.1446,-1.0591,0.9849,0.5316,-0.1854,0.2051,5.58,9.72,-39.12,,adl
1.635034,-0.33,-2.2462,1.2371,0.5316,-0.1854,0.2051,5.58,9.72,-39.12,,adl
1.638449,-0.33,-2.2462,1.2371,0.8607,-0.0698,0.4064,5.58,9.72,-39.12,,adl
1.658541,-0.33,-2.2462,1.2371,1.1324,0.0197,0.4522,5.58,9.72,-39.12,,adl
1.679816,-0.33,-2.2462,1.2371,1.1324,0.0197,0.4522,5.16,9.42,-38.64,,adl
1.680824,-0.33,-2.2462,1.2371,1.3337,-0.0804,0.4623,5.16,9.42,-38.64,,adl
1.696016,-0.33,-2.2462,1.2371,1.3337,-0.0804,0.4623,5.16,9.42,-38.64,,adl
1.69701,-0.6375,-3.1575,1.4488,1.3337,-0.0804,0.4623,5.16,9.42,-38.64,,adl
1.700477,-0.6375,-3.1575,1.4488,1.371,-0.4916,0.5454,5.16,9.42,-38.64,,adl
1.721598,-0.6375,-3.1575,1.4488,1.2346,-0.8815,0.6477,5.16,9.42,-38.64,,adl
1.741263,-0.6375,-3.1575,1.4488,1.2346,-0.8815,0.6477,5.1,8.28,-38.7,,adl
1.742232,-0.6375,-3.1575,1.4488,1.1377,-1.0248,0.7489,5.1,8.28,-38.7,,adl
1.757399,-0.6375,-3.1575,1.4488,1.1377,-1.0248,0.7489,5.1,8.28,-38.7,,adl
1.75845,0.1427,-0.1526,-2.4252,1.1377,-1.0248,0.7489,5.1,8.28,-38.7,,adl
1.761102,0.1427,-0.1526,-2.4252,1.0418,-1.0775,0.7942,5.1,8.28,-38.7,,adl
1.781864,0.1427,-0.1526,-2.4252,0.7702,-1.1164,0.7952,5.1,8.28,-38.7,,adl
1.803494,0.1427,-0.1526,-2.4252,0.7702,-1.1164,0.7952,4.68,6.72,-39.3,,adl
1.804398,0.1427,-0.1526,-2.4252,0.4421,-1.1116,0.7585,4.68,6.72,-39.3,,adl
1.819225,0.1427,-0.1526,-2.4252,0.4421,-1.1116,0.7585,4.68,6.72,-39.3,,adl
1.820417,1.8623,0.6008,-4.3619,0.4421,-1.1116,0.7585,4.68,6.72,-39.3,,adl
1.823472,1.8623,0.6008,-4.3619,0.1486,-1.1196,0.7382,4.68,6.72,-39.3,,adl
1.843618,1.8623,0.6008,-4.3619,-0.0927,-1.0392,0.7995,4.68,6.72,-39.3,,adl
1.864702,1.8623,0.6008,-4.3619,-0.0927,-1.0392,0.7995,3.54,4.32,-39.36,,adl
1.865891,1.8623,0.6008,-4.3619,-0.3808,-0.767,0.9012,3.54,4.32,-39.36,,adl
1.880856,1.8623,0.6008,-4.3619,-0.3808,-0.767,0.9012,3.54,4.32,-39.36,,adl
1.881906,-0.3938,-0.6542,-1.9193,-0.3808,-0.767,0.9012,3.54,4.32,-39.36,,adl
1.884431,-0.3938,-0.6542,-1.9193,-0.5422,-0.6381,0.9875,3.54,4.32,-39.36,,adl
1.905055,-0.3938,-0.6542,-1.9193,-0.4277,-0.9348,0.9518,3.54,4.32,-39.36,,adl
1.92652,-0.3938,-0.6542,-1.9193,-0.4277,-0.9348,0.9518,1.8,1.98,-39.9,,adl
1.927555,-0.3938,-0.6542,-1.9193,-0.3345,-1.3034,0.8368,1.8,1.98,-39.9,,adl
1.941814,-0.3938,-0.6542,-1.9193,-0.3345,-1.3034,0.8368,1.8,1.98,-39.9,,adl
1.942721,2.9556,-1.0951,-1.7573,-0.3345,-1.3034,0.8368,1.8,1.98,-39.9,,adl
1.947054,2.9556,-1.0951,-1.7573,-0.4549,-1.5894,0.6637,1.8,1.98,-39.9,,adl
1.966331,2.9556,-1.0951,-1.7573,-0.5939,-1.6331,0.4128,1.8,1.98,-39.9,,adl
1.987796,2.9556,-1.0951,-1.7573,-0.5939,-1.6331,0.4128,-0.84,0.6,-39.78,,adl
1.988408,2.9556,-1.0951,-1.7573,-0.5204,-1.3801,0.2221,-0.84,0.6,-39.78,,adl
2.004312,2.9556,-1.0951,-1.7573,-0.5204,-1.3801,0.2221,-0.84,0.6,-39.78,,adl
2.005283,3.1091,-2.0684,-0.9312,-0.5204,-1.3801,0.2221,-0.84,0.6,-39.78,,adl
2.007855,3.1091,-2.0684,-0.9312,-0.3457,-1.0722,0.1507,-0.84,0.6,-39.78,,adl
2.02847,3.1091,-2.0684,-0.9312,-0.2131,-0.7382,0.187,-0.84,0.6,-39.78,,adl
2.049396,3.1091,-2.0684,-0.9312,-0.2131,-0.7382,0.187,-3.84,0.54,-39.3,,adl
2.050339,3.1091,-2.0684,-0.9312,-0.163,-0.4671,0.2189,-3.84,0.54,-39.3,,adl
2.065072,3.1091,-2.0684,-0.9312,-0.163,-0.4671,0.2189,-3.84,0.54,-39.3,,adl
2.066254,2.5258,-0.9563,-1.2999,-0.163,-0.4671,0.2189,-3.84,0.54,-39.3,,adl
2.068986,2.5258,-0.9563,-1.2999,-0.1374,-0.2397,0.2072,-3.84,0.54,-39.3,,adl
2.089915,2.5258,-0.9563,-1.2999,-0.1411,-0.049,0.2019,-3.84,0.54,-39.3,,adl
2.111338,2.5258,-0.9563,-1.2999,-0.1411,-0.049,0.2019,-6.78,1.38,-39.12,,adl
2.112784,2.5258,-0.9563,-1.2999,-0.1933,0.0921,0.1763,-6.78,1.38,-39.12,,adl
2.127088,2.5258,-0.9563,-1.2999,-0.1933,0.0921,0.1763,-6.78,1.38,-39.12,,adl
2.128399,1.1593,-0.1114,-1.237,-0.1933,0.0921,0.1763,-6.78,1.38,-39.12,,adl
2.131353,1.1593,-0.1114,-1.237,-0.2605,0.0964,0.1214,-6.78,1.38,-39.12,,adl
2.15112,1.1593,-0.1114,-1.237,-0.3254,0.0138,0.0554,-6.78,1.38,-39.12,,adl
2.17267,1.1593,-0.1114,-1.237,-0.3254,0.0138,0.0554,-9.18,2.34,-38.88,,adl
2.173871,1.1593,-0.1114,-1.237,-0.3521,-0.0474,0.0213,-9.18,2.34,-38.88,,adl
2.187913,1.1593,-0.1114,-1.237,-0.3521,-0.0474,0.0213,-9.18,2.34,-38.88,,adl
2.188597,0.9282,1.1587,-0.4738,-0.3521,-0.0474,0.0213,-9.18,2.34,-38.88,,adl
2.192245,0.9282,1.1587,-0.4738,-0.3228,-0.0911,-0.0202,-9.18,2.34,-38.88,,adl
2.213346,0.9282,1.1587,-0.4738,-0.3467,-0.22,-0.0842,-9.18,2.34,-38.88,,adl
2.234331,0.9282,1.1587,-0.4738,-0.3467,-0.22,-0.0842,-10.62,3.48,-38.16,,adl
2.235345,0.9282,1.1587,-0.4738,-0.4762,-0.3206,-0.1177,-10.62,3.48,-38.16,,adl
2.249866,0.9282,1.1587,-0.4738,-0.4762,-0.3206,-0.1177,-10.62,3.48,-38.16,,adl
2.250632,-0.0677,-0.7982,-0.4253,-0.4762,-0.3206,-0.1177,-10.62,3.48,-38.16,,adl
2.254295,-0.0677,-0.7982,-0.4253,-0.6301,-0.1667,-0.098,-10.62,3.48,-38.16,,adl
2.274752,-0.0677,-0.7982,-0.4253,-0.6839,0.1417,-0.0399,-10.62,3.48,-38.16,,adl
2.2956,-0.0677,-0.7982,-0.4253,-0.6839,0.1417,-0.0399,-11.16,4.2,-37.98,,adl
2.296108,-0.0677,-0.7982,-0.4253,-0.5981,0.3973,-0.008,-11.16,4.2,-37.98,,adl
2.311075,-0.0677,-0.7982,-0.4253,-0.5981,0.3973,-0.008,-11.16,4.2,-37.98,,adl
2.311413,0.3431,-0.4919,1.3015,-0.5981,0.3973,-0.008,-11.16,4.2,-37.98,,adl
2.315132,0.3431,-0.4919,1.3015,-0.4341,0.5087,-0.0399,-11.16,4.2,-37.98,,adl
2.336191,0.3431,-0.4919,1.3015,-0.3015,0.6045,-0.1806,-11.16,4.2,-37.98,,adl
2.356718,0.3431,-0.4919,1.3015,-0.3015,0.6045,-0.1806,-11.4,4.68,-37.62,,adl
2.357023,0.3431,-0.4919,1.3015,-0.1891,0.8437,-0.4559,-11.4,4.68,-37.62,,adl
2.372765,0.3431,-0.4919,1.3015,-0.1891,0.8437,-0.4559,-11.4,4.68,-37.62,,adl
2.373036,0.3971,-7.1569,0.7018,-0.1891,0.8437,-0.4559,-11.4,4.68,-37.62,,adl
2.376665,0.3971,-7.1569,0.7018,-0.1561,1.0349,-0.7324,-11.4,4.68,-37.62,,adl
2.397527,0.3971,-7.1569,0.7018,-0.0719,1.0589,-0.5577,-11.4,4.68,-37.62,,adl
2.418702,0.3971,-7.1569,0.7018,-0.0719,1.0589,-0.5577,-10.86,5.28,-37.02,,adl
2.419349,0.3971,-7.1569,0.7018,0.1294,1.0759,-0.376,-10.86,5.28,-37.02,,adl
2.434521,0.3971,-7.1569,0.7018,0.1294,1.0759,-0.376,-10.86,5.28,-37.02,,adl
2.435082,2.8812,0.5669,-2.2835,0.1294,1.0759,-0.376,-10.86,5.28,-37.02,,adl
2.438589,2.8812,0.5669,-2.2835,0.2301,1.2421,-0.4357,-10.86,5.28,-37.02,,adl
2.458923,2.8812,0.5669,-2.2835,0.2173,1.1947,-0.4645,-10.86,5.28,-37.02,,adl
2.480511,2.8812,0.5669,-2.2835,0.2173,1.1947,-0.4645,-10.38,6.06,-36.72,,adl
2.481505,2.8812,0.5669,-2.2835,0.1886,0.8954,-0.4394,-10.38,6.06,-36.72,,adl
2.498594,2.8812,0.5669,-2.2835,0.1886,0.8954,-0.4394,-10.38,6.06,-36.72,,adl
2.499613,-0.1049,1.2509,-3.1608,0.1886,0.8954,-0.4394,-10.38,6.06,-36.72,,adl
2.500949,-0.1049,1.2509,-3.1608,0.1518,0.5113,-0.3329,-10.38,6.06,-36.72,,adl
2.521462,-0.1049,1.2509,-3.1608,0.0517,0.1917,-0.1704,-10.38,6.06,-36.72,,adl
2.542729,-0.1049,1.2509,-3.1608,0.0517,0.1917,-0.1704,-8.7,6.6,-36.84,,adl
2.543965,-0.1049,1.2509,-3.1608,-0.0229,0.1598,-0.1012,-8.7,6.6,-36.84,,adl
2.557516,-0.1049,1.2509,-3.1608,-0.0229,0.1598,-0.1012,-8.7,6.6,-36.84,,adl
2.558513,-1.0564,-1.7244,-3.7735,-0.0229,0.1598,-0.1012,-8.7,6.6,-36.84,,adl
2.562746,-1.0564,-1.7244,-3.7735,-0.0107,0.343,-0.1667,-8.7,6.6,-36.84,,adl
2.583066,-1.0564,-1.7244,-3.7735,-0.0703,0.7175,-0.2226,-8.7,6.6,-36.84,,adl
2.604417,-1.0564,-1.7244,-3.7735,-0.0703,0.7175,-0.2226,-6.48,7.02,-37.32,,adl
2.605645,-1.0564,-1.7244,-3.7735,-0.1987,0.8501,-0.2077,-6.48,7.02,-37.32,,adl
2.620555,-1.0564,-1.7244,-3.7735,-0.1987,0.8501,-0.2077,-6.48,7.02,-37.32,,adl
2.621595,0.3283,0.4302,-1.7934,-0.1987,0.8501,-0.2077,-6.48,7.02,-37.32,,adl
2.624926,0.3283,0.4302,-1.7934,-0.2461,0.6759,-0.1156,-6.48,7.02,-37.32,,adl
2.644529,0.3283,0.4302,-1.7934,-0.2679,0.5156,0.0879,-6.48,7.02,-37.32,,adl
2.66536,0.3283,0.4302,-1.7934,-0.2679,0.5156,0.0879,-4.38,7.26,-37.8,,adl
2.66645,0.3283,0.4302,-1.7934,-0.2413,0.7499,0.2573,-4.38,7.26,-37.8,,adl
2.68161,0.3283,0.4302,-1.7934,-0.2413,0.7499,0.2573,-4.38,7.26,-37.8,,adl
2.682561,1.2195,-1.3426,0.3997,-0.2413,0.7499,0.2573,-4.38,7.26,-37.8,,adl
2.685227,1.2195,-1.3426,0.3997,-0.0847,1.0685,0.2999,-4.38,7.26,-37.8,,adl
2.705866,1.2195,-1.3426,0.3997,0.2392,1.2474,0.2274,-4.38,7.26,-37.8,,adl
2.727395,1.2195,-1.3426,0.3997,0.2392,1.2474,0.2274,-2.22,6.9,-38.52,,adl
2.728651,1.2195,-1.3426,0.3997,0.6195,1.1649,0.1017,-2.22,6.9,-38.52,,adl
2.743283,1.2195,-1.3426,0.3997,0.6195,1.1649,0.1017,-2.22,6.9,-38.52,,adl
2.744506,2.6651,-0.8099,-0.4162,0.6195,1.1649,0.1017,-2.22,6.9,-38.52,,adl
2.74737,2.6651,-0.8099,-0.4162,0.7036,0.9177,-0.115,-2.22,6.9,-38.52,,adl
2.767018,2.6651,-0.8099,-0.4162,0.4618,0.6312,-0.3601,-2.22,6.9,-38.52,,adl
2.788874,2.6651,-0.8099,-0.4162,0.4618,0.6312,-0.3601,-0.66,6.96,-38.28,,adl
2.789912,2.6651,-0.8099,-0.4162,0.0874,0.3494,-0.5353,-0.66,6.96,-38.28,,adl
2.804211,2.6651,-0.8099,-0.4162,0.0874,0.3494,-0.5353,-0.66,6.96,-38.28,,adl
2.805162,-0.1189,0.1493,-1.7587,0.0874,0.3494,-0.5353,-0.66,6.96,-38.28,,adl
2.808757,-0.1189,0.1493,-1.7587,-0.1672,0.1965,-0.6232,-0.66,6.96,-38.28,,adl
2.830384,-0.1189,0.1493,-1.7587,-0.3164,0.3382,-0.6285,-0.66,6.96,-38.28,,adl
2.850334,-0.1189,0.1493,-1.7587,-0.3164,0.3382,-0.6285,1.02,6.36,-38.28,,adl
2.851337,-0.1189,0.1493,-1.7587,-0.3734,0.7686,-0.5183,1.02,6.36,-38.28,,adl
2.866457,-0.1189,0.1493,-1.7587,-0.3734,0.7686,-0.5183,1.02,6.36,-38.28,,adl
2.867347,-2.1824,1.128,0.5138,-0.3734,0.7686,-0.5183,1.02,6.36,-38.28,,adl
2.871506,-2.1824,1.128,0.5138,-0.285,1.0258,-0.3553,1.02,6.36,-38.28,,adl
2.890653,-2.1824,1.128,0.5138,-0.0916,1.0871,-0.1486,1.02,6.36,-38.28,,adl
2.912894,-2.1824,1.128,0.5138,-0.0916,1.0871,-0.1486,2.28,6.24,-38.4,,adl
2.91403,-2.1824,1.128,0.5138,0.1236,1.0669,0.0336,2.28,6.24,-38.4,,adl
2.928168,-2.1824,1.128,0.5138,0.1236,1.0669,0.0336,2.28,6.24,-38.4,,adl
2.929265,-0.7547,-0.1247,2.4684,0.1236,1.0669,0.0336,2.28,6.24,-38.4,,adl
2.932405,-0.7547,-0.1247,2.4684,0.2668,0.8826,0.0996,2.28,6.24,-38.4,,adl
2.952569,-0.7547,-0.1247,2.4684,0.4165,0.4282,0.0426,2.28,6.24,-38.4,,adl
2.97305,-0.7547,-0.1247,2.4684,0.4165,0.4282,0.0426,4.2,6.18,-37.98,,adl
2.974016,-0.7547,-0.1247,2.4684,0.5566,0.1294,0.0123,4.2,6.18,-37.98,,adl
2.989193,-0.7547,-0.1247,2.4684,0.5566,0.1294,0.0123,4.2,6.18,-37.98,,adl
2.990209,-0.7749,-0.1792,0.4099,0.5566,0.1294,0.0123,4.2,6.18,-37.98,,adl
2.993034,-0.7749,-0.1792,0.4099,0.7643,0.4597,0.1433,4.2,6.18,-37.98,,adl
3.013757,-0.7749,-0.1792,0.4099,1.0519,0.9902,0.3574,4.2,6.18,-37.98,,adl
3.035658,-0.7749,-0.1792,0.4099,1.0519,0.9902,0.3574,5.82,5.28,-37.74,,adl
3.036775,-0.7749,-0.1792,0.4099,1.2858,1.0834,0.727,5.82,5.28,-37.74,,adl
3.051202,-0.7749,-0.1792,0.4099,1.2858,1.0834,0.727,5.82,5.28,-37.74,,adl
3.052457,-0.8692,0.7688,-0.9182,1.2858,1.0834,0.727,5.82,5.28,-37.74,,adl
3.055591,-0.8692,0.7688,-0.9182,1.3135,0.8586,1.0685,5.82,5.28,-37.74,,adl
3.074944,-0.8692,0.7688,-0.9182,1.0802,0.9976,1.0706,5.82,5.28,-37.74,,adl
3.096567,-0.8692,0.7688,-0.9182,1.0802,0.9976,1.0706,7.32,4.8,-37.92,,adl
3.09792,-0.8692,0.7688,-0.9182,0.825,1.5159,0.8522,7.32,4.8,-37.92,,adl
3.113033,-0.8692,0.7688,-0.9182,0.825,1.5159,0.8522,7.32,4.8,-37.92,,adl
3.114013,2.8396,-9.171,3.1422,0.825,1.5159,0.8522,7.32,4.8,-37.92,,adl
3.116999,2.8396,-9.171,3.1422,0.9332,1.4104,0.3579,7.32,4.8,-37.92,,adl
3.13811,2.8396,-9.171,3.1422,1.6815,-0.848,0.0405,7.32,4.8,-37.92,,adl
3.159088,2.8396,-9.171,3.1422,1.6815,-0.848,0.0405,9.42,3.24,-37.26,,adl
3.160279,2.8396,-9.171,3.1422,2.1449,-0.9998,0.0266,9.42,3.24,-37.26,,adl
3.17433,2.8396,-9.171,3.1422,2.1449,-0.9998,0.0266,9.42,3.24,-37.26,,adl
3.175395,1.7128,-0.5929,-2.1021,2.1449,-0.9998,0.0266,9.42,3.24,-37.26,,adl
3.180175,1.7128,-0.5929,-2.1021,2.1193,0.0352,0.1582,9.42,3.24,-37.26,,adl
3.199399,1.7128,-0.5929,-2.1021,1.4227,0.0964,0.3995,9.42,3.24,-37.26,,adl
3.220302,1.7128,-0.5929,-2.1021,1.4227,0.0964,0.3995,10.68,0.48,-37.08,,adl
3.221653,1.7128,-0.5929,-2.1021,0.7665,-0.1204,0.5832,10.68,0.48,-37.08,,adl
3.236114,1.7128,-0.5929,-2.1021,0.7665,-0.1204,0.5832,10.68,0.48,-37.08,,adl
3.237201,0.1082,0.028,-3.3181,0.7665,-0.1204,0.5832,10.68,0.48,-37.08,,adl
3.24046,0.1082,0.028,-3.3181,0.2855,-0.2759,0.6125,10.68,0.48,-37.08,,adl
3.260467,0.1082,0.028,-3.3181,0.0575,-0.4495,0.4075,10.68,0.48,-37.08,,adl
3.281201,0.1082,0.028,-3.3181,0.0575,-0.4495,0.4075,11.52,-2.4,-36.54,,adl
3.28243,0.1082,0.028,-3.3181,0.1678,-0.6583,0.0831,11.52,-2.4,-36.54,,adl
3.296848,0.1082,0.028,-3.3181,0.1678,-0.6583,0.0831,11.52,-2.4,-36.54,,adl
3.298305,3.9203,-1.8102,0.6611,0.1678,-0.6583,0.0831,11.52,-2.4,-36.54,,adl
3.300896,3.9203,-1.8102,0.6611,0.425,-0.6189,-0.1438,11.52,-2.4,-36.54,,adl
3.322404,3.9203,-1.8102,0.6611,0.644,-0.2418,-0.2131,11.52,-2.4,-36.54,,adl
3.34423,3.9203,-1.8102,0.6611,0.644,-0.2418,-0.2131,11.76,-5.46,-35.46,,adl
3.345739,3.9203,-1.8102,0.6611,0.7015,0.2349,-0.1459,11.76,-5.46,-35.46,,adl
3.359669,3.9203,-1.8102,0.6611,0.7015,0.2349,-0.1459,11.76,-5.46,-35.46,,adl
3.361285,2.5522,-0.213,-0.7941,0.7015,0.2349,-0.1459,11.76,-5.46,-35.46,,adl
3.363973,2.5522,-0.213,-0.7941,0.6669,0.4852,-0.1475,11.76,-5.46,-35.46,,adl
3.383586,2.5522,-0.213,-0.7941,0.5561,0.3105,-0.2099,11.76,-5.46,-35.46,,adl
3.405001,2.5522,-0.213,-0.7941,0.5561,0.3105,-0.2099,11.22,-7.98,-35.04,,adl
3.406728,2.5522,-0.213,-0.7941,0.4155,0.0053,-0.2104,11.22,-7.98,-35.04,,adl
3.421028,2.5522,-0.213,-0.7941,0.4155,0.0053,-0.2104,11.22,-7.98,-35.04,,adl
3.422446,0.8145,-0.1147,-1.0826,0.4155,0.0053,-0.2104,11.22,-7.98,-35.04,,adl
3.426082,0.8145,-0.1147,-1.0826,0.2759,-0.1651,-0.1859,11.22,-7.98,-35.04,,adl
3.445919,0.8145,-0.1147,-1.0826,0.1603,-0.2455,-0.1726,11.22,-7.98,-35.04,,adl
3.466808,0.8145,-0.1147,-1.0826,0.1603,-0.2455,-0.1726,10.5,-9.84,-34.74,,adl
3.468803,0.8145,-0.1147,-1.0826,0.1273,-0.1667,-0.1864,10.5,-9.84,-34.74,,adl
3.482051,0.8145,-0.1147,-1.0826,0.1273,-0.1667,-0.1864,10.5,-9.84,-34.74,,adl
3.483625,2.3299,0.4105,-0.6175,0.1273,-0.1667,-0.1864,10.5,-9.84,-34.74,,adl
3.485715,2.3299,0.4105,-0.6175,0.1401,0.0794,-0.2269,10.5,-9.84,-34.74,,adl
3.507005,2.3299,0.4105,-0.6175,0.1209,0.3925,-0.2807,10.5,-9.84,-34.74,,adl
3.528407,2.3299,0.4105,-0.6175,0.1209,0.3925,-0.2807,10.56,-11.1,-34.68,,adl
3.529822,2.3299,0.4105,-0.6175,0.0666,0.5976,-0.351,10.56,-11.1,-34.68,,adl
3.544408,2.3299,0.4105,-0.6175,0.0666,0.5976,-0.351,10.56,-11.1,-34.68,,adl
3.545881,1.1785,0.2589,0.3593,0.0666,0.5976,-0.351,10.56,-11.1,-34.68,,adl
3.548284,1.1785,0.2589,0.3593,0.049,0.6988,-0.3867,10.56,-11.1,-34.68,,adl
3.569494,1.1785,0.2589,0.3593,0.0261,0.6695,-0.3489,10.56,-11.1,-34.68,,adl
3.590578,1.1785,0.2589,0.3593,0.0261,0.6695,-0.3489,11.04,-11.22,-34.98,,adl
3.592563,1.1785,0.2589,0.3593,0.0043,0.5151,-0.2855,11.04,-11.22,-34.98,,adl
3.605945,1.1785,0.2589,0.3593,0.0043,0.5151,-0.2855,11.04,-11.22,-34.98,,adl
3.608024,-0.3358,0.8087,0.2643,0.0043,0.5151,-0.2855,11.04,-11.22,-34.98,,adl
3.609252,-0.3358,0.8087,0.2643,-0.0538,0.2589,-0.2562,11.04,-11.22,-34.98,,adl
3.630482,-0.3358,0.8087,0.2643,-0.1795,0.0314,-0.2583,11.04,-11.22,-34.98,,adl
3.652199,-0.3358,0.8087,0.2643,-0.1795,0.0314,-0.2583,11.46,-11.52,-34.86,,adl
3.654002,-0.3358,0.8087,0.2643,-0.3686,-0.1001,-0.2354,11.46,-11.52,-34.86,,adl
3.668248,-0.3358,0.8087,0.2643,-0.3686,-0.1001,-0.2354,11.46,-11.52,-34.86,,adl
3.669771,-0.6606,-0.224,0.4723,-0.3686,-0.1001,-0.2354,11.46,-11.52,-34.86,,adl
3.671261,-0.6606,-0.224,0.4723,-0.5257,-0.1577,-0.172,11.46,-11.52,-34.86,,adl
3.692545,-0.6606,-0.224,0.4723,-0.5763,-0.1124,-0.1012,11.46,-11.52,-34.86,,adl
3.713401,-0.6606,-0.224,0.4723,-0.5763,-0.1124,-0.1012,12.0,-11.28,-34.98,,adl
3.715245,-0.6606,-0.224,0.4723,-0.5092,0.0549,0.0032,12.0,-11.28,-34.98,,adl
3.729645,-0.6606,-0.224,0.4723,-0.5092,0.0549,0.0032,12.0,-11.28,-34.98,,adl
3.731166,0.1097,-0.9802,0.7471,-0.5092,0.0549,0.0032,12.0,-11.28,-34.98,,adl
3.732537,0.1097,-0.9802,0.7471,-0.3899,0.3196,0.1198,12.0,-11.28,-34.98,,adl
3.754199,0.1097,-0.9802,0.7471,-0.326,0.5305,0.1321,12.0,-11.28,-34.98,,adl
3.774543,0.1097,-0.9802,0.7471,-0.326,0.5305,0.1321,12.0,-10.68,-34.98,,adl
3.776494,0.1097,-0.9802,0.7471,-0.3286,0.7164,-0.0032,12.0,-10.68,-34.98,,adl
3.788951,0.1097,-0.9802,0.7471,-0.3286,0.7164,-0.0032,12.0,-10.68,-34.98,,adl
3.789425,0.5738,-4.1264,-0.2241,-0.3286,0.7164,-0.0032,12.0,-10.68,-34.98,,adl
3.794307,0.5738,-4.1264,-0.2241,-0.3601,1.029,-0.318,12.0,-10.68,-34.98,,adl
3.815831,0.5738,-4.1264,-0.2241,-0.2349,0.9257,-0.4618,12.0,-10.68,-34.98,,adl
3.836596,0.5738,-4.1264,-0.2241,-0.2349,0.9257,-0.4618,12.66,-10.26,-34.38,,adl
3.838171,0.5738,-4.1264,-0.2241,0.0426,0.5151,-0.334,12.66,-10.26,-34.38,,adl
3.85298,0.5738,-4.1264,-0.2241,0.0426,0.5151,-0.334,12.66,-10.26,-34.38,,adl
3.854586,0.5137,-3.3835,-0.7772,0.0426,0.5151,-0.334,12.66,-10.26,-34.38,,adl
3.856076,0.5137,-3.3835,-0.7772,0.2605,0.2871,-0.228,12.66,-10.26,-34.38,,adl
3.877555,0.5137,-3.3835,-0.7772,0.2866,0.2929,-0.2546,12.66,-10.26,-34.38,,adl
3.897654,0.5137,-3.3835,-0.7772,0.2866,0.2929,-0.2546,13.86,-9.66,-33.9,,adl
3.899468,0.5137,-3.3835,-0.7772,0.237,0.171,-0.2471,13.86,-9.66,-33.9,,adl
3.914354,0.5137,-3.3835,-0.7772,0.237,0.171,-0.2471,13.86,-9.66,-33.9,,adl
3.916107,1.2377,2.0147,-4.6453,0.237,0.171,-0.2471,13.86,-9.66,-33.9,,adl
3.91743,1.2377,2.0147,-4.6453,0.2226,-0.0064,-0.2402,13.86,-9.66,-33.9,,adl
3.938854,1.2377,2.0147,-4.6453,0.1449,-0.4938,-0.3798,13.86,-9.66,-33.9,,adl
3.959981,1.2377,2.0147,-4.6453,0.1449,-0.4938,-0.3798,15.36,-8.94,-33.54,,adl
3.961846,1.2377,2.0147,-4.6453,0.0506,-0.5667,-0.571,15.36,-8.94,-33.54,,adl
3.976204,1.2377,2.0147,-4.6453,0.0506,-0.5667,-0.571,15.36,-8.94,-33.54,,adl
3.977719,-0.4096,-0.3502,-8.3681,0.0506,-0.5667,-0.571,15.36,-8.94,-33.54,,adl
3.978966,-0.4096,-0.3502,-8.3681,-0.2077,-0.7627,-0.621,15.36,-8.94,-33.54,,adl
3.999914,-0.4096,-0.3502,-8.3681,-0.4485,-0.7643,-0.4453,15.36,-8.94,-33.54,,adl
4.02094,-0.4096,-0.3502,-8.3681,-0.4485,-0.7643,-0.4453,16.32,-8.4,-33.0,,adl
4.022841,-0.4096,-0.3502,-8.3681,-0.8378,0.881,-0.2035,16.32,-8.4,-33.0,,adl
4.036214,-0.4096,-0.3502,-8.3681,-0.8378,0.881,-0.2035,16.32,-8.4,-33.0,,adl
4.037415,-4.6539,-0.1963,-4.9542,-0.8378,0.881,-0.2035,16.32,-8.4,-33.0,,adl
4.040532,-4.6539,-0.1963,-4.9542,-1.4855,3.2917,-0.0112,16.32,-8.4,-33.0,,adl
4.061647,-4.6539,-0.1963,-4.9542,-1.2847,3.6347,0.1939,16.32,-8.4,-33.0,,adl
4.08225,-4.6539,-0.1963,-4.9542,-1.2847,3.6347,0.1939,16.68,-7.86,-33.18,,adl
4.084117,-4.6539,-0.1963,-4.9542,-0.2035,1.1334,0.4266,16.68,-7.86,-33.18,,adl
4.097668,-4.6539,-0.1963,-4.9542,-0.2035,1.1334,0.4266,16.68,-7.86,-33.18,,adl
4.09876,1.3417,-1.0505,2.8507,-0.2035,1.1334,0.4266,16.68,-7.86,-33.18,,adl
4.101568,1.3417,-1.0505,2.8507,0.7318,-0.5918,0.4394,16.68,-7.86,-33.18,,adl
4.12314,1.3417,-1.0505,2.8507,0.8245,-0.4314,0.2679,16.68,-7.86,-33.18,,adl
4.144631,1.3417,-1.0505,2.8507,0.8245,-0.4314,0.2679,17.82,-6.48,-33.24,,adl
4.146359,1.3417,-1.0505,2.8507,0.0192,0.5241,-0.0181,17.82,-6.48,-33.24,,adl
4.160588,1.3417,-1.0505,2.8507,0.0192,0.5241,-0.0181,17.82,-6.48,-33.24,,adl
4.162064,2.2516,-0.4304,-3.1774,0.0192,0.5241,-0.0181,17.82,-6.48,-33.24,,adl
4.163873,2.2516,-0.4304,-3.1774,-0.58,0.3734,-0.3393,17.82,-6.48,-33.24,,adl
4.184645,2.2516,-0.4304,-3.1774,-0.6519,-0.3558,-0.5225,17.82,-6.48,-33.24,,adl
4.205269,2.2516,-0.4304,-3.1774,-0.5012,-0.824,-0.6812,17.82,-6.48,-33.24,,adl
4.206936,2.2516,-0.4304,-3.1774,-0.5012,-0.824,-0.6812,18.6,-5.94,-33.0,,adl
4.222517,2.2516,-0.4304,-3.1774,-0.5012,-0.824,-0.6812,18.6,-5.94,-33.0,,adl
4.224319,-2.1898,0.0343,-1.4898,-0.5012,-0.824,-0.6812,18.6,-5.94,-33.0,,adl
4.225532,-2.1898,0.0343,-1.4898,-0.5177,-0.6658,-0.6535,18.6,-5.94,-33.0,,adl
4.246789,-2.1898,0.0343,-1.4898,-0.6131,-0.3068,-0.4794,18.6,-5.94,-33.0,,adl
4.267969,-2.1898,0.0343,-1.4898,-0.6131,-0.3068,-0.4794,19.56,-4.98,-33.18,,adl
4.269755,-2.1898,0.0343,-1.4898,-0.5806,-0.4751,-0.2775,19.56,-4.98,-33.18,,adl
4.282986,-2.1898,0.0343,-1.4898,-0.5806,-0.4751,-0.2775,19.56,-4.98,-33.18,,adl
4.284593,-2.2154,1.2205,-1.013,-0.5806,-0.4751,-0.2775,19.56,-4.98,-33.18,,adl
4.287893,-2.2154,1.2205,-1.013,-0.4357,-0.6956,-0.0341,19.56,-4.98,-33.18,,adl
4.307479,-2.2154,1.2205,-1.013,-0.3649,-0.3744,0.0431,19.56,-4.98,-33.18,,adl
4.329575,-2.2154,1.2205,-1.013,-0.3649,-0.3744,0.0431,19.86,-3.9,-32.7,,adl
4.331355,-2.2154,1.2205,-1.013,-0.4378,0.2312,0.0389,19.86,-3.9,-32.7,,adl
4.345625,-2.2154,1.2205,-1.013,-0.4378,0.2312,0.0389,19.86,-3.9,-32.7,,adl
4.347241,0.0909,0.1907,-1.1098,-0.4378,0.2312,0.0389,19.86,-3.9,-32.7,,adl
4.348677,0.0909,0.1907,-1.1098,-0.5241,0.7207,-0.0399,19.86,-3.9,-32.7,,adl
4.369903,0.0909,0.1907,-1.1098,-0.4618,0.636,-0.1481,19.86,-3.9,-32.7,,adl
4.389666,0.0909,0.1907,-1.1098,-0.4618,0.636,-0.1481,19.14,-3.18,-32.82,,adl
4.391431,0.0909,0.1907,-1.1098,-0.1758,0.1017,-0.2264,19.14,-3.18,-32.82,,adl
4.41155,0.0909,0.1907,-1.1098,-0.1758,0.1017,-0.2264,19.14,-3.18,-32.82,,adl
4.412793,-1.6736,-0.2131,1.3017,-0.1758,0.1017,-0.2264,19.14,-3.18,-32.82,,adl
4.413716,-1.6736,-0.2131,1.3017,0.1907,-0.506,-0.2466,19.14,-3.18,-32.82,,adl
4.430428,-1.6736,-0.2131,1.3017,0.3947,-0.6823,-0.1641,19.14,-3.18,-32.82,,adl
4.452297,-1.6736,-0.2131,1.3017,0.3947,-0.6823,-0.1641,18.54,-1.74,-32.76,,adl
4.454164,-1.6736,-0.2131,1.3017,0.3782,-0.3404,-0.0415,18.54,-1.74,-32.76,,adl
4.467687,-1.6736,-0.2131,1.3017,0.3782,-0.3404,-0.0415,18.54,-1.74,-32.76,,adl
4.468646,-0.8009,0.6861,-2.8262,0.3782,-0.3404,-0.0415,18.54,-1.74,-32.76,,adl
4.471453,-0.8009,0.6861,-2.8262,0.2967,0.0479,0.0549,18.54,-1.74,-32.76,,adl
4.492814,-0.8009,0.6861,-2.8262,0.1939,0.2487,0.0629,18.54,-1.74,-32.76,,adl
4.51433,-0.8009,0.6861,-2.8262,0.1939,0.2487,0.0629,18.18,-1.02,-32.64,,adl
4.516338,-0.8009,0.6861,-2.8262,0.0581,0.017,-0.0101,18.18,-1.02,-32.64,,adl
4.528719,-0.8009,0.6861,-2.8262,0.0581,0.017,-0.0101,18.18,-1.02,-32.64,,adl
4.530133,-2.1055,-0.9235,-3.1835,0.0581,0.017,-0.0101,18.18,-1.02,-32.64,,adl
4.532744,-2.1055,-0.9235,-3.1835,-0.1965,-0.5124,-0.0746,18.18,-1.02,-32.64,,adl
4.554289,-2.1055,-0.9235,-3.1835,-0.4623,-0.7835,-0.0224,18.18,-1.02,-32.64,,adl
4.575017,-2.1055,-0.9235,-3.1835,-0.4623,-0.7835,-0.0224,17.94,-0.6,-32.4,,adl
4.577157,-2.1055,-0.9235,-3.1835,-0.6205,-0.7025,0.074,17.94,-0.6,-32.4,,adl
4.591199,-2.1055,-0.9235,-3.1835,-0.6205,-0.7025,0.074,17.94,-0.6,-32.4,,adl
4.592768,-4.0467,-1.3995,-2.0192,-0.6205,-0.7025,0.074,17.94,-0.6,-32.4,,adl
4.595003,-4.0467,-1.3995,-2.0192,-0.6157,-0.5779,0.1364,17.94,-0.6,-32.4,,adl
4.615466,-4.0467,-1.3995,-2.0192,-0.3675,-0.5353,0.2035,17.94,-0.6,-32.4,,adl
4.636549,-4.0467,-1.3995,-2.0192,-0.3675,-0.5353,0.2035,17.58,0.12,-32.22,,adl
4.639048,-4.0467,-1.3995,-2.0192,0.188,-0.7324,0.221,17.58,0.12,-32.22,,adl
4.653045,-4.0467,-1.3995,-2.0192,0.188,-0.7324,0.221,17.58,0.12,-32.22,,adl
4.653991,1.222,-0.1934,2.2106,0.188,-0.7324,0.221,17.58,0.12,-32.22,,adl
4.658825,1.222,-0.1934,2.2106,0.6525,-1.3002,0.2631,17.58,0.12,-32.22,,adl
4.677207,1.222,-0.1934,2.2106,0.9001,-1.6064,0.2802,17.58,0.12,-32.22,,adl
4.697701,1.222,-0.1934,2.2106,0.9001,-1.6064,0.2802,16.8,0.66,-32.04,,adl
4.698614,1.222,-0.1934,2.2106,0.9662,-1.6432,0.3936,16.8,0.66,-32.04,,adl
4.713696,1.222,-0.1934,2.2106,0.9662,-1.6432,0.3936,16.8,0.66,-32.04,,adl
4.715163,-0.8547,0.1675,-1.468,0.9662,-1.6432,0.3936,16.8,0.66,-32.04,,adl
4.71835,-0.8547,0.1675,-1.468,0.9396,-1.8472,0.6024,16.8,0.66,-32.04,,adl
4.739423,-0.8547,0.1675,-1.468,0.8581,-2.204,0.8181,16.8,0.66,-32.04,,adl
4.759649,-0.8547,0.1675,-1.468,0.8581,-2.204,0.8181,15.66,1.14,-32.28,,adl
4.761468,-0.8547,0.1675,-1.468,0.5582,-2.3558,0.9481,15.66,1.14,-32.28,,adl
4.776532,-0.8547,0.1675,-1.468,0.5582,-2.3558,0.9481,15.66,1.14,-32.28,,adl
4.778096,-1.0549,-1.5407,-7.0837,0.5582,-2.3558,0.9481,15.66,1.14,-32.28,,adl
4.779375,-1.0549,-1.5407,-7.0837,0.0442,-1.7353,0.8948,15.66,1.14,-32.28,,adl
4.800641,-1.0549,-1.5407,-7.0837,-0.4133,-1.3779,0.8197,15.66,1.14,-32.28,,adl
4.821367,-1.0549,-1.5407,-7.0837,-0.4133,-1.3779,0.8197,13.44,0.84,-32.4,,adl
4.822787,-1.0549,-1.5407,-7.0837,-0.6519,-1.4967,0.922,13.44,0.84,-32.4,,adl
4.837793,-1.0549,-1.5407,-7.0837,-0.6519,-1.4967,0.922,13.44,0.84,-32.4,,adl
4.838836,-2.0453,0.625,-2.9085,-0.6519,-1.4967,0.922,13.44,0.84,-32.4,,adl
4.843085,-2.0453,0.625,-2.9085,-0.6701,-1.755,1.094,13.44,0.84,-32.4,,adl
4.862309,-2.0453,0.625,-2.9085,-0.7201,-2.024,1.0637,13.44,0.84,-32.4,,adl
4.884046,-2.0453,0.625,-2.9085,-0.7201,-2.024,1.0637,10.38,-0.72,-32.88,,adl
4.886011,-2.0453,0.625,-2.9085,-0.791,-2.3127,0.9481,10.38,-0.72,-32.88,,adl
4.899221,-2.0453,0.625,-2.9085,-0.791,-2.3127,0.9481,10.38,-0.72,-32.88,,adl
4.901052,0.3308,-1.009,-2.38,-0.791,-2.3127,0.9481,10.38,-0.72,-32.88,,adl
4.902305,0.3308,-1.009,-2.38,-0.8277,-2.2509,0.8666,10.38,-0.72,-32.88,,adl
4.924381,0.3308,-1.009,-2.38,-0.8661,-2.1444,0.8107,10.38,-0.72,-32.88,,adl
4.94431,0.3308,-1.009,-2.38,-0.8661,-2.1444,0.8107,6.42,-2.1,-33.9,,adl
4.945884,0.3308,-1.009,-2.38,-0.9278,-2.2094,0.7031,6.42,-2.1,-33.9,,adl
4.960963,0.3308,-1.009,-2.38,-0.9278,-2.2094,0.7031,6.42,-2.1,-33.9,,adl
4.962437,0.7414,0.4353,-1.4069,-0.9278,-2.2094,0.7031,6.42,-2.1,-33.9,,adl
4.963646,0.7414,0.4353,-1.4069,-1.1105,-2.2733,0.6019,6.42,-2.1,-33.9,,adl
4.984745,0.7414,0.4353,-1.4069,-1.2522,-2.0565,0.5795,6.42,-2.1,-33.9,,adl
5.007363,0.7414,0.4353,-1.4069,-1.2522,-2.0565,0.5795,1.92,-2.7,-34.14,,adl
5.00931,0.7414,0.4353,-1.4069,-1.1851,-1.8488,0.5646,1.92,-2.7,-34.14,,adl
5.023288,0.7414,0.4353,-1.4069,-1.1851,-1.8488,0.5646,1.92,-2.7,-34.14,,adl
5.02526,-0.3171,0.4358,0.3906,-1.1851,-1.8488,0.5646,1.92,-2.7,-34.14,,adl
5.026639,-0.3171,0.4358,0.3906,-0.9699,-1.8674,0.5603,1.92,-2.7,-34.14,,adl
5.046809,-0.3171,0.4358,0.3906,-0.7899,-1.9132,0.5779,1.92,-2.7,-34.14,,adl
5.067924,-0.3171,0.4358,0.3906,-0.7899,-1.9132,0.5779,-2.4,-2.28,-34.68,,adl
5.069602,-0.3171,0.4358,0.3906,-0.7595,-1.8759,0.5742,-2.4,-2.28,-34.68,,adl
5.084289,-0.3171,0.4358,0.3906,-0.7595,-1.8759,0.5742,-2.4,-2.28,-34.68,,adl
5.085978,0.5296,0.4897,0.7574,-0.7595,-1.8759,0.5742,-2.4,-2.28,-34.68,,adl
5.087349,0.5296,0.4897,0.7574,-0.8703,-1.844,0.547,-2.4,-2.28,-34.68,,adl
5.10833,0.5296,0.4897,0.7574,-1.0866,-1.8062,0.5284,-2.4,-2.28,-34.68,,adl
5.128393,0.5296,0.4897,0.7574,-1.0866,-1.8062,0.5284,-6.9,-0.78,-34.62,,adl
5.12985,0.5296,0.4897,0.7574,-1.2288,-1.804,0.5017,-6.9,-0.78,-34.62,,adl
5.145613,0.5296,0.4897,0.7574,-1.2288,-1.804,0.5017,-6.9,-0.78,-34.62,,adl
5.147208,-0.287,0.6314,0.0141,-1.2288,-1.804,0.5017,-6.9,-0.78,-34.62,,adl
5.148619,-0.287,0.6314,0.0141,-1.3119,-1.8509,0.432,-6.9,-0.78,-34.62,,adl
5.170582,-0.287,0.6314,0.0141,-1.4056,-1.9052,0.3771,-6.9,-0.78,-34.62,,adl
5.190761,-0.287,0.6314,0.0141,-1.4056,-1.9052,0.3771,-11.22,1.14,-33.48,,adl
5.192505,-0.287,0.6314,0.0141,-1.4908,-2.0677,0.343,-11.22,1.14,-33.48,,adl
5.207278,-0.287,0.6314,0.0141,-1.4908,-2.0677,0.343,-11.22,1.14,-33.48,,adl
5.208864,-0.0976,0.754,-0.2046,-1.4908,-2.0677,0.343,-11.22,1.14,-33.48,,adl
5.210255,-0.0976,0.754,-0.2046,-1.5729,-2.1039,0.3425,-11.22,1.14,-33.48,,adl
5.231316,-0.0976,0.754,-0.2046,-1.6767,-2.0916,0.3132,-11.22,1.14,-33.48,,adl
5.253706,-0.0976,0.754,-0.2046,-1.6767,-2.0916,0.3132,-15.6,3.72,-31.44,,adl
5.255917,-0.0976,0.754,-0.2046,-1.7135,-2.2317,0.2871,-15.6,3.72,-31.44,,adl
5.26881,-0.0976,0.754,-0.2046,-1.7135,-2.2317,0.2871,-15.6,3.72,-31.44,,adl
5.269815,0.3702,-0.5022,0.3642,-1.7135,-2.2317,0.2871,-15.6,3.72,-31.44,,adl
5.274078,0.3702,-0.5022,0.3642,-1.8024,-2.3468,0.2855,-15.6,3.72,-31.44,,adl
5.292759,0.3702,-0.5022,0.3642,-1.828,-2.3154,0.3963,-15.6,3.72,-31.44,,adl
5.314072,0.3702,-0.5022,0.3642,-1.828,-2.3154,0.3963,-19.86,6.3,-28.8,,adl
5.315676,0.3702,-0.5022,0.3642,-1.624,-1.8711,0.7137,-19.86,6.3,-28.8,,adl
5.330224,0.3702,-0.5022,0.3642,-1.624,-1.8711,0.7137,-19.86,6.3,-28.8,,adl
5.331689,0.6654,0.2437,-1.085,-1.624,-1.8711,0.7137,-19.86,6.3,-28.8,,adl
5.332997,0.6654,0.2437,-1.085,-1.4711,-1.4093,0.9502,-19.86,6.3,-28.8,,adl
5.355172,0.6654,0.2437,-1.085,-1.4243,-1.1723,0.718,-19.86,6.3,-28.8,,adl
5.376593,0.6654,0.2437,-1.085,-1.4243,-1.1723,0.718,-23.82,9.54,-25.26,,adl
5.378521,0.6654,0.2437,-1.085,-1.4328,-1.2911,0.0538,-23.82,9.54,-25.26,,adl
5.39259,0.6654,0.2437,-1.085,-1.4328,-1.2911,0.0538,-23.82,9.54,-25.26,,adl
5.394371,3.0703,-7.441,-1.7463,-1.4328,-1.2911,0.0538,-23.82,9.54,-25.26,,adl
5.39594,3.0703,-7.441,-1.7463,-1.4205,-1.8046,-0.7473,-23.82,9.54,-25.26,,adl
5.422308,3.0703,-7.441,-1.7463,-1.3859,-2.0325,-0.685,-23.82,9.54,-25.26,,adl
5.436772,3.0703,-7.441,-1.7463,-1.3859,-2.0325,-0.685,-27.0,12.36,-21.9,,adl
5.437986,3.0703,-7.441,-1.7463,-1.1281,-0.9662,-0.3425,-27.0,12.36,-21.9,,adl
5.452744,3.0703,-7.441,-1.7463,-1.1281,-0.9662,-0.3425,-27.0,12.36,-21.9,,adl
5.454227,3.5689,1.7856,-1.116,-1.1281,-0.9662,-0.3425,-27.0,12.36,-21.9,,adl
5.461605,3.5689,1.7856,-1.116,-0.947,-0.2077,-0.1752,-27.0,12.36,-21.9,,adl
5.476994,3.5689,1.7856,-1.116,-0.9113,-0.2099,-0.2248,-27.0,12.36,-21.9,,adl
5.497425,3.5689,1.7856,-1.116,-0.9113,-0.2099,-0.2248,-29.94,14.4,-17.76,,adl
5.497944,3.5689,1.7856,-1.116,-0.9225,-0.2977,-0.3888,-29.94,14.4,-17.76,,adl
5.513317,3.5689,1.7856,-1.116,-0.9225,-0.2977,-0.3888,-29.94,14.4,-17.76,,adl
5.514411,-1.0567,0.957,-1.8172,-0.9225,-0.2977,-0.3888,-29.94,14.4,-17.76,,adl
5.517472,-1.0567,0.957,-1.8172,-0.9412,-0.327,-0.4634,-29.94,14.4,-17.76,,adl
5.538598,-1.0567,0.957,-1.8172,-0.9721,-0.5763,-0.3941,-29.94,14.4,-17.76,,adl
5.559663,-1.0567,0.957,-1.8172,-0.9721,-0.5763,-0.3941,-31.86,16.44,-14.04,,adl
5.561027,-1.0567,0.957,-1.8172,-1.0274,-0.9955,-0.2546,-31.86,16.44,-14.04,,adl
5.57508,-1.0567,0.957,-1.8172,-1.0274,-0.9955,-0.2546,-31.86,16.44,-14.04,,adl
5.575597,-3.6332,-0.4774,-0.0977,-1.0274,-0.9955,-0.2546,-31.86,16.44,-14.04,,adl
5.578804,-3.6332,-0.4774,-0.0977,-1.0392,-1.2852,-0.1012,-31.86,16.44,-14.04,,adl
5.599816,-3.6332,-0.4774,-0.0977,-0.9747,-1.3918,0.0586,-31.86,16.44,-14.04,,adl
5.621293,-3.6332,-0.4774,-0.0977,-0.9747,-1.3918,0.0586,-33.24,16.86,-11.22,,adl
5.622181,-3.6332,-0.4774,-0.0977,-0.9215,-1.4834,0.1246,-33.24,16.86,-11.22,,adl
5.638369,-3.6332,-0.4774,-0.0977,-0.9215,-1.4834,0.1246,-33.24,16.86,-11.22,,adl
5.639472,-0.8683,1.6458,-0.0236,-0.9215,-1.4834,0.1246,-33.24,16.86,-11.22,,adl
5.642038,-0.8683,1.6458,-0.0236,-0.881,-1.6847,0.1364,-33.24,16.86,-11.22,,adl
5.662483,-0.8683,1.6458,-0.0236,-0.8037,-2.1907,0.1284,-33.24,16.86,-11.22,,adl
5.683958,-0.8683,1.6458,-0.0236,-0.8037,-2.1907,0.1284,-34.26,17.28,-7.14,,adl
5.685557,-0.8683,1.6458,-0.0236,-0.7659,-2.4863,0.0831,-34.26,17.28,-7.14,,adl
5.699253,-0.8683,1.6458,-0.0236,-0.7659,-2.4863,0.0831,-34.26,17.28,-7.14,,adl
5.700825,-0.7989,0.1214,-3.9769,-0.7659,-2.4863,0.0831,-34.26,17.28,-7.14,,adl
5.703064,-0.7989,0.1214,-3.9769,-0.8836,-2.1801,0.1012,-34.26,17.28,-7.14,,adl
5.724421,-0.7989,0.1214,-3.9769,-1.2176,-1.4583,0.1667,-34.26,17.28,-7.14,,adl
5.746008,-0.7989,0.1214,-3.9769,-1.2176,-1.4583,0.1667,-34.62,17.46,-3.18,,adl
5.747455,-0.7989,0.1214,-3.9769,-1.5729,-0.9827,0.1438,-34.62,17.46,-3.18,,adl
5.76031,-0.7989,0.1214,-3.9769,-1.5729,-0.9827,0.1438,-34.62,17.46,-3.18,,adl
5.761657,0.6838,-0.4439,-0.4624,-1.5729,-0.9827,0.1438,-34.62,17.46,-3.18,,adl
5.764423,0.6838,-0.4439,-0.4624,-1.665,-0.9156,0.0565,-34.62,17.46,-3.18,,adl
5.785148,0.6838,-0.4439,-0.4624,-1.3561,-1.3337,-0.0565,-34.62,17.46,-3.18,,adl
5.806395,0.6838,-0.4439,-0.4624,-1.3561,-1.3337,-0.0565,-35.28,17.94,1.44,,adl
5.807821,0.6838,-0.4439,-0.4624,-0.8991,-1.6868,-0.098,-35.28,17.94,1.44,,adl
5.824346,0.6838,-0.4439,-0.4624,-0.8991,-1.6868,-0.098,-35.28,17.94,1.44,,adl
5.825708,0.6589,-0.9769,-0.1771,-0.8991,-1.6868,-0.098,-35.28,17.94,1.44,,adl
5.826827,0.6589,-0.9769,-0.1771,-0.7089,-1.5436,-0.1044,-35.28,17.94,1.44,,adl
5.846828,0.6589,-0.9769,-0.1771,-0.7089,-1.3801,-0.1294,-35.28,17.94,1.44,,adl
5.868889,0.6589,-0.9769,-0.1771,-0.7089,-1.3801,-0.1294,-35.1,18.48,7.08,,adl
5.870657,0.6589,-0.9769,-0.1771,-0.7478,-1.5329,-0.2019,-35.1,18.48,7.08,,adl
5.884965,0.6589,-0.9769,-0.1771,-0.7478,-1.5329,-0.2019,-35.1,18.48,7.08,,adl
5.885984,0.6064,-0.1714,-0.7379,-0.7478,-1.5329,-0.2019,-35.1,18.48,7.08,,adl
5.889784,0.6064,-0.1714,-0.7379,-0.7974,-1.7497,-0.2786,-35.1,18.48,7.08,,adl
5.909506,0.6064,-0.1714,-0.7379,-0.8863,-1.7827,-0.3366,-35.1,18.48,7.08,,adl
5.930486,0.6064,-0.1714,-0.7379,-0.8863,-1.7827,-0.3366,-35.22,18.12,11.88,,adl
5.932207,0.6064,-0.1714,-0.7379,-0.9033,-1.7289,-0.3467,-35.22,18.12,11.88,,adl
5.946366,0.6064,-0.1714,-0.7379,-0.9033,-1.7289,-0.3467,-35.22,18.12,11.88,,adl
5.947915,-0.6152,-0.9421,0.5862,-0.9033,-1.7289,-0.3467,-35.22,18.12,11.88,,adl
5.949018,-0.6152,-0.9421,0.5862,-0.7713,-1.649,-0.3212,-35.22,18.12,11.88,,adl
5.970774,-0.6152,-0.9421,0.5862,-0.563,-1.5441,-0.2892,-35.22,18.12,11.88,,adl
5.990577,-0.6152,-0.9421,0.5862,-0.563,-1.5441,-0.2892,-34.74,17.64,16.14,,adl
5.991903,-0.6152,-0.9421,0.5862,-0.3356,-1.5478,-0.2338,-34.74,17.64,16.14,,adl
6.006111,-0.6152,-0.9421,0.5862,-0.3356,-1.5478,-0.2338,-34.74,17.64,16.14,,adl
6.007163,-1.5942,0.1318,0.0167,-0.3356,-1.5478,-0.2338,-34.74,17.64,16.14,,adl
6.010694,-1.5942,0.1318,0.0167,-0.1859,-1.7428,-0.1491,-34.74,17.64,16.14,,adl
6.030797,-1.5942,0.1318,0.0167,-0.2072,-1.7609,-0.0836,-34.74,17.64,16.14,,adl
6.052392,-1.5942,0.1318,0.0167,-0.2072,-1.7609,-0.0836,-33.18,16.32,20.22,,adl
6.053453,-1.5942,0.1318,0.0167,-0.2866,-1.4637,-0.0352,-33.18,16.32,20.22,,adl
6.067655,-1.5942,0.1318,0.0167,-0.2866,-1.4637,-0.0352,-33.18,16.32,20.22,,adl
6.068191,-0.726,-0.8844,-0.9437,-0.2866,-1.4637,-0.0352,-33.18,16.32,20.22,,adl
6.071773,-0.726,-0.8844,-0.9437,-0.2514,-1.1776,0.0288,-33.18,16.32,20.22,,adl
6.09246,-0.726,-0.8844,-0.9437,-0.138,-1.1425,0.065,-33.18,16.32,20.22,,adl
6.114291,-0.726,-0.8844,-0.9437,-0.138,-1.1425,0.065,-32.04,15.3,24.66,,adl
6.115307,-0.726,-0.8844,-0.9437,-0.1039,-1.3896,-0.0011,-32.04,15.3,24.66,,adl
6.129273,-0.726,-0.8844,-0.9437,-0.1039,-1.3896,-0.0011,-32.04,15.3,24.66,,adl
6.13007,0.6785,-0.4147,-1.4908,-0.1039,-1.3896,-0.0011,-32.04,15.3,24.66,,adl
6.133354,0.6785,-0.4147,-1.4908,-0.1955,-1.4312,-0.1907,-32.04,15.3,24.66,,adl
6.154183,0.6785,-0.4147,-1.4908,-0.2972,-1.1947,-0.3324,-32.04,15.3,24.66,,adl
6.174902,0.6785,-0.4147,-1.4908,-0.2972,-1.1947,-0.3324,-29.7,14.58,28.44,,adl
6.176181,0.6785,-0.4147,-1.4908,-0.1704,-1.2847,-0.3228,-29.7,14.58,28.44,,adl
6.192026,0.6785,-0.4147,-1.4908,-0.1704,-1.2847,-0.3228,-29.7,14.58,28.44,,adl
6.192963,-0.6001,1.2472,2.9838,-0.1704,-1.2847,-0.3228,-29.7,14.58,28.44,,adl
6.194954,-0.6001,1.2472,2.9838,0.1529,-1.6837,-0.2296,-29.7,14.58,28.44,,adl
6.215298,-0.6001,1.2472,2.9838,0.4346,-1.8962,-0.0847,-29.7,14.58,28.44,,adl
6.237672,-0.6001,1.2472,2.9838,0.4346,-1.8962,-0.0847,-26.64,14.04,31.56,,adl
6.238774,-0.6001,1.2472,2.9838,0.4192,-1.844,0.1076,-26.64,14.04,31.56,,adl
6.252281,-0.6001,1.2472,2.9838,0.4192,-1.844,0.1076,-26.64,14.04,31.56,,adl
6.252687,-2.7228,-0.0734,-0.3999,0.4192,-1.844,0.1076,-26.64,14.04,31.56,,adl
6.256675,-2.7228,-0.0734,-0.3999,0.2253,-1.8307,0.3089,-26.64,14.04,31.56,,adl
6.27676,-2.7228,-0.0734,-0.3999,0.0186,-1.9409,0.4874,-26.64,14.04,31.56,,adl
6.298394,-2.7228,-0.0734,-0.3999,0.0186,-1.9409,0.4874,-24.0,13.92,34.14,,adl
6.299413,-2.7228,-0.0734,-0.3999,-0.1172,-2.1236,0.6024,-24.0,13.92,34.14,,adl
6.31411,-2.7228,-0.0734,-0.3999,-0.1172,-2.1236,0.6024,-24.0,13.92,34.14,,adl
6.315,-1.9077,0.2155,-1.7174,-0.1172,-2.1236,0.6024,-24.0,13.92,34.14,,adl
6.318408,-1.9077,0.2155,-1.7174,-0.2663,-2.2221,0.7228,-24.0,13.92,34.14,,adl
6.339077,-1.9077,0.2155,-1.7174,-0.3995,-2.0235,0.8149,-24.0,13.92,34.14,,adl
6.359593,-1.9077,0.2155,-1.7174,-0.3995,-2.0235,0.8149,-20.28,14.4,35.88,,adl
6.360189,-1.9077,0.2155,-1.7174,-0.4687,-1.6256,0.8506,-20.28,14.4,35.88,,adl
6.375819,-1.9077,0.2155,-1.7174,-0.4687,-1.6256,0.8506,-20.28,14.4,35.88,,adl
6.376611,-0.2344,0.0224,-1.9063,-0.4687,-1.6256,0.8506,-20.28,14.4,35.88,,adl
6.379495,-0.2344,0.0224,-1.9063,-0.5183,-1.5846,0.8847,-20.28,14.4,35.88,,adl
6.40019,-0.2344,0.0224,-1.9063,-0.702,-1.8988,0.9577,-20.28,14.4,35.88,,adl
6.421387,-0.2344,0.0224,-1.9063,-0.702,-1.8988,0.9577,-15.9,14.94,37.62,,adl
6.422234,-0.2344,0.0224,-1.9063,-1.0264,-2.2658,0.9955,-15.9,14.94,37.62,,adl
6.437237,-0.2344,0.0224,-1.9063,-1.0264,-2.2658,0.9955,-15.9,14.94,37.62,,adl
6.437819,-0.1999,0.133,-2.5557,-1.0264,-2.2658,0.9955,-15.9,14.94,37.62,,adl
6.441139,-0.1999,0.133,-2.5557,-1.2554,-2.5194,0.9774,-15.9,14.94,37.62,,adl
6.462038,-0.1999,0.133,-2.5557,-1.3284,-2.6568,0.922,-15.9,14.94,37.62,,adl
6.483496,-0.1999,0.133,-2.5557,-1.3284,-2.6568,0.922,-11.4,15.06,38.88,,adl
6.484436,-0.1999,0.133,-2.5557,-1.1782,-2.5257,0.8799,-11.4,15.06,38.88,,adl
6.498931,-0.1999,0.133,-2.5557,-1.1782,-2.5257,0.8799,-11.4,15.06,38.88,,adl
6.499835,-0.0693,-1.1524,-0.1806,-1.1782,-2.5257,0.8799,-11.4,15.06,38.88,,adl
6.503909,-0.0693,-1.1524,-0.1806,-0.9348,-2.3878,0.9028,-11.4,15.06,38.88,,adl
6.523952,-0.0693,-1.1524,-0.1806,-0.7409,-2.3537,0.9103,-11.4,15.06,38.88,,adl
6.545416,-0.0693,-1.1524,-0.1806,-0.7409,-2.3537,0.9103,-5.88,14.22,40.2,,adl
6.546765,-0.0693,-1.1524,-0.1806,-0.6099,-2.2413,0.9316,-5.88,14.22,40.2,,adl
6.561761,-0.0693,-1.1524,-0.1806,-0.6099,-2.2413,0.9316,-5.88,14.22,40.2,,adl
6.563002,3.6379,-1.9382,-0.52,-0.6099,-2.2413,0.9316,-5.88,14.22,40.2,,adl
6.565646,3.6379,-1.9382,-0.52,-0.4362,-1.7721,0.8197,-5.88,14.22,40.2,,adl
6.586002,3.6379,-1.9382,-0.52,-0.3084,-1.2512,0.6461,-5.88,14.22,40.2,,adl
6.607012,3.6379,-1.9382,-0.52,-0.3084,-1.2512,0.6461,-0.36,12.36,41.34,,adl
6.609008,3.6379,-1.9382,-0.52,-0.3041,-1.0429,0.5007,-0.36,12.36,41.34,,adl
6.623043,3.6379,-1.9382,-0.52,-0.3041,-1.0429,0.5007,-0.36,12.36,41.34,,adl
6.624789,1.9443,0.4027,-1.0132,-0.3041,-1.0429,0.5007,-0.36,12.36,41.34,,adl
6.627556,1.9443,0.4027,-1.0132,-0.3467,-1.0647,0.3798,-0.36,12.36,41.34,,adl
6.647884,1.9443,0.4027,-1.0132,-0.3531,-1.0791,0.3116,-0.36,12.36,41.34,,adl
6.669363,1.9443,0.4027,-1.0132,-0.3531,-1.0791,0.3116,4.8,10.44,41.94,,adl
6.671544,1.9443,0.4027,-1.0132,-0.3744,-1.0418,0.2344,4.8,10.44,41.94,,adl
6.684777,1.9443,0.4027,-1.0132,-0.3744,-1.0418,0.2344,4.8,10.44,41.94,,adl
6.686278,1.7507,0.6702,-0.5838,-0.3744,-1.0418,0.2344,4.8,10.44,41.94,,adl
6.690204,1.7507,0.6702,-0.5838,-0.4421,-0.9619,0.1177,4.8,10.44,41.94,,adl
6.709833,1.7507,0.6702,-0.5838,-0.498,-0.8756,-0.0138,4.8,10.44,41.94,,adl
6.730566,1.7507,0.6702,-0.5838,-0.498,-0.8756,-0.0138,9.48,8.64,42.3,,adl
6.732531,1.7507,0.6702,-0.5838,-0.5177,-0.7462,-0.1156,9.48,8.64,42.3,,adl
6.746428,1.7507,0.6702,-0.5838,-0.5177,-0.7462,-0.1156,9.48,8.64,42.3,,adl
6.748019,1.7027,0.1784,-0.4857,-0.5177,-0.7462,-0.1156,9.48,8.64,42.3,,adl
6.749239,1.7027,0.1784,-0.4857,-0.5454,-0.5651,-0.1683,9.48,8.64,42.3,,adl
6.771928,1.7027,0.1784,-0.4857,-0.5854,-0.3111,-0.1641,9.48,8.64,42.3,,adl
6.791588,1.7027,0.1784,-0.4857,-0.5854,-0.3111,-0.1641,12.96,7.2,41.7,,adl
6.793444,1.7027,0.1784,-0.4857,-0.6173,-0.0543,-0.1326,12.96,7.2,41.7,,adl
6.808663,1.7027,0.1784,-0.4857,-0.6173,-0.0543,-0.1326,12.96,7.2,41.7,,adl
6.810224,-0.6993,-0.5154,1.4194,-0.6173,-0.0543,-0.1326,12.96,7.2,41.7,,adl
6.811272,-0.6993,-0.5154,1.4194,-0.5662,0.1113,-0.0943,12.96,7.2,41.7,,adl
6.833919,-0.6993,-0.5154,1.4194,-0.4378,0.171,-0.0543,12.96,7.2,41.7,,adl
6.854613,-0.6993,-0.5154,1.4194,-0.4378,0.171,-0.0543,15.78,5.94,41.04,,adl
6.85678,-0.6993,-0.5154,1.4194,-0.3851,0.0399,-0.0133,15.78,5.94,41.04,,adl
6.869382,-0.6993,-0.5154,1.4194,-0.3851,0.0399,-0.0133,15.78,5.94,41.04,,adl
6.870357,-0.87,-0.1715,0.6721,-0.3851,0.0399,-0.0133,15.78,5.94,41.04,,adl
6.874317,-0.87,-0.1715,0.6721,-0.3686,-0.1529,0.0256,15.78,5.94,41.04,,adl
6.89441,-0.87,-0.1715,0.6721,-0.3862,-0.1284,-0.0463,15.78,5.94,41.04,,adl
6.91559,-0.87,-0.1715,0.6721,-0.3862,-0.1284,-0.0463,17.4,4.56,40.38,,adl
6.917536,-0.87,-0.1715,0.6721,-0.5214,0.0224,-0.3388,17.4,4.56,40.38,,adl
6.931392,-0.87,-0.1715,0.6721,-0.5214,0.0224,-0.3388,17.4,4.56,40.38,,adl
6.933108,1.1667,-3.7036,-2.8119,-0.5214,0.0224,-0.3388,17.4,4.56,40.38,,adl
6.934424,1.1667,-3.7036,-2.8119,-0.5886,0.2919,-0.376,17.4,4.56,40.38,,adl
6.956035,1.1667,-3.7036,-2.8119,-0.4474,0.8197,-0.2045,17.4,4.56,40.38,,adl
6.976845,1.1667,-3.7036,-2.8119,-0.4474,0.8197,-0.2045,18.18,3.6,39.72,,adl
6.978608,1.1667,-3.7036,-2.8119,-0.2109,1.5633,-0.2392,18.18,3.6,39.72,,adl
6.992708,1.1667,-3.7036,-2.8119,-0.2109,1.5633,-0.2392,18.18,3.6,39.72,,adl
6.994251,3.6093,-1.1645,-0.303,-0.2109,1.5633,-0.2392,18.18,3.6,39.72,,adl
6.996501,3.6093,-1.1645,-0.303,-0.0522,1.5787,-0.2743,18.18,3.6,39.72,,adl
7.018103,3.6093,-1.1645,-0.303,0.1039,1.0312,-0.2019,18.18,3.6,39.72,,adl
7.038755,3.6093,-1.1645,-0.303,0.1039,1.0312,-0.2019,18.6,2.88,40.14,,adl
7.040383,3.6093,-1.1645,-0.303,0.1854,0.8048,-0.2184,18.6,2.88,40.14,,adl
7.054101,3.6093,-1.1645,-0.303,0.1854,0.8048,-0.2184,18.6,2.88,40.14,,adl
7.055047,0.3183,0.1817,-3.0604,0.1854,0.8048,-0.2184,18.6,2.88,40.14,,adl
7.059145,0.3183,0.1817,-3.0604,0.3041,0.4362,-0.2802,18.6,2.88,40.14,,adl
7.078521,0.3183,0.1817,-3.0604,0.3627,-0.0858,-0.3137,18.6,2.88,40.14,,adl
7.100106,0.3183,0.1817,-3.0604,0.3627,-0.0858,-0.3137,17.28,2.22,40.56,,adl
7.100759,0.3183,0.1817,-3.0604,0.1539,-0.3585,-0.3409,17.28,2.22,40.56,,adl
7.115518,0.3183,0.1817,-3.0604,0.1539,-0.3585,-0.3409,17.28,2.22,40.56,,adl
7.117065,-0.2587,-1.3683,-5.0546,0.1539,-0.3585,-0.3409,17.28,2.22,40.56,,adl
7.119942,-0.2587,-1.3683,-5.0546,-0.2344,0.3068,-0.3036,17.28,2.22,40.56,,adl
7.141079,-0.2587,-1.3683,-5.0546,-0.5033,1.3028,-0.2173,17.28,2.22,40.56,,adl
7.163182,-0.2587,-1.3683,-5.0546,-0.5033,1.3028,-0.2173,15.96,2.4,41.52,,adl
7.165287,-0.2587,-1.3683,-5.0546,-0.5412,1.5691,-0.1555,15.96,2.4,41.52,,adl
7.177397,-0.2587,-1.3683,-5.0546,-0.5412,1.5691,-0.1555,15.96,2.4,41.52,,adl
7.178665,-0.4814,0.7821,-0.5872,-0.5412,1.5691,-0.1555,15.96,2.4,41.52,,adl
7.181035,-0.4814,0.7821,-0.5872,-0.3276,0.9667,-0.0314,15.96,2.4,41.52,,adl
7.202031,-0.4814,0.7821,-0.5872,-0.0597,0.2493,0.1598,15.96,2.4,41.52,,adl
7.22395,-0.4814,0.7821,-0.5872,-0.0597,0.2493,0.1598,14.1,1.98,42.3,,adl
7.225326,-0.4814,0.7821,-0.5872,0.0192,0.074,0.196,14.1,1.98,42.3,,adl
7.240519,-0.4814,0.7821,-0.5872,0.0192,0.074,0.196,14.1,1.98,42.3,,adl
7.241996,0.2812,-0.7525,-1.9921,0.0192,0.074,0.196,14.1,1.98,42.3,,adl
7.243133,0.2812,-0.7525,-1.9921,-0.2248,0.3792,0.0826,14.1,1.98,42.3,,adl
7.2642,0.2812,-0.7525,-1.9921,-0.3824,0.6083,-0.0256,14.1,1.98,42.3,,adl
7.284706,0.2812,-0.7525,-1.9921,-0.3824,0.6083,-0.0256,12.36,1.86,42.78,,adl
7.28628,0.2812,-0.7525,-1.9921,-0.2727,0.5939,-0.0751,12.36,1.86,42.78,,adl
7.300977,0.2812,-0.7525,-1.9921,-0.2727,0.5939,-0.0751,12.36,1.86,42.78,,adl
7.30256,0.8017,-0.3427,0.0231,-0.2727,0.5939,-0.0751,12.36,1.86,42.78,,adl
7.303943,0.8017,-0.3427,0.0231,-0.0431,0.3888,-0.0591,12.36,1.86,42.78,,adl
7.325916,0.8017,-0.3427,0.0231,0.0511,0.2706,-0.0341,12.36,1.86,42.78,,adl
7.346673,0.8017,-0.3427,0.0231,0.0511,0.2706,-0.0341,10.86,1.14,43.32,,adl
7.348679,0.8017,-0.3427,0.0231,-0.0474,0.2535,-0.0336,10.86,1.14,43.32,,adl
7.361284,0.8017,-0.3427,0.0231,-0.0474,0.2535,-0.0336,10.86,1.14,43.32,,adl
7.362655,-0.0443,-0.0859,-1.2951,-0.0474,0.2535,-0.0336,10.86,1.14,43.32,,adl
7.36631,-0.0443,-0.0859,-1.2951,-0.1688,0.2631,-0.0586,10.86,1.14,43.32,,adl
7.387422,-0.0443,-0.0859,-1.2951,-0.1694,0.3047,-0.0591,10.86,1.14,43.32,,adl
7.40848,-0.0443,-0.0859,-1.2951,-0.1694,0.3047,-0.0591,9.42,0.3,43.44,,adl
7.41025,-0.0443,-0.0859,-1.2951,-0.1188,0.4842,-0.0554,9.42,0.3,43.44,,adl
7.426837,-0.0443,-0.0859,-1.2951,-0.1188,0.4842,-0.0554,9.42,0.3,43.44,,adl
7.428577,0.1581,0.1353,0.2156,-0.1188,0.4842,-0.0554,9.42,0.3,43.44,,adl
7.429786,0.1581,0.1353,0.2156,-0.0676,0.824,-0.0474,9.42,0.3,43.44,,adl
7.449539,0.1581,0.1353,0.2156,0.0352,1.0796,-0.0282,9.42,0.3,43.44,,adl
7.470142,0.1581,0.1353,0.2156,0.0352,1.0796,-0.0282,8.22,0.06,43.74,,adl
7.472274,0.1581,0.1353,0.2156,0.1987,1.1244,0.0165,8.22,0.06,43.74,,adl
7.484991,0.1581,0.1353,0.2156,0.1987,1.1244,0.0165,8.22,0.06,43.74,,adl
7.485958,0.1761,-0.4792,1.5169,0.1987,1.1244,0.0165,8.22,0.06,43.74,,adl
7.49017,0.1761,-0.4792,1.5169,0.3665,0.8794,-0.0304,8.22,0.06,43.74,,adl
7.510094,0.1761,-0.4792,1.5169,0.457,0.5912,-0.0511,8.22,0.06,43.74,,adl
7.531423,0.1761,-0.4792,1.5169,0.457,0.5912,-0.0511,6.72,-0.36,44.16,,adl
7.533031,0.1761,-0.4792,1.5169,0.4554,0.4469,0.0101,6.72,-0.36,44.16,,adl
7.546673,0.1761,-0.4792,1.5169,0.4554,0.4469,0.0101,6.72,-0.36,44.16,,adl
7.548248,-1.1601,0.3186,-0.3034,0.4554,0.4469,0.0101,6.72,-0.36,44.16,,adl
7.550941,-1.1601,0.3186,-0.3034,0.4677,0.375,0.0985,6.72,-0.36,44.16,,adl
7.571977,-1.1601,0.3186,-0.3034,0.5017,0.4533,0.0831,6.72,-0.36,44.16,,adl
7.593075,-1.1601,0.3186,-0.3034,0.5017,0.4533,0.0831,5.46,-0.06,44.34,,adl
7.594803,-1.1601,0.3186,-0.3034,0.5598,0.9177,0.0176,5.46,-0.06,44.34,,adl
7.608562,-1.1601,0.3186,-0.3034,0.5598,0.9177,0.0176,5.46,-0.06,44.34,,adl
7.610105,-0.8087,0.215,0.2341,0.5598,0.9177,0.0176,5.46,-0.06,44.34,,adl
7.612204,-0.8087,0.215,0.2341,0.6791,1.2144,-0.0037,5.46,-0.06,44.34,,adl
7.633548,-0.8087,0.215,0.2341,0.8288,1.15,0.0842,5.46,-0.06,44.34,,adl
7.65503,-0.8087,0.215,0.2341,0.8288,1.15,0.0842,3.72,0.6,44.34,,adl
7.656819,-0.8087,0.215,0.2341,0.8677,0.8389,0.2722,3.72,0.6,44.34,,adl
7.670753,-0.8087,0.215,0.2341,0.8677,0.8389,0.2722,3.72,0.6,44.34,,adl
7.671858,-1.9664,-1.7704,-0.0013,0.8677,0.8389,0.2722,3.72,0.6,44.34,,adl
7.673157,-1.9664,-1.7704,-0.0013,0.751,0.6088,0.3233,3.72,0.6,44.34,,adl
7.694559,-1.9664,-1.7704,-0.0013,0.6503,0.3036,0.3665,3.72,0.6,44.34,,adl
7.715838,-1.9664,-1.7704,-0.0013,0.6503,0.3036,0.3665,2.04,1.5,44.58,,adl
7.718128,-1.9664,-1.7704,-0.0013,0.8096,-0.3531,0.3851,2.04,1.5,44.58,,adl
7.732372,-1.9664,-1.7704,-0.0013,0.8096,-0.3531,0.3851,2.04,1.5,44.58,,adl
7.733976,-0.0494,-0.8876,5.1113,0.8096,-0.3531,0.3851,2.04,1.5,44.58,,adl
7.735311,-0.0494,-0.8876,5.1113,1.3492,-1.3113,0.3553,2.04,1.5,44.58,,adl
7.756198,-0.0494,-0.8876,5.1113,1.6373,-1.4653,0.4176,2.04,1.5,44.58,,adl
7.777884,-0.0494,-0.8876,5.1113,1.6373,-1.4653,0.4176,0.3,2.82,44.88,,adl
7.779699,-0.0494,-0.8876,5.1113,1.4493,-0.8213,0.5694,0.3,2.82,44.88,,adl
7.793801,-0.0494,-0.8876,5.1113,1.4493,-0.8213,0.5694,0.3,2.82,44.88,,adl
7.795375,2.4096,0.3758,-5.0821,1.4493,-0.8213,0.5694,0.3,2.82,44.88,,adl
7.797046,2.4096,0.3758,-5.0821,1.1143,-0.147,0.5603,0.3,2.82,44.88,,adl
7.817259,2.4096,0.3758,-5.0821,0.5987,0.2242,0.531,0.3,2.82,44.88,,adl
7.839424,2.4096,0.3758,-5.0821,-0.0176,0.3201,0.4847,0.3,2.82,44.88,,adl
7.841366,2.4096,0.3758,-5.0821,-0.0176,0.3201,0.4847,-0.42,5.58,44.7,,adl
7.857691,2.4096,0.3758,-5.0821,-0.0176,0.3201,0.4847,-0.42,5.58,44.7,,adl
7.859192,-1.054,-1.6858,-0.3539,-0.0176,0.3201,0.4847,-0.42,5.58,44.7,,adl
7.860699,-1.054,-1.6858,-0.3539,-0.4139,-0.3489,0.6104,-0.42,5.58,44.7,,adl
7.879802,-1.054,-1.6858,-0.3539,-0.5539,-1.5984,0.5891,-0.42,5.58,44.7,,adl
7.900595,-1.054,-1.6858,-0.3539,-0.5539,-1.5984,0.5891,-0.18,7.8,45.06,,adl
7.902297,-1.054,-1.6858,-0.3539,-0.4394,-2.0181,0.2402,-0.18,7.8,45.06,,adl
7.916949,-1.054,-1.6858,-0.3539,-0.4394,-2.0181,0.2402,-0.18,7.8,45.06,,adl
7.918563,2.2512,-0.3735,-0.3909,-0.4394,-2.0181,0.2402,-0.18,7.8,45.06,,adl
7.920026,2.2512,-0.3735,-0.3909,-0.1087,-1.6927,0.0874,-0.18,7.8,45.06,,adl
7.941455,2.2512,-0.3735,-0.3909,0.1566,-1.2272,0.0937,-0.18,7.8,45.06,,adl
7.962565,2.2512,-0.3735,-0.3909,0.1566,-1.2272,0.0937,1.32,9.54,44.94,,adl
7.964242,2.2512,-0.3735,-0.3909,0.2775,-0.7505,0.1225,1.32,9.54,44.94,,adl
7.978389,2.2512,-0.3735,-0.3909,0.2775,-0.7505,0.1225,1.32,9.54,44.94,,adl
7.980037,2.2249,-1.0801,-0.6372,0.2775,-0.7505,0.1225,1.32,9.54,44.94,,adl
7.981272,2.2249,-1.0801,-0.6372,0.318,-0.3798,0.1875,1.32,9.54,44.94,,adl
8.002429,2.2249,-1.0801,-0.6372,0.3292,-0.3174,0.228,1.32,9.54,44.94,,adl
8.023672,2.2249,-1.0801,-0.6372,0.3292,-0.3174,0.228,3.72,10.74,44.4,,adl
8.025239,2.2249,-1.0801,-0.6372,0.2951,-0.1864,0.2216,3.72,10.74,44.4,,adl
8.040302,2.2249,-1.0801,-0.6372,0.2951,-0.1864,0.2216,3.72,10.74,44.4,,adl
8.041797,1.4523,-0.0838,-0.8837,0.2951,-0.1864,0.2216,3.72,10.74,44.4,,adl
8.043054,1.4523,-0.0838,-0.8837,0.2008,-0.0085,0.22,3.72,10.74,44.4,,adl
8.064867,1.4523,-0.0838,-0.8837,0.1023,-0.1838,0.1859,3.72,10.74,44.4,,adl
8.08567,1.4523,-0.0838,-0.8837,0.1023,-0.1838,0.1859,6.18,10.92,44.58,,adl
8.087516,1.4523,-0.0838,-0.8837,0.0245,-0.4277,0.0634,6.18,10.92,44.58,,adl
8.101143,1.4523,-0.0838,-0.8837,0.0245,-0.4277,0.0634,6.18,10.92,44.58,,adl
8.102293,1.3058,1.5454,-1.0362,0.0245,-0.4277,0.0634,6.18,10.92,44.58,,adl
8.10684,1.3058,1.5454,-1.0362,-0.024,-0.4075,-0.0799,6.18,10.92,44.58,,adl
8.126141,1.3058,1.5454,-1.0362,-0.066,-0.2461,-0.1752,6.18,10.92,44.58,,adl
8.147158,1.3058,1.5454,-1.0362,-0.066,-0.2461,-0.1752,8.46,11.58,44.22,,adl
8.148887,1.3058,1.5454,-1.0362,-0.1507,-0.0921,-0.2061,8.46,11.58,44.22,,adl
8.162658,1.3058,1.5454,-1.0362,-0.1507,-0.0921,-0.2061,8.46,11.58,44.22,,adl
8.164411,0.5483,0.5833,-0.3673,-0.1507,-0.0921,-0.2061,8.46,11.58,44.22,,adl
8.16652,0.5483,0.5833,-0.3673,-0.2706,-0.0485,-0.1811,8.46,11.58,44.22,,adl
8.188254,0.5483,0.5833,-0.3673,-0.3174,-0.1246,-0.1252,8.46,11.58,44.22,,adl
8.208873,0.5483,0.5833,-0.3673,-0.3174,-0.1246,-0.1252,9.84,11.82,43.92,,adl
8.210934,0.5483,0.5833,-0.3673,-0.2913,-0.3164,-0.0474,9.84,11.82,43.92,,adl
8.224292,0.5483,0.5833,-0.3673,-0.2913,-0.3164,-0.0474,9.84,11.82,43.92,,adl
8.22603,-0.8103,0.8627,1.0834,-0.2913,-0.3164,-0.0474,9.84,11.82,43.92,,adl
8.227316,-0.8103,0.8627,1.0834,-0.3334,-0.3856,0.0192,9.84,11.82,43.92,,adl
8.248851,-0.8103,0.8627,1.0834,-0.4724,-0.2898,0.0197,9.84,11.82,43.92,,adl
8.270513,-0.8103,0.8627,1.0834,-0.4724,-0.2898,0.0197,10.5,12.18,43.98,,adl
8.272449,-0.8103,0.8627,1.0834,-0.6786,-0.2386,-0.0453,10.5,12.18,43.98,,adl
8.286375,-0.8103,0.8627,1.0834,-0.6786,-0.2386,-0.0453,10.5,12.18,43.98,,adl
8.287433,-0.51,-0.0145,1.243,-0.6786,-0.2386,-0.0453,10.5,12.18,43.98,,adl
8.292069,-0.51,-0.0145,1.243,-0.7798,-0.2248,-0.0762,10.5,12.18,43.98,,adl
8.309927,-0.51,-0.0145,1.243,-0.792,-0.1838,-0.0756,10.5,12.18,43.98,,adl
8.332146,-0.51,-0.0145,1.243,-0.792,-0.1838,-0.0756,10.8,11.94,43.86,,adl
8.334084,-0.51,-0.0145,1.243,-0.742,-0.2131,-0.0676,10.8,11.94,43.86,,adl
8.347976,-0.51,-0.0145,1.243,-0.742,-0.2131,-0.0676,10.8,11.94,43.86,,adl
8.349589,0.5838,-0.6632,0.3245,-0.742,-0.2131,-0.0676,10.8,11.94,43.86,,adl
8.350913,0.5838,-0.6632,0.3245,-0.6951,-0.3404,-0.0762,10.8,11.94,43.86,,adl
8.372714,0.5838,-0.6632,0.3245,-0.6983,-0.2871,-0.2301,10.8,11.94,43.86,,adl
8.392752,0.5838,-0.6632,0.3245,-0.6983,-0.2871,-0.2301,10.92,10.5,43.56,,adl
8.394421,0.5838,-0.6632,0.3245,-0.7175,0.0373,-0.5806,10.92,10.5,43.56,,adl
8.410611,0.5838,-0.6632,0.3245,-0.7175,0.0373,-0.5806,10.92,10.5,43.56,,adl
8.412413,-0.8218,-5.3661,-0.733,-0.7175,0.0373,-0.5806,10.92,10.5,43.56,,adl
8.413766,-0.8218,-5.3661,-0.733,-0.5087,0.0197,-0.637,10.92,10.5,43.56,,adl
8.434137,-0.8218,-5.3661,-0.733,-0.18,-0.0176,-0.286,10.92,10.5,43.56,,adl
8.455144,-0.8218,-5.3661,-0.733,-0.18,-0.0176,-0.286,11.4,9.72,43.86,,adl
8.457095,-0.8218,-5.3661,-0.733,0.0192,0.3302,-0.1214,11.4,9.72,43.86,,adl
8.470813,-0.8218,-5.3661,-0.733,0.0192,0.3302,-0.1214,11.4,9.72,43.86,,adl
8.471972,2.1024,-0.6907,-3.2862,0.0192,0.3302,-0.1214,11.4,9.72,43.86,,adl
8.476145,2.1024,-0.6907,-3.2862,0.0165,0.7585,-0.1859,11.4,9.72,43.86,,adl
8.495871,2.1024,-0.6907,-3.2862,0.0059,0.8346,-0.1699,11.4,9.72,43.86,,adl
8.516178,2.1024,-0.6907,-3.2862,0.0059,0.8346,-0.1699,11.76,8.64,43.92,,adl
8.517684,2.1024,-0.6907,-3.2862,0.0527,0.7478,-0.228,11.76,8.64,43.92,,adl
8.532243,2.1024,-0.6907,-3.2862,0.0527,0.7478,-0.228,11.76,8.64,43.92,,adl
8.533831,0.137,1.4617,-3.4629,0.0527,0.7478,-0.228,11.76,8.64,43.92,,adl
8.535086,0.137,1.4617,-3.4629,0.1587,0.3361,-0.3137,11.76,8.64,43.92,,adl
8.557136,0.137,1.4617,-3.4629,0.1992,-0.3276,-0.3734,11.76,8.64,43.92,,adl
8.578475,0.137,1.4617,-3.4629,0.1992,-0.3276,-0.3734,11.58,7.8,44.16,,adl
8.5801,0.137,1.4617,-3.4629,0.0474,-0.6445,-0.3441,11.58,7.8,44.16,,adl
8.593324,0.137,1.4617,-3.4629,0.0474,-0.6445,-0.3441,11.58,7.8,44.16,,adl
8.594848,-2.271,-0.9797,-6.4515,0.0474,-0.6445,-0.3441,11.58,7.8,44.16,,adl
8.597303,-2.271,-0.9797,-6.4515,-0.2898,-0.2951,-0.2541,11.58,7.8,44.16,,adl
8.617593,-2.271,-0.9797,-6.4515,-0.7798,0.8527,-0.1678,11.58,7.8,44.16,,adl
8.64,-2.271,-0.9797,-6.4515,-0.7798,0.8527,-0.1678,10.56,7.32,44.46,,adl
8.641717,-2.271,-0.9797,-6.4515,-1.0717,1.5745,-0.0522,10.56,7.32,44.46,,adl
8.656107,-2.271,-0.9797,-6.4515,-1.0717,1.5745,-0.0522,10.56,7.32,44.46,,adl
8.657435,-2.8025,1.2545,-1.2819,-1.0717,1.5745,-0.0522,10.56,7.32,44.46,,adl
8.65857,-2.8025,1.2545,-1.2819,-0.9779,1.3769,0.1763,10.56,7.32,44.46,,adl
8.68074,-2.8025,1.2545,-1.2819,-0.5081,0.4597,0.3649,10.56,7.32,44.46,,adl
8.701587,-2.8025,1.2545,-1.2819,-0.5081,0.4597,0.3649,9.3,6.66,45.24,,adl
8.703588,-2.8025,1.2545,-1.2819,-0.0751,0.0011,0.3771,9.3,6.66,45.24,,adl
8.716602,-2.8025,1.2545,-1.2819,-0.0751,0.0011,0.3771,9.3,6.66,45.24,,adl
8.718004,0.3764,-1.017,-0.8425,-0.0751,0.0011,0.3771,9.3,6.66,45.24,,adl
8.720568,0.3764,-1.017,-0.8425,0.0836,0.4639,0.3521,9.3,6.66,45.24,,adl
8.741945,0.3764,-1.017,-0.8425,0.0202,1.0093,0.2083,9.3,6.66,45.24,,adl
8.763036,0.3764,-1.017,-0.8425,0.0202,1.0093,0.2083,7.68,5.94,45.66,,adl
8.764775,0.3764,-1.017,-0.8425,0.0123,0.8671,-0.0256,7.68,5.94,45.66,,adl
8.778924,0.3764,-1.017,-0.8425,0.0123,0.8671,-0.0256,7.68,5.94,45.66,,adl
8.780602,1.2243,-0.3238,-0.3139,0.0123,0.8671,-0.0256,7.68,5.94,45.66,,adl
8.781571,1.2243,-0.3238,-0.3139,0.098,0.236,-0.1694,7.68,5.94,45.66,,adl
8.803377,1.2243,-0.3238,-0.3139,0.1278,-0.2594,-0.2621,7.68,5.94,45.66,,adl
8.823506,1.2243,-0.3238,-0.3139,0.1278,-0.2594,-0.2621,6.12,5.4,45.84,,adl
8.825065,1.2243,-0.3238,-0.3139,-0.0953,-0.441,-0.3153,6.12,5.4,45.84,,adl
8.840486,1.2243,-0.3238,-0.3139,-0.0953,-0.441,-0.3153,6.12,5.4,45.84,,adl
8.841974,-1.596,0.7544,-3.1669,-0.0953,-0.441,-0.3153,6.12,5.4,45.84,,adl
8.843537,-1.596,0.7544,-3.1669,-0.4218,-0.3404,-0.3361,6.12,5.4,45.84,,adl
8.865198,-1.596,0.7544,-3.1669,-0.5928,-0.1257,-0.3025,6.12,5.4,45.84,,adl
8.885225,-1.596,0.7544,-3.1669,-0.5928,-0.1257,-0.3025,5.46,4.86,46.56,,adl
8.887152,-1.596,0.7544,-3.1669,-0.5422,0.1214,-0.187,5.46,4.86,46.56,,adl
8.902162,-1.596,0.7544,-3.1669,-0.5422,0.1214,-0.187,5.46,4.86,46.56,,adl
8.903185,-1.7047,1.5446,-0.4794,-0.5422,0.1214,-0.187,5.46,4.86,46.56,,adl
8.907643,-1.7047,1.5446,-0.4794,-0.3521,0.4128,-0.016,5.46,4.86,46.56,,adl
8.926336,-1.7047,1.5446,-0.4794,-0.1997,0.5364,0.1023,5.46,4.86,46.56,,adl
8.947643,-1.7047,1.5446,-0.4794,-0.1997,0.5364,0.1023,4.92,4.5,46.2,,adl
8.949177,-1.7047,1.5446,-0.4794,-0.1316,0.4245,0.1262,4.92,4.5,46.2,,adl
8.963137,-1.7047,1.5446,-0.4794,-0.1316,0.4245,0.1262,4.92,4.5,46.2,,adl
8.964804,-0.4379,-0.6474,-0.5167,-0.1316,0.4245,0.1262,4.92,4.5,46.2,,adl
8.966393,-0.4379,-0.6474,-0.5167,-0.1017,0.2621,0.0165,4.92,4.5,46.2,,adl
8.988455,-0.4379,-0.6474,-0.5167,-0.0735,0.2919,-0.0842,4.92,4.5,46.2,,adl
9.009428,-0.4379,-0.6474,-0.5167,-0.0735,0.2919,-0.0842,4.44,4.2,46.5,,adl
9.011144,-0.4379,-0.6474,-0.5167,0.0107,0.4149,-0.1491,4.44,4.2,46.5,,adl
9.024375,-0.4379,-0.6474,-0.5167,0.0107,0.4149,-0.1491,4.44,4.2,46.5,,adl
9.025807,0.8779,-0.6429,0.0173,0.0107,0.4149,-0.1491,4.44,4.2,46.5,,adl
9.028424,0.8779,-0.6429,0.0173,0.1662,0.482,-0.1939,4.44,4.2,46.5,,adl
9.049276,0.8779,-0.6429,0.0173,0.3302,0.3979,-0.2147,4.44,4.2,46.5,,adl
9.071224,0.8779,-0.6429,0.0173,0.4506,0.3228,-0.2019,4.44,4.2,46.5,,adl
9.073162,0.8779,-0.6429,0.0173,0.4506,0.3228,-0.2019,4.08,3.12,46.8,,adl
9.086531,0.8779,-0.6429,0.0173,0.4506,0.3228,-0.2019,4.08,3.12,46.8,,adl
9.087616,-1.5556,0.4051,-1.0481,0.4506,0.3228,-0.2019,4.08,3.12,46.8,,adl
9.092249,-1.5556,0.4051,-1.0481,0.5119,0.3249,-0.1891,4.08,3.12,46.8,,adl
9.11169,-1.5556,0.4051,-1.0481,0.5646,0.3324,-0.0527,4.08,3.12,46.8,,adl
9.131084,-1.5556,0.4051,-1.0481,0.6067,0.3963,0.4394,4.08,3.12,46.8,,adl
9.132795,-1.5556,0.4051,-1.0481,0.6067,0.3963,0.4394,3.12,2.94,46.2,,adl
9.148114,-1.5556,0.4051,-1.0481,0.6067,0.3963,0.4394,3.12,2.94,46.2,,adl
9.149784,-6.0594,-1.0012,-1.9551,0.6067,0.3963,0.4394,3.12,2.94,46.2,,adl
9.151006,-6.0594,-1.0012,-1.9551,0.5673,0.3931,0.9699,3.12,2.94,46.2,,adl
9.174114,-6.0594,-1.0012,-1.9551,0.4778,0.1848,0.947,3.12,2.94,46.2,,adl
9.193004,-6.0594,-1.0012,-1.9551,0.4778,0.1848,0.947,2.04,3.12,46.44,,adl
9.194666,-6.0594,-1.0012,-1.9551,0.27,-0.13,0.6232,2.04,3.12,46.44,,adl
9.208869,-6.0594,-1.0012,-1.9551,0.27,-0.13,0.6232,2.04,3.12,46.44,,adl
9.210306,-1.2681,-0.28,2.4037,0.27,-0.13,0.6232,2.04,3.12,46.44,,adl
9.213562,-1.2681,-0.28,2.4037,0.2147,-0.767,0.3537,2.04,3.12,46.44,,adl
9.233784,-1.2681,-0.28,2.4037,0.8527,-1.6943,0.4053,2.04,3.12,46.44,,adl
9.25549,-1.2681,-0.28,2.4037,0.8527,-1.6943,0.4053,1.26,3.72,46.38,,adl
9.257753,-1.2681,-0.28,2.4037,1.4333,-1.9265,0.5193,1.26,3.72,46.38,,adl
9.270985,-1.2681,-0.28,2.4037,1.4333,-1.9265,0.5193,1.26,3.72,46.38,,adl
9.272153,1.0903,-0.3855,-2.7016,1.4333,-1.9265,0.5193,1.26,3.72,46.38,,adl
9.276327,1.0903,-0.3855,-2.7016,1.5084,-1.6144,0.6493,1.26,3.72,46.38,,adl
9.296062,1.0903,-0.3855,-2.7016,1.1526,-1.1942,0.7201,1.26,3.72,46.38,,adl
9.316396,1.0903,-0.3855,-2.7016,1.1526,-1.1942,0.7201,1.68,5.52,46.02,,adl
9.318107,1.0903,-0.3855,-2.7016,0.6189,-0.5156,0.7574,1.68,5.52,46.02,,adl
9.332253,1.0903,-0.3855,-2.7016,0.6189,-0.5156,0.7574,1.68,5.52,46.02,,adl
9.333635,0.3466,-2.3182,-5.766,0.6189,-0.5156,0.7574,1.68,5.52,46.02,,adl
9.335966,0.3466,-2.3182,-5.766,0.098,-0.2621,0.759,1.68,5.52,46.02,,adl
9.356943,0.3466,-2.3182,-5.766,-0.3441,-0.6599,0.8618,1.68,5.52,46.02,,adl
9.378126,0.3466,-2.3182,-5.766,-0.3441,-0.6599,0.8618,3.54,7.62,46.2,,adl
9.37955,0.3466,-2.3182,-5.766,-0.5326,-1.1792,0.9337,3.54,7.62,46.2,,adl
9.394621,0.3466,-2.3182,-5.766,-0.5326,-1.1792,0.9337,3.54,7.62,46.2,,adl
9.396323,-0.4773,0.6729,-1.6044,-0.5326,-1.1792,0.9337,3.54,7.62,46.2,,adl
9.397508,-0.4773,0.6729,-1.6044,-0.4272,-1.3731,0.7393,3.54,7.62,46.2,,adl
9.418985,-0.4773,0.6729,-1.6044,-0.2993,-1.4956,0.5076,3.54,7.62,46.2,,adl
9.439378,-0.4773,0.6729,-1.6044,-0.2993,-1.4956,0.5076,6.36,8.94,45.6,,adl
9.440996,-0.4773,0.6729,-1.6044,-0.3201,-1.3912,0.4282,6.36,8.94,45.6,,adl
9.45727,-0.4773,0.6729,-1.6044,-0.3201,-1.3912,0.4282,6.36,8.94,45.6,,adl
9.458689,2.5588,-0.2278,-1.9347,-0.3201,-1.3912,0.4282,6.36,8.94,45.6,,adl
9.460089,2.5588,-0.2278,-1.9347,-0.4277,-1.0935,0.4016,6.36,8.94,45.6,,adl
9.480499,2.5588,-0.2278,-1.9347,-0.4197,-0.9246,0.2956,6.36,8.94,45.6,,adl
9.499849,2.5588,-0.2278,-1.9347,-0.4197,-0.9246,0.2956,9.9,9.9,44.7,,adl
9.500346,2.5588,-0.2278,-1.9347,-0.3957,-1.0871,0.1816,9.9,9.9,44.7,,adl
9.517951,2.5588,-0.2278,-1.9347,-0.3957,-1.0871,0.1816,9.9,9.9,44.7,,adl
9.519497,0.5522,-0.1813,-1.6099,-0.3957,-1.0871,0.1816,9.9,9.9,44.7,,adl
9.521337,0.5522,-0.1813,-1.6099,-0.5561,-1.2022,0.1172,9.9,9.9,44.7,,adl
9.541795,0.5522,-0.1813,-1.6099,-0.7915,-1.0157,0.1422,9.9,9.9,44.7,,adl
9.563695,0.5522,-0.1813,-1.6099,-0.7915,-1.0157,0.1422,13.62,10.08,43.62,,adl
9.565629,0.5522,-0.1813,-1.6099,-0.9012,-1.0397,0.1912,13.62,10.08,43.62,,adl
9.579282,0.5522,-0.1813,-1.6099,-0.9012,-1.0397,0.1912,13.62,10.08,43.62,,adl
9.580882,0.4745,0.2809,-1.6666,-0.9012,-1.0397,0.1912,13.62,10.08,43.62,,adl
9.582024,0.4745,0.2809,-1.6666,-0.653,-1.0653,0.2147,13.62,10.08,43.62,,adl
9.603383,0.4745,0.2809,-1.6666,-0.4336,-0.9465,0.1864,13.62,10.08,43.62,,adl
9.623835,0.4745,0.2809,-1.6666,-0.4336,-0.9465,0.1864,17.04,9.18,43.08,,adl
9.625554,0.4745,0.2809,-1.6666,-0.3398,-0.6567,0.1225,17.04,9.18,43.08,,adl
9.639902,0.4745,0.2809,-1.6666,-0.3398,-0.6567,0.1225,17.04,9.18,43.08,,adl
9.640641,1.558,-0.0327,-0.5165,-0.3398,-0.6567,0.1225,17.04,9.18,43.08,,adl
9.644258,1.558,-0.0327,-0.5165,-0.2871,-0.3718,0.0836,17.04,9.18,43.08,,adl
9.664667,1.558,-0.0327,-0.5165,-0.2759,-0.2019,0.0868,17.04,9.18,43.08,,adl
9.686915,1.558,-0.0327,-0.5165,-0.2759,-0.2019,0.0868,19.86,8.16,42.24,,adl
9.688919,1.558,-0.0327,-0.5165,-0.2711,-0.2961,0.0746,19.86,8.16,42.24,,adl
9.701655,1.558,-0.0327,-0.5165,-0.2711,-0.2961,0.0746,19.86,8.16,42.24,,adl
9.702604,-0.3944,-0.5174,0.3461,-0.2711,-0.2961,0.0746,19.86,8.16,42.24,,adl
9.707076,-0.3944,-0.5174,0.3461,-0.2551,-0.523,0.1108,19.86,8.16,42.24,,adl
9.727078,-0.3944,-0.5174,0.3461,-0.3276,-0.8474,0.1401,19.86,8.16,42.24,,adl
9.747277,-0.3944,-0.5174,0.3461,-0.3276,-0.8474,0.1401,22.2,7.14,41.52,,adl
9.748865,-0.3944,-0.5174,0.3461,-0.4575,-0.9529,0.147,22.2,7.14,41.52,,adl
9.763471,-0.3944,-0.5174,0.3461,-0.4575,-0.9529,0.147,22.2,7.14,41.52,,adl
9.765387,-1.1411,0.2457,-1.0553,-0.4575,-0.9529,0.147,22.2,7.14,41.52,,adl
9.766536,-1.1411,0.2457,-1.0553,-0.5486,-0.8442,0.1103,22.2,7.14,41.52,,adl
9.788073,-1.1411,0.2457,-1.0553,-0.678,-0.7958,0.0831,22.2,7.14,41.52,,adl
9.808499,-1.1411,0.2457,-1.0553,-0.678,-0.7958,0.0831,23.88,6.24,41.16,,adl
9.810295,-1.1411,0.2457,-1.0553,-0.7207,-0.4964,0.1007,23.88,6.24,41.16,,adl
9.824936,-1.1411,0.2457,-1.0553,-0.7207,-0.4964,0.1007,23.88,6.24,41.16,,adl
9.826432,0.0334,0.8183,-0.4182,-0.7207,-0.4964,0.1007,23.88,6.24,41.16,,adl
9.829004,0.0334,0.8183,-0.4182,-0.5614,-0.0309,0.172,23.88,6.24,41.16,,adl
9.849896,0.0334,0.8183,-0.4182,-0.5246,0.0623,0.1465,23.88,6.24,41.16,,adl
9.871401,0.0334,0.8183,-0.4182,-0.5246,0.0623,0.1465,25.08,5.04,39.84,,adl
9.873673,0.0334,0.8183,-0.4182,-0.6205,0.0016,0.0154,25.08,5.04,39.84,,adl
9.886808,0.0334,0.8183,-0.4182,-0.6205,0.0016,0.0154,25.08,5.04,39.84,,adl
9.887962,1.0755,0.0549,0.547,-0.6205,0.0016,0.0154,25.08,5.04,39.84,,adl
9.891954,1.0755,0.0549,0.547,-0.6599,-0.033,-0.0719,25.08,5.04,39.84,,adl
9.911238,1.0755,0.0549,0.547,-0.6828,0.1108,-0.2045,25.08,5.04,39.84,,adl
9.932472,1.0755,0.0549,0.547,-0.6828,0.1108,-0.2045,26.46,4.56,39.06,,adl
9.934379,1.0755,0.0549,0.547,-0.6663,0.6402,-0.5156,26.46,4.56,39.06,,adl
9.947917,1.0755,0.0549,0.547,-0.6663,0.6402,-0.5156,26.46,4.56,39.06,,adl
9.949471,-0.7195,-5.0386,-0.7323,-0.6663,0.6402,-0.5156,26.46,4.56,39.06,,adl
9.950713,-0.7195,-5.0386,-0.7323,-0.514,0.7968,-0.7185,26.46,4.56,39.06,,adl
9.972964,-0.7195,-5.0386,-0.7323,-0.2413,0.6019,-0.5188,26.46,4.56,39.06,,adl
9.994011,-0.7195,-5.0386,-0.7323,-0.2413,0.6019,-0.5188,27.3,3.72,38.34,,adl
9.995918,-0.7195,-5.0386,-0.7323,0.0208,0.5193,-0.2796,27.3,3.72,38.34,,adl
10.010026,-0.7195,-5.0386,-0.7323,0.0208,0.5193,-0.2796,27.3,3.72,38.34,,adl
10.011561,1.3578,-1.1386,0.7739,0.0208,0.5193,-0.2796,27.3,3.72,38.34,,adl
10.013035,1.3578,-1.1386,0.7739,0.2157,0.4671,-0.2125,27.3,3.72,38.34,,adl
10.034358,1.3578,-1.1386,0.7739,0.302,0.4863,-0.1784,27.3,3.72,38.34,,adl
10.055291,1.3578,-1.1386,0.7739,0.302,0.4863,-0.1784,27.42,2.94,38.34,,adl
10.05704,1.3578,-1.1386,0.7739,0.2945,0.4053,-0.1587,27.42,2.94,38.34,,adl
10.071044,1.3578,-1.1386,0.7739,0.2945,0.4053,-0.1587,27.42,2.94,38.34,,adl
10.072128,0.0606,2.6922,-3.3787,0.2945,0.4053,-0.1587,27.42,2.94,38.34,,adl
10.076573,0.0606,2.6922,-3.3787,0.2839,-0.2423,-0.1625,27.42,2.94,38.34,,adl
10.09543,0.0606,2.6922,-3.3787,0.383,-0.849,-0.212,27.42,2.94,38.34,,adl
10.117086,0.0606,2.6922,-3.3787,0.383,-0.849,-0.212,27.3,2.64,38.94,,adl
10.118943,0.0606,2.6922,-3.3787,0.31,-1.1302,-0.1822,27.3,2.64,38.94,,adl
10.133195,0.0606,2.6922,-3.3787,0.31,-1.1302,-0.1822,27.3,2.64,38.94,,adl
10.134852,-2.7502,-0.6506,-7.1283,0.31,-1.1302,-0.1822,27.3,2.64,38.94,,adl
10.136437,-2.7502,-0.6506,-7.1283,0.0234,-0.7958,-0.1012,27.3,2.64,38.94,,adl
10.157158,-2.7502,-0.6506,-7.1283,-0.4996,0.9417,-0.0091,27.3,2.64,38.94,,adl
10.179019,-2.7502,-0.6506,-7.1283,-0.4996,0.9417,-0.0091,26.58,2.58,38.94,,adl
10.181126,-2.7502,-0.6506,-7.1283,-1.1617,2.9577,0.1981,26.58,2.58,38.94,,adl
10.194433,-2.7502,-0.6506,-7.1283,-1.1617,2.9577,0.1981,26.58,2.58,38.94,,adl
10.196152,-3.0942,1.4363,-0.5013,-1.1617,2.9577,0.1981,26.58,2.58,38.94,,adl
10.197439,-3.0942,1.4363,-0.5013,-1.4253,3.0877,0.4096,26.58,2.58,38.94,,adl
10.218128,-3.0942,1.4363,-0.5013,-0.9396,0.8346,0.4586,26.58,2.58,38.94,,adl
10.240364,-3.0942,1.4363,-0.5013,-0.9396,0.8346,0.4586,26.28,2.52,39.48,,adl
10.242499,-3.0942,1.4363,-0.5013,-0.253,-1.3199,0.1981,26.28,2.52,39.48,,adl
10.256949,-3.0942,1.4363,-0.5013,-0.253,-1.3199,0.1981,26.28,2.52,39.48,,adl
10.258355,0.6856,-0.3412,-0.6865,-0.253,-1.3199,0.1981,26.28,2.52,39.48,,adl
10.259464,0.6856,-0.3412,-0.6865,-0.122,-1.4637,0.1044,26.28,2.52,39.48,,adl
10.280792,0.6856,-0.3412,-0.6865,-0.6147,-0.3489,0.0282,26.28,2.52,39.48,,adl
10.302044,0.6856,-0.3412,-0.6865,-0.6147,-0.3489,0.0282,25.56,2.1,39.66,,adl
10.304015,0.6856,-0.3412,-0.6865,-1.0024,0.073,-0.1097,25.56,2.1,39.66,,adl
10.317816,0.6856,-0.3412,-0.6865,-1.0024,0.073,-0.1097,25.56,2.1,39.66,,adl
10.318812,0.2806,0.5074,-0.3367,-1.0024,0.073,-0.1097,25.56,2.1,39.66,,adl
10.32331,0.2806,0.5074,-0.3367,-0.9502,-0.3217,-0.2296,25.56,2.1,39.66,,adl
10.342581,0.2806,0.5074,-0.3367,-0.6983,-0.8384,-0.2983,25.56,2.1,39.66,,adl
10.363676,0.2806,0.5074,-0.3367,-0.6983,-0.8384,-0.2983,25.26,0.96,40.26,,adl
10.365586,0.2806,0.5074,-0.3367,-0.5598,-0.9108,-0.3121,25.26,0.96,40.26,,adl
10.38006,0.2806,0.5074,-0.3367,-0.5598,-0.9108,-0.3121,25.26,0.96,40.26,,adl
10.381599,-1.1147,-0.084,-1.0843,-0.5598,-0.9108,-0.3121,25.26,0.96,40.26,,adl
10.382881,-1.1147,-0.084,-1.0843,-0.6956,-0.4469,-0.343,25.26,0.96,40.26,,adl
10.402806,-1.1147,-0.084,-1.0843,-0.8416,-0.0117,-0.3798,25.26,0.96,40.26,,adl
10.424261,-1.1147,-0.084,-1.0843,-0.8416,-0.0117,-0.3798,25.44,-0.3,40.56,,adl
10.425927,-1.1147,-0.084,-1.0843,-0.7217,-0.1731,-0.3308,25.44,-0.3,40.56,,adl
10.440797,-1.1147,-0.084,-1.0843,-0.7217,-0.1731,-0.3308,25.44,-0.3,40.56,,adl
10.442272,-2.4434,0.8375,1.9375,-0.7217,-0.1731,-0.3308,25.44,-0.3,40.56,,adl
10.443523,-2.4434,0.8375,1.9375,-0.3984,-0.6093,-0.2876,25.44,-0.3,40.56,,adl
10.464946,-2.4434,0.8375,1.9375,-0.0991,-0.8623,-0.1534,25.44,-0.3,40.56,,adl
10.48624,-2.4434,0.8375,1.9375,-0.0991,-0.8623,-0.1534,25.74,-1.14,40.62,,adl
10.488356,-2.4434,0.8375,1.9375,0.0282,-0.9678,0.0346,25.74,-1.14,40.62,,adl
10.502735,-2.4434,0.8375,1.9375,0.0282,-0.9678,0.0346,25.74,-1.14,40.62,,adl
10.503821,-1.5914,0.2338,-0.7546,0.0282,-0.9678,0.0346,25.74,-1.14,40.62,,adl
10.508216,-1.5914,0.2338,-0.7546,0.0096,-0.7862,0.2221,25.74,-1.14,40.62,,adl
10.526849,-1.5914,0.2338,-0.7546,-0.041,-0.3739,0.3483,25.74,-1.14,40.62,,adl
10.547972,-1.5914,0.2338,-0.7546,-0.041,-0.3739,0.3483,27.3,-1.68,40.08,,adl
10.549764,-1.5914,0.2338,-0.7546,-0.016,-0.0352,0.3553,27.3,-1.68,40.08,,adl
10.562897,-1.5914,0.2338,-0.7546,-0.016,-0.0352,0.3553,27.3,-1.68,40.08,,adl
10.564398,1.0714,-0.2972,-0.2101,-0.016,-0.0352,0.3553,27.3,-1.68,40.08,,adl
10.566237,1.0714,-0.2972,-0.2101,0.0756,-0.0527,0.2503,27.3,-1.68,40.08,,adl
10.586818,1.0714,-0.2972,-0.2101,0.1939,-0.6621,0.2232,27.3,-1.68,40.08,,adl
10.608048,1.0714,-0.2972,-0.2101,0.1939,-0.6621,0.2232,28.62,-2.1,38.58,,adl
10.608802,1.0714,-0.2972,-0.2101,0.2514,-1.4285,0.3004,28.62,-2.1,38.58,,adl
10.623981,1.0714,-0.2972,-0.2101,0.2514,-1.4285,0.3004,28.62,-2.1,38.58,,adl
10.624465,-3.0467,-0.3968,-2.7465,0.2514,-1.4285,0.3004,28.62,-2.1,38.58,,adl
10.627607,-3.0467,-0.3968,-2.7465,0.1204,-2.1699,0.4139,28.62,-2.1,38.58,,adl
10.648873,-3.0467,-0.3968,-2.7465,-0.3505,-1.991,0.391,28.62,-2.1,38.58,,adl
10.670709,-3.0467,-0.3968,-2.7465,-0.3505,-1.991,0.391,30.0,-2.7,37.26,,adl
10.67184,-3.0467,-0.3968,-2.7465,-0.8788,-0.3728,0.1912,30.0,-2.7,37.26,,adl
10.686392,-3.0467,-0.3968,-2.7465,-0.8788,-0.3728,0.1912,30.0,-2.7,37.26,,adl
10.68698,-3.9587,1.0285,-0.5576,-0.8788,-0.3728,0.1912,30.0,-2.7,37.26,,adl
10.692272,-3.9587,1.0285,-0.5576,-0.9667,0.9747,0.1603,30.0,-2.7,37.26,,adl
10.710383,-3.9587,1.0285,-0.5576,0.0149,-0.7553,0.4266,30.0,-2.7,37.26,,adl
10.732658,-3.9587,1.0285,-0.5576,0.0149,-0.7553,0.4266,31.74,-3.3,35.52,,adl
10.734396,-3.9587,1.0285,-0.5576,1.0237,-4.3852,0.4208,31.74,-3.3,35.52,,adl
10.749027,-3.9587,1.0285,-0.5576,1.0237,-4.3852,0.4208,31.74,-3.3,35.52,,adl
10.750325,-1.8446,0.5599,-1.96,1.0237,-4.3852,0.4208,31.74,-3.3,35.52,,adl
10.751415,-1.8446,0.5599,-1.96,0.6898,-4.6419,0.3601,31.74,-3.3,35.52,,adl
10.772462,-1.8446,0.5599,-1.96,-0.1875,-2.9934,0.6061,31.74,-3.3,35.52,,adl
10.794671,-1.8446,0.5599,-1.96,-0.1875,-2.9934,0.6061,33.36,-3.96,33.54,,adl
10.797038,-1.8446,0.5599,-1.96,-0.5854,-2.2024,0.7446,33.36,-3.96,33.54,,adl
10.810211,-1.8446,0.5599,-1.96,-0.5854,-2.2024,0.7446,33.36,-3.96,33.54,,adl
10.811964,-1.7777,1.2551,-5.7856,-0.5854,-2.2024,0.7446,33.36,-3.96,33.54,,adl
10.813287,-1.7777,1.2551,-5.7856,-0.6376,-2.187,0.8554,33.36,-3.96,33.54,,adl
10.834974,-1.7777,1.2551,-5.7856,-0.6503,-2.1012,1.004,33.36,-3.96,33.54,,adl
10.857497,-1.7777,1.2551,-5.7856,-0.6503,-2.1012,1.004,35.94,-4.56,30.18,,adl
10.859241,-1.7777,1.2551,-5.7856,-0.8293,-1.7412,1.1627,35.94,-4.56,30.18,,adl
10.87061,-1.7777,1.2551,-5.7856,-0.8293,-1.7412,1.1627,35.94,-4.56,30.18,,adl
10.871497,-3.1344,0.73,-5.3275,-0.8293,-1.7412,1.1627,35.94,-4.56,30.18,,adl
10.875894,-3.1344,0.73,-5.3275,-1.2565,-1.8269,1.233,35.94,-4.56,30.18,,adl
10.896024,-3.1344,0.73,-5.3275,-1.5473,-1.9867,1.142,35.94,-4.56,30.18,,adl
10.917239,-3.1344,0.73,-5.3275,-1.5473,-1.9867,1.142,38.52,-5.76,26.16,,adl
10.919237,-3.1344,0.73,-5.3275,-1.5681,-2.2445,1.0386,38.52,-5.76,26.16,,adl
10.932788,-3.1344,0.73,-5.3275,-1.5681,-2.2445,1.0386,38.52,-5.76,26.16,,adl
10.934387,-0.2061,-0.1342,-2.7669,-1.5681,-2.2445,1.0386,38.52,-5.76,26.16,,adl
10.935614,-0.2061,-0.1342,-2.7669,-1.5132,-2.1753,1.0573,38.52,-5.76,26.16,,adl
10.957816,-0.2061,-0.1342,-2.7669,-1.55,-2.0272,1.1025,38.52,-5.76,26.16,,adl
10.978528,-0.2061,-0.1342,-2.7669,-1.55,-2.0272,1.1025,40.38,-7.86,20.58,,adl
10.980146,-0.2061,-0.1342,-2.7669,-1.7284,-2.1225,1.0115,40.38,-7.86,20.58,,adl
10.993842,-0.2061,-0.1342,-2.7669,-1.7284,-2.1225,1.0115,40.38,-7.86,20.58,,adl
10.995522,-0.0268,0.0905,-0.3377,-1.7284,-2.1225,1.0115,40.38,-7.86,20.58,,adl
10.997223,-0.0268,0.0905,-0.3377,-2.0948,-2.2541,0.8677,40.38,-7.86,20.58,,adl
11.019157,-0.0268,0.0905,-0.3377,-2.4272,-2.4629,0.7393,40.38,-7.86,20.58,,adl
11.040641,-0.0268,0.0905,-0.3377,-2.4272,-2.4629,0.7393,41.58,-10.5,13.5,,adl
11.042456,-0.0268,0.0905,-0.3377,-2.5359,-2.7665,0.6679,41.58,-10.5,13.5,,adl
11.056512,-0.0268,0.0905,-0.3377,-2.5359,-2.7665,0.6679,41.58,-10.5,13.5,,adl
11.057915,0.6945,-0.8424,-0.4203,-2.5359,-2.7665,0.6679,41.58,-10.5,13.5,,adl
11.059305,0.6945,-0.8424,-0.4203,-2.2371,-2.7873,0.6413,41.58,-10.5,13.5,,adl
11.081063,0.6945,-0.8424,-0.4203,-1.8914,-2.5183,0.6578,41.58,-10.5,13.5,,adl
11.10087,0.6945,-0.8424,-0.4203,-1.8914,-2.5183,0.6578,41.52,-13.44,6.42,,adl
11.102369,0.6945,-0.8424,-0.4203,-1.7753,-2.1406,0.702,41.52,-13.44,6.42,,adl
11.117821,0.6945,-0.8424,-0.4203,-1.7753,-2.1406,0.702,41.52,-13.44,6.42,,adl
11.119375,1.8825,-1.5291,0.3595,-1.7753,-2.1406,0.702,41.52,-13.44,6.42,,adl
11.120692,1.8825,-1.5291,0.3595,-1.8536,-1.7827,0.735,41.52,-13.44,6.42,,adl
11.142457,1.8825,-1.5291,0.3595,-1.9201,-1.6373,0.7105,41.52,-13.44,6.42,,adl
11.164177,1.8825,-1.5291,0.3595,-1.9201,-1.6373,0.7105,40.2,-15.18,-1.38,,adl
11.165955,1.8825,-1.5291,0.3595,-1.9542,-1.6315,0.5689,40.2,-15.18,-1.38,,adl
11.179221,1.8825,-1.5291,0.3595,-1.9542,-1.6315,0.5689,40.2,-15.18,-1.38,,adl
11.180893,2.1056,-0.9926,0.4134,-1.9542,-1.6315,0.5689,40.2,-15.18,-1.38,,adl
11.182186,2.1056,-0.9926,0.4134,-1.9074,-1.7572,0.3462,40.2,-15.18,-1.38,,adl
11.203887,2.1056,-0.9926,0.4134,-1.8813,-1.8136,0.1848,40.2,-15.18,-1.38,,adl
11.225363,2.1056,-0.9926,0.4134,-1.8813,-1.8136,0.1848,37.98,-15.96,-9.12,,adl
11.227202,2.1056,-0.9926,0.4134,-1.9127,-1.5782,0.1332,37.98,-15.96,-9.12,,adl
11.240857,2.1056,-0.9926,0.4134,-1.9127,-1.5782,0.1332,37.98,-15.96,-9.12,,adl
11.242376,3.1635,-0.991,-0.5222,-1.9127,-1.5782,0.1332,37.98,-15.96,-9.12,,adl
11.243845,3.1635,-0.991,-0.5222,-2.0059,-1.2655,0.0687,37.98,-15.96,-9.12,,adl
11.265473,3.1635,-0.991,-0.5222,-1.9665,-1.1313,-0.0368,37.98,-15.96,-9.12,,adl
11.286002,3.1635,-0.991,-0.5222,-1.9665,-1.1313,-0.0368,35.34,-15.54,-16.38,,adl
11.288079,3.1635,-0.991,-0.5222,-1.738,-1.1265,-0.0703,35.34,-15.54,-16.38,,adl
11.301515,3.1635,-0.991,-0.5222,-1.738,-1.1265,-0.0703,35.34,-15.54,-16.38,,adl
11.302627,2.9407,-2.5487,2.4381,-1.738,-1.1265,-0.0703,35.34,-15.54,-16.38,,adl
11.306179,2.9407,-2.5487,2.4381,-1.4663,-0.9715,-0.0751,35.34,-15.54,-16.38,,adl
11.32689,2.9407,-2.5487,2.4381,-1.1537,-0.5981,-0.0261,35.34,-15.54,-16.38,,adl
11.348354,2.9407,-2.5487,2.4381,-1.1537,-0.5981,-0.0261,32.58,-13.68,-22.2,,adl
11.350263,2.9407,-2.5487,2.4381,-0.849,-0.0937,-0.0756,32.58,-13.68,-22.2,,adl
11.364361,2.9407,-2.5487,2.4381,-0.849,-0.0937,-0.0756,32.58,-13.68,-22.2,,adl
11.366088,1.2398,-3.318,1.8892,-0.849,-0.0937,-0.0756,32.58,-13.68,-22.2,,adl
11.367378,1.2398,-3.318,1.8892,-0.6344,-0.0879,-0.2695,32.58,-13.68,-22.2,,adl
11.388533,1.2398,-3.318,1.8892,-0.4916,-0.465,-0.4852,32.58,-13.68,-22.2,,adl
11.4098,1.2398,-3.318,1.8892,-0.4916,-0.465,-0.4852,30.0,-11.46,-26.34,,adl
11.411315,1.2398,-3.318,1.8892,-0.5657,-0.841,-0.5806,30.0,-11.46,-26.34,,adl
11.426455,1.2398,-3.318,1.8892,-0.5657,-0.841,-0.5806,30.0,-11.46,-26.34,,adl
11.428037,1.9739,0.2496,-1.3505,-0.5657,-0.841,-0.5806,30.0,-11.46,-26.34,,adl
11.429296,1.9739,0.2496,-1.3505,-0.9183,-0.8085,-0.5662,30.0,-11.46,-26.34,,adl
11.450014,1.9739,0.2496,-1.3505,-1.2277,-0.5534,-0.4639,30.0,-11.46,-26.34,,adl
11.471582,1.9739,0.2496,-1.3505,-1.2277,-0.5534,-0.4639,28.56,-8.88,-29.64,,adl
11.473663,1.9739,0.2496,-1.3505,-1.2187,-0.9257,-0.2392,28.56,-8.88,-29.64,,adl
11.487828,1.9739,0.2496,-1.3505,-1.2187,-0.9257,-0.2392,28.56,-8.88,-29.64,,adl
11.488894,-1.7471,0.6062,1.7006,-1.2187,-0.9257,-0.2392,28.56,-8.88,-29.64,,adl
11.490239,-1.7471,0.6062,1.7006,-1.0749,-1.5377,-0.1587,28.56,-8.88,-29.64,,adl
11.510778,-1.7471,0.6062,1.7006,-1.0306,-1.6629,-0.0964,28.56,-8.88,-29.64,,adl
11.532709,-1.7471,0.6062,1.7006,-1.0306,-1.6629,-0.0964,26.94,-6.0,-31.86,,adl
11.534497,-1.7471,0.6062,1.7006,-1.0147,-1.347,-0.0149,26.94,-6.0,-31.86,,adl
11.548728,-1.7471,0.6062,1.7006,-1.0147,-1.347,-0.0149,26.94,-6.0,-31.86,,adl
11.550307,1.5609,-1.396,0.1261,-1.0147,-1.347,-0.0149,26.94,-6.0,-31.86,,adl
11.551602,1.5609,-1.396,0.1261,-0.914,-1.0823,-0.073,26.94,-6.0,-31.86,,adl
11.573579,1.5609,-1.396,0.1261,-0.7286,-1.0163,-0.1481,26.94,-6.0,-31.86,,adl
11.59431,1.5609,-1.396,0.1261,-0.7286,-1.0163,-0.1481,25.26,-3.36,-34.26,,adl
11.596246,1.5609,-1.396,0.1261,-0.5715,-0.9284,-0.22,25.26,-3.36,-34.26,,adl
11.609492,1.5609,-1.396,0.1261,-0.5715,-0.9284,-0.22,25.26,-3.36,-34.26,,adl
11.610797,1.6594,-1.164,0.7539,-0.5715,-0.9284,-0.22,25.26,-3.36,-34.26,,adl
11.613344,1.6594,-1.164,0.7539,-0.4975,-0.8165,-0.2786,25.26,-3.36,-34.26,,adl
11.634566,1.6594,-1.164,0.7539,-0.5172,-0.7526,-0.2413,25.26,-3.36,-34.26,,adl
11.655986,1.6594,-1.164,0.7539,-0.6051,-0.8362,-0.1481,25.26,-3.36,-34.26,,adl
11.658093,1.6594,-1.164,0.7539,-0.6051,-0.8362,-0.1481,23.7,-0.84,-36.0,,adl
11.670593,1.6594,-1.164,0.7539,-0.6051,-0.8362,-0.1481,23.7,-0.84,-36.0,,adl
11.671473,-0.5685,0.4687,-0.4852,-0.6051,-0.8362,-0.1481,23.7,-0.84,-36.0,,adl
11.675283,-0.5685,0.4687,-0.4852,-0.751,-1.004,-0.0815,23.7,-0.84,-36.0,,adl
11.696149,-0.5685,0.4687,-0.4852,-0.8639,-0.9667,-0.0847,23.7,-0.84,-36.0,,adl
11.716663,-0.5685,0.4687,-0.4852,-0.8639,-0.9667,-0.0847,21.06,1.62,-37.38,,adl
11.718497,-0.5685,0.4687,-0.4852,-0.9097,-0.9108,-0.147,21.06,1.62,-37.38,,adl
11.733549,-0.5685,0.4687,-0.4852,-0.9097,-0.9108,-0.147,21.06,1.62,-37.38,,adl
11.735114,-0.1217,0.0806,0.5001,-0.9097,-0.9108,-0.147,21.06,1.62,-37.38,,adl
11.736675,-0.1217,0.0806,0.5001,-0.8799,-1.0349,-0.2008,21.06,1.62,-37.38,,adl
11.7582,-0.1217,0.0806,0.5001,-0.8176,-1.2746,-0.1646,21.06,1.62,-37.38,,adl
11.778911,-0.1217,0.0806,0.5001,-0.8176,-1.2746,-0.1646,19.08,4.08,-38.58,,adl
11.780958,-0.1217,0.0806,0.5001,-0.7398,-1.2027,-0.1071,19.08,4.08,-38.58,,adl
11.794686,-0.1217,0.0806,0.5001,-0.7398,-1.2027,-0.1071,19.08,4.08,-38.58,,adl
11.79638,0.4406,-0.7841,0.0955,-0.7398,-1.2027,-0.1071,19.08,4.08,-38.58,,adl
11.797674,0.4406,-0.7841,0.0955,-0.6642,-0.9023,-0.0479,19.08,4.08,-38.58,,adl
11.818681,0.4406,-0.7841,0.0955,-0.6354,-0.6344,-0.0107,19.08,4.08,-38.58,,adl
11.840384,0.4406,-0.7841,0.0955,-0.6354,-0.6344,-0.0107,16.44,5.76,-39.36,,adl
11.841814,0.4406,-0.7841,0.0955,-0.6152,-0.5811,-0.0208,16.44,5.76,-39.36,,adl
11.857632,0.4406,-0.7841,0.0955,-0.6152,-0.5811,-0.0208,16.44,5.76,-39.36,,adl
11.859221,0.9395,-0.6162,1.3217,-0.6152,-0.5811,-0.0208,16.44,5.76,-39.36,,adl
11.860821,0.9395,-0.6162,1.3217,-0.5412,-0.7468,-0.0772,16.44,5.76,-39.36,,adl
11.881283,0.9395,-0.6162,1.3217,-0.4186,-0.8165,-0.1459,16.44,5.76,-39.36,,adl
11.901437,0.9395,-0.6162,1.3217,-0.4186,-0.8165,-0.1459,13.56,7.38,-39.9,,adl
11.903088,0.9395,-0.6162,1.3217,-0.318,-0.6647,-0.2067,13.56,7.38,-39.9,,adl
11.917802,0.9395,-0.6162,1.3217,-0.318,-0.6647,-0.2067,13.56,7.38,-39.9,,adl
11.919151,0.6054,-0.0282,0.1014,-0.318,-0.6647,-0.2067,13.56,7.38,-39.9,,adl
11.922888,0.6054,-0.0282,0.1014,-0.261,-0.4783,-0.2493,13.56,7.38,-39.9,,adl
11.94242,0.6054,-0.0282,0.1014,-0.2248,-0.4123,-0.2834,13.56,7.38,-39.9,,adl
11.964177,0.6054,-0.0282,0.1014,-0.2248,-0.4123,-0.2834,11.22,8.7,-40.02,,adl
11.965937,0.6054,-0.0282,0.1014,-0.221,-0.514,-0.2983,11.22,8.7,-40.02,,adl
11.97986,0.6054,-0.0282,0.1014,-0.221,-0.514,-0.2983,11.22,8.7,-40.02,,adl
11.981531,-0.477,0.0303,-0.0872,-0.221,-0.514,-0.2983,11.22,8.7,-40.02,,adl
11.982823,-0.477,0.0303,-0.0872,-0.27,-0.7057,-0.302,11.22,8.7,-40.02,,adl
12.004432,-0.477,0.0303,-0.0872,-0.3558,-0.8751,-0.2945,11.22,8.7,-40.02,,adl
12.024476,-0.477,0.0303,-0.0872,-0.3558,-0.8751,-0.2945,9.06,9.9,-39.84,,adl
12.025968,-0.477,0.0303,-0.0872,-0.4916,-0.9731,-0.286,9.06,9.9,-39.84,,adl
12.040477,-0.477,0.0303,-0.0872,-0.4916,-0.9731,-0.286,9.06,9.9,-39.84,,adl
12.041887,-1.3434,0.7489,-0.5622,-0.4916,-0.9731,-0.286,9.06,9.9,-39.84,,adl
12.0457,-1.3434,0.7489,-0.5622,-0.5614,-0.9199,-0.2413,9.06,9.9,-39.84,,adl
12.06631,-1.3434,0.7489,-0.5622,-0.4975,-0.7111,-0.1635,9.06,9.9,-39.84,,adl
12.087584,-1.3434,0.7489,-0.5622,-0.4975,-0.7111,-0.1635,7.14,11.1,-39.54,,adl
12.089526,-1.3434,0.7489,-0.5622,-0.3601,-0.5934,-0.1108,7.14,11.1,-39.54,,adl
12.103459,-1.3434,0.7489,-0.5622,-0.3601,-0.5934,-0.1108,7.14,11.1,-39.54,,adl
12.104807,-1.8905,-1.1369,0.2658,-0.3601,-0.5934,-0.1108,7.14,11.1,-39.54,,adl
12.106149,-1.8905,-1.1369,0.2658,-0.2056,-0.4959,-0.0874,7.14,11.1,-39.54,,adl
12.126443,-1.8905,-1.1369,0.2658,-0.1065,-0.3404,-0.0181,7.14,11.1,-39.54,,adl
12.148195,-1.8905,-1.1369,0.2658,-0.1065,-0.3404,-0.0181,5.46,12.06,-39.66,,adl
12.149619,-1.8905,-1.1369,0.2658,-0.0112,-0.2583,0.1209,5.46,12.06,-39.66,,adl
12.165137,-1.8905,-1.1369,0.2658,-0.0112,-0.2583,0.1209,5.46,12.06,-39.66,,adl
12.166741,-1.2413,-1.2247,0.0431,-0.0112,-0.2583,0.1209,5.46,12.06,-39.66,,adl
12.168043,-1.2413,-1.2247,0.0431,0.0442,-0.4554,0.27,5.46,12.06,-39.66,,adl
12.187958,-1.2413,-1.2247,0.0431,0.0495,-0.7254,0.2168,5.46,12.06,-39.66,,adl
12.209003,-1.2413,-1.2247,0.0431,0.0495,-0.7254,0.2168,4.14,12.84,-40.02,,adl
12.210413,-1.2413,-1.2247,0.0431,0.1539,-0.9486,0.0506,4.14,12.84,-40.02,,adl
12.224298,-1.2413,-1.2247,0.0431,0.1539,-0.9486,0.0506,4.14,12.84,-40.02,,adl
12.225635,1.1591,-0.9257,2.3255,0.1539,-0.9486,0.0506,4.14,12.84,-40.02,,adl
12.229061,1.1591,-0.9257,2.3255,0.4661,-1.2559,0.008,4.14,12.84,-40.02,,adl
12.250309,1.1591,-0.9257,2.3255,0.7468,-1.55,0.1806,4.14,12.84,-40.02,,adl
12.272018,1.1591,-0.9257,2.3255,0.7468,-1.55,0.1806,2.22,13.56,-40.32,,adl
12.273616,1.1591,-0.9257,2.3255,0.8836,-1.5697,0.4309,2.22,13.56,-40.32,,adl
12.287429,1.1591,-0.9257,2.3255,0.8836,-1.5697,0.4309,2.22,13.56,-40.32,,adl
12.288654,-0.6945,0.7035,0.5952,0.8836,-1.5697,0.4309,2.22,13.56,-40.32,,adl
12.293045,-0.6945,0.7035,0.5952,0.8884,-1.4109,0.7404,2.22,13.56,-40.32,,adl
12.312071,-0.6945,0.7035,0.5952,0.7915,-1.3007,1.0088,2.22,13.56,-40.32,,adl
12.332237,-0.6945,0.7035,0.5952,0.7915,-1.3007,1.0088,0.42,13.38,-40.62,,adl
12.333893,-0.6945,0.7035,0.5952,0.5651,-1.2709,1.0834,0.42,13.38,-40.62,,adl
12.349177,-0.6945,0.7035,0.5952,0.5651,-1.2709,1.0834,0.42,13.38,-40.62,,adl
12.350804,0.1072,-1.2226,-3.5997,0.5651,-1.2709,1.0834,0.42,13.38,-40.62,,adl
12.352216,0.1072,-1.2226,-3.5997,0.2807,-1.1643,0.9944,0.42,13.38,-40.62,,adl
12.373903,0.1072,-1.2226,-3.5997,-0.1273,-1.184,0.8639,0.42,13.38,-40.62,,adl
12.394875,0.1072,-1.2226,-3.5997,-0.1273,-1.184,0.8639,-2.1,12.3,-40.5,,adl
12.396851,0.1072,-1.2226,-3.5997,-0.5907,-1.3465,0.8751,-2.1,12.3,-40.5,,adl
12.411602,0.1072,-1.2226,-3.5997,-0.5907,-1.3465,0.8751,-2.1,12.3,-40.5,,adl
12.413445,0.8355,-1.5654,-2.318,-0.5907,-1.3465,0.8751,-2.1,12.3,-40.5,,adl
12.416234,0.8355,-1.5654,-2.318,-0.8565,-1.3492,0.9428,-2.1,12.3,-40.5,,adl
12.434357,0.8355,-1.5654,-2.318,-0.7862,-1.4141,0.9646,-2.1,12.3,-40.5,,adl
12.456383,0.8355,-1.5654,-2.318,-0.7862,-1.4141,0.9646,-4.98,11.04,-40.56,,adl
12.458158,0.8355,-1.5654,-2.318,-0.4964,-1.4621,0.9662,-4.98,11.04,-40.56,,adl
12.471856,0.8355,-1.5654,-2.318,-0.4964,-1.4621,0.9662,-4.98,11.04,-40.56,,adl
12.472856,2.772,-1.2736,0.3504,-0.4964,-1.4621,0.9662,-4.98,11.04,-40.56,,adl
12.475452,2.772,-1.2736,0.3504,-0.2834,-1.2847,0.9193,-4.98,11.04,-40.56,,adl
12.495992,2.772,-1.2736,0.3504,-0.2413,-1.0908,0.8714,-4.98,11.04,-40.56,,adl
12.517161,2.772,-1.2736,0.3504,-0.2413,-1.0908,0.8714,-7.98,10.32,-40.32,,adl
12.519166,2.772,-1.2736,0.3504,-0.424,-1.2261,0.6956,-7.98,10.32,-40.32,,adl
12.532117,2.772,-1.2736,0.3504,-0.424,-1.2261,0.6956,-7.98,10.32,-40.32,,adl
12.533369,2.822,-1.8505,-1.6347,-0.424,-1.2261,0.6956,-7.98,10.32,-40.32,,adl
12.536849,2.822,-1.8505,-1.6347,-0.5571,-1.403,0.4533,-7.98,10.32,-40.32,,adl
12.55881,2.822,-1.8505,-1.6347,-0.4794,-1.4168,0.2828,-7.98,10.32,-40.32,,adl
12.580258,2.822,-1.8505,-1.6347,-0.4794,-1.4168,0.2828,-11.34,10.32,-39.42,,adl
12.581661,2.822,-1.8505,-1.6347,-0.326,-1.2213,0.2445,-11.34,10.32,-39.42,,adl
12.59513,2.822,-1.8505,-1.6347,-0.326,-1.2213,0.2445,-11.34,10.32,-39.42,,adl
12.596715,1.5559,-0.4523,-0.6049,-0.326,-1.2213,0.2445,-11.34,10.32,-39.42,,adl
12.597907,1.5559,-0.4523,-0.6049,-0.2855,-0.9587,0.3063,-11.34,10.32,-39.42,,adl
12.619501,1.5559,-0.4523,-0.6049,-0.2285,-0.5955,0.3638,-11.34,10.32,-39.42,,adl
12.640813,1.5559,-0.4523,-0.6049,-0.2285,-0.5955,0.3638,-13.86,11.28,-38.16,,adl
12.642363,1.5559,-0.4523,-0.6049,-0.253,-0.3201,0.319,-13.86,11.28,-38.16,,adl
12.657042,1.5559,-0.4523,-0.6049,-0.253,-0.3201,0.319,-13.86,11.28,-38.16,,adl
12.658458,1.8501,-0.1092,-0.5103,-0.253,-0.3201,0.319,-13.86,11.28,-38.16,,adl
12.660184,1.8501,-0.1092,-0.5103,-0.2945,-0.1529,0.2312,-13.86,11.28,-38.16,,adl
12.680963,1.8501,-0.1092,-0.5103,-0.2605,-0.1087,0.1656,-13.86,11.28,-38.16,,adl
12.702909,1.8501,-0.1092,-0.5103,-0.2605,-0.1087,0.1656,-16.5,12.6,-36.72,,adl
12.704859,1.8501,-0.1092,-0.5103,-0.2269,-0.131,0.1268,-16.5,12.6,-36.72,,adl
12.719102,1.8501,-0.1092,-0.5103,-0.2269,-0.131,0.1268,-16.5,12.6,-36.72,,adl
12.720492,1.7247,-0.1793,-0.6068,-0.2269,-0.131,0.1268,-16.5,12.6,-36.72,,adl
12.721836,1.7247,-0.1793,-0.6068,-0.2578,-0.1779,0.0666,-16.5,12.6,-36.72,,adl
12.742981,1.7247,-0.1793,-0.6068,-0.3382,-0.2546,-0.0032,-16.5,12.6,-36.72,,adl
12.764296,1.7247,-0.1793,-0.6068,-0.3382,-0.2546,-0.0032,-18.24,13.2,-35.52,,adl
12.766059,1.7247,-0.1793,-0.6068,-0.4639,-0.2509,-0.0714,-18.24,13.2,-35.52,,adl
12.780233,1.7247,-0.1793,-0.6068,-0.4639,-0.2509,-0.0714,-18.24,13.2,-35.52,,adl
12.781816,0.5875,0.4659,-0.0566,-0.4639,-0.2509,-0.0714,-18.24,13.2,-35.52,,adl
12.783026,0.5875,0.4659,-0.0566,-0.5806,-0.147,-0.1055,-18.24,13.2,-35.52,,adl
12.803628,0.5875,0.4659,-0.0566,-0.6024,-0.0101,-0.1236,-18.24,13.2,-35.52,,adl
12.825837,0.5875,0.4659,-0.0566,-0.6024,-0.0101,-0.1236,-18.72,14.22,-34.56,,adl
12.827908,0.5875,0.4659,-0.0566,-0.5438,0.1683,-0.0916,-18.72,14.22,-34.56,,adl
12.840998,0.5875,0.4659,-0.0566,-0.5438,0.1683,-0.0916,-18.72,14.22,-34.56,,adl
12.843072,-0.5933,-0.167,0.7389,-0.5438,0.1683,-0.0916,-18.72,14.22,-34.56,,adl
12.844535,-0.5933,-0.167,0.7389,-0.4794,0.3489,-0.0394,-18.72,14.22,-34.56,,adl
12.866374,-0.5933,-0.167,0.7389,-0.4314,0.4794,-0.0218,-18.72,14.22,-34.56,,adl
12.88752,-0.5933,-0.167,0.7389,-0.4314,0.4794,-0.0218,-19.26,15.3,-33.72,,adl
12.889238,-0.5933,-0.167,0.7389,-0.4075,0.498,-0.0442,-19.26,15.3,-33.72,,adl
12.902749,-0.5933,-0.167,0.7389,-0.4075,0.498,-0.0442,-19.26,15.3,-33.72,,adl
12.903982,-0.262,0.4621,1.2689,-0.4075,0.498,-0.0442,-19.26,15.3,-33.72,,adl
12.908349,-0.262,0.4621,1.2689,-0.4432,0.4085,-0.09,-19.26,15.3,-33.72,,adl
12.927702,-0.262,0.4621,1.2689,-0.5246,0.3489,-0.2093,-19.26,15.3,-33.72,,adl
12.948746,-0.262,0.4621,1.2689,-0.5246,0.3489,-0.2093,-18.9,16.02,-33.36,,adl
12.950567,-0.262,0.4621,1.2689,-0.5428,0.5348,-0.5097,-18.9,16.02,-33.36,,adl
12.96472,-0.262,0.4621,1.2689,-0.5428,0.5348,-0.5097,-18.9,16.02,-33.36,,adl
12.966268,-0.9921,-2.8379,0.2859,-0.5428,0.5348,-0.5097,-18.9,16.02,-33.36,,adl
12.967511,-0.9921,-2.8379,0.2859,-0.5065,0.5364,-0.6237,-18.9,16.02,-33.36,,adl
12.988821,-0.9921,-2.8379,0.2859,-0.2929,0.4874,-0.482,-18.9,16.02,-33.36,,adl
13.010145,-0.9921,-2.8379,0.2859,-0.2929,0.4874,-0.482,-18.66,17.22,-33.06,,adl
13.011943,-0.9921,-2.8379,0.2859,-0.0378,0.5651,-0.4405,-18.66,17.22,-33.06,,adl
13.026152,-0.9921,-2.8379,0.2859,-0.0378,0.5651,-0.4405,-18.66,17.22,-33.06,,adl
13.027907,0.0621,-2.1705,0.5008,-0.0378,0.5651,-0.4405,-18.66,17.22,-33.06,,adl
13.029349,0.0621,-2.1705,0.5008,-0.041,0.7553,-0.3867,-18.66,17.22,-33.06,,adl
13.050815,0.0621,-2.1705,0.5008,-0.0565,0.5209,-0.2141,-18.66,17.22,-33.06,,adl
13.071912,0.0621,-2.1705,0.5008,-0.0565,0.5209,-0.2141,-18.42,17.52,-33.42,,adl
13.07383,0.0621,-2.1705,0.5008,0.2178,0.3984,-0.0937,-18.42,17.52,-33.42,,adl
13.087111,0.0621,-2.1705,0.5008,0.2178,0.3984,-0.0937,-18.42,17.52,-33.42,,adl
13.088268,0.6517,1.4888,-0.6055,0.2178,0.3984,-0.0937,-18.42,17.52,-33.42,,adl
13.092355,0.6517,1.4888,-0.6055,0.5838,0.5625,-0.0746,-18.42,17.52,-33.42,,adl
13.112399,0.6517,1.4888,-0.6055,0.8469,0.319,-0.0799,-18.42,17.52,-33.42,,adl
13.133546,0.6517,1.4888,-0.6055,0.8469,0.319,-0.0799,-17.46,17.88,-33.54,,adl
13.135363,0.6517,1.4888,-0.6055,0.7926,-0.1103,-0.13,-17.46,17.88,-33.54,,adl
13.148247,0.6517,1.4888,-0.6055,0.7926,-0.1103,-0.13,-17.46,17.88,-33.54,,adl
13.149655,0.7404,-0.4285,-5.1427,0.7926,-0.1103,-0.13,-17.46,17.88,-33.54,,adl
13.152996,0.7404,-0.4285,-5.1427,0.3467,-0.2871,-0.1854,-17.46,17.88,-33.54,,adl
13.174027,0.7404,-0.4285,-5.1427,-0.3388,0.3036,-0.3095,-17.46,17.88,-33.54,,adl
13.194873,0.7404,-0.4285,-5.1427,-0.3388,0.3036,-0.3095,-16.92,17.4,-34.02,,adl
13.196552,0.7404,-0.4285,-5.1427,-0.9561,1.3172,-0.4783,-16.92,17.4,-34.02,,adl
13.210932,0.7404,-0.4285,-5.1427,-0.9561,1.3172,-0.4783,-16.92,17.4,-34.02,,adl
13.212715,-1.6468,0.0897,-0.8657,-0.9561,1.3172,-0.4783,-16.92,17.4,-34.02,,adl
13.214003,-1.6468,0.0897,-0.8657,-1.0711,1.5532,-0.4692,-16.92,17.4,-34.02,,adl
13.23513,-1.6468,0.0897,-0.8657,-0.7276,0.9396,-0.1614,-16.92,17.4,-34.02,,adl
13.256906,-1.6468,0.0897,-0.8657,-0.7276,0.9396,-0.1614,-16.56,16.98,-34.56,,adl
13.258676,-1.6468,0.0897,-0.8657,-0.2546,0.033,0.2221,-16.56,16.98,-34.56,,adl
13.273409,-1.6468,0.0897,-0.8657,-0.2546,0.033,0.2221,-16.56,16.98,-34.56,,adl
13.274886,-1.563,0.5565,1.056,-0.2546,0.033,0.2221,-16.56,16.98,-34.56,,adl
13.276509,-1.563,0.5565,1.056,0.0762,-0.016,0.3899,-16.56,16.98,-34.56,,adl
13.297045,-1.563,0.5565,1.056,0.081,0.7233,0.376,-16.56,16.98,-34.56,,adl
13.318204,-1.563,0.5565,1.056,0.081,0.7233,0.376,-15.96,16.68,-34.8,,adl
13.320026,-1.563,0.5565,1.056,0.0948,1.1212,0.3057,-15.96,16.68,-34.8,,adl
13.334157,-1.563,0.5565,1.056,0.0948,1.1212,0.3057,-15.96,16.68,-34.8,,adl
13.335078,1.5729,-0.669,1.1793,0.0948,1.1212,0.3057,-15.96,16.68,-34.8,,adl
13.339311,1.5729,-0.669,1.1793,0.302,0.9342,0.1475,-15.96,16.68,-34.8,,adl
13.358475,1.5729,-0.669,1.1793,0.474,0.5625,0.0197,-15.96,16.68,-34.8,,adl
13.379868,1.5729,-0.669,1.1793,0.474,0.5625,0.0197,-15.0,16.74,-35.7,,adl
13.381612,1.5729,-0.669,1.1793,0.4517,0.3318,-0.1427,-15.0,16.74,-35.7,,adl
13.394405,1.5729,-0.669,1.1793,0.4517,0.3318,-0.1427,-15.0,16.74,-35.7,,adl
13.396054,0.7529,-0.0869,-1.3715,0.4517,0.3318,-0.1427,-15.0,16.74,-35.7,,adl
13.398146,0.7529,-0.0869,-1.3715,0.1928,0.2945,-0.3084,-15.0,16.74,-35.7,,adl
13.420089,0.7529,-0.0869,-1.3715,-0.1278,0.2977,-0.3734,-15.0,16.74,-35.7,,adl
13.441509,0.7529,-0.0869,-1.3715,-0.1278,0.2977,-0.3734,-13.92,17.04,-36.18,,adl
13.443124,0.7529,-0.0869,-1.3715,-0.2013,0.4107,-0.302,-13.92,17.04,-36.18,,adl
13.455903,0.7529,-0.0869,-1.3715,-0.2013,0.4107,-0.302,-13.92,17.04,-36.18,,adl
13.457192,-1.6928,0.9553,0.0418,-0.2013,0.4107,-0.302,-13.92,17.04,-36.18,,adl
13.460867,-1.6928,0.9553,0.0418,-0.1273,0.7009,-0.1529,-13.92,17.04,-36.18,,adl
13.481462,-1.6928,0.9553,0.0418,0.0756,1.134,0.1081,-13.92,17.04,-36.18,,adl
13.502527,-1.6928,0.9553,0.0418,0.0756,1.134,0.1081,-12.72,16.68,-36.3,,adl
13.504263,-1.6928,0.9553,0.0418,0.2887,1.2346,0.2621,-12.72,16.68,-36.3,,adl
13.518523,-1.6928,0.9553,0.0418,0.2887,1.2346,0.2621,-12.72,16.68,-36.3,,adl
13.519558,-0.7422,0.2845,1.5431,0.2887,1.2346,0.2621,-12.72,16.68,-36.3,,adl
13.524361,-0.7422,0.2845,1.5431,0.4426,1.0211,0.187,-12.72,16.68,-36.3,,adl
13.543983,-0.7422,0.2845,1.5431,0.4692,0.6296,-0.0623,-12.72,16.68,-36.3,,adl
13.564477,-0.7422,0.2845,1.5431,0.4692,0.6296,-0.0623,-11.52,16.14,-36.96,,adl
13.566051,-0.7422,0.2845,1.5431,0.3675,0.2083,-0.2754,-11.52,16.14,-36.96,,adl
13.580767,-0.7422,0.2845,1.5431,0.3675,0.2083,-0.2754,-11.52,16.14,-36.96,,adl
13.582323,-0.3482,-0.0091,-0.1115,0.3675,0.2083,-0.2754,-11.52,16.14,-36.96,,adl
13.583553,-0.3482,-0.0091,-0.1115,0.2919,0.0495,-0.3089,-11.52,16.14,-36.96,,adl
13.604881,-0.3482,-0.0091,-0.1115,0.2631,0.0293,-0.2706,-11.52,16.14,-36.96,,adl
13.626428,-0.3482,-0.0091,-0.1115,0.2631,0.0293,-0.2706,-10.14,15.18,-37.2,,adl
13.628341,-0.3482,-0.0091,-0.1115,0.2131,0.0629,-0.1742,-10.14,15.18,-37.2,,adl
13.641814,-0.3482,-0.0091,-0.1115,0.2131,0.0629,-0.1742,-10.14,15.18,-37.2,,adl
13.643273,-0.1907,-0.0429,-0.6729,0.2131,0.0629,-0.1742,-10.14,15.18,-37.2,,adl
13.644679,-0.1907,-0.0429,-0.6729,0.1912,0.2498,-0.1092,-10.14,15.18,-37.2,,adl
13.665907,-0.1907,-0.0429,-0.6729,0.2913,0.702,-0.073,-10.14,15.18,-37.2,,adl
13.687289,-0.1907,-0.0429,-0.6729,0.2913,0.702,-0.073,-8.88,14.82,-37.98,,adl
13.689245,-0.1907,-0.0429,-0.6729,0.4959,1.1723,-0.0234,-8.88,14.82,-37.98,,adl
13.703636,-0.1907,-0.0429,-0.6729,0.4959,1.1723,-0.0234,-8.88,14.82,-37.98,,adl
13.704742,0.7217,-1.0496,1.2515,0.4959,1.1723,-0.0234,-8.88,14.82,-37.98,,adl
13.706015,0.7217,-1.0496,1.2515,0.686,1.3827,-0.0224,-8.88,14.82,-37.98,,adl
13.728529,0.7217,-1.0496,1.2515,0.8346,1.2416,-0.0762,-8.88,14.82,-37.98,,adl
13.749163,0.7217,-1.0496,1.2515,0.8346,1.2416,-0.0762,-7.74,13.98,-38.64,,adl
13.751118,0.7217,-1.0496,1.2515,0.9268,0.9486,-0.155,-7.74,13.98,-38.64,,adl
13.764124,0.7217,-1.0496,1.2515,0.9268,0.9486,-0.155,-7.74,13.98,-38.64,,adl
13.765544,-0.3804,0.0122,0.5309,0.9268,0.9486,-0.155,-7.74,13.98,-38.64,,adl
13.768658,-0.3804,0.0122,0.5309,0.9444,0.8549,-0.1635,-7.74,13.98,-38.64,,adl
13.789632,-0.3804,0.0122,0.5309,0.9454,0.9545,-0.0703,-7.74,13.98,-38.64,,adl
13.810743,-0.3804,0.0122,0.5309,0.9454,0.9545,-0.0703,-5.82,13.38,-39.06,,adl
13.812391,-0.3804,0.0122,0.5309,0.9204,0.8746,0.1891,-5.82,13.38,-39.06,,adl
13.826894,-0.3804,0.0122,0.5309,0.9204,0.8746,0.1891,-5.82,13.38,-39.06,,adl
13.828698,-3.7474,-0.601,0.2841,0.9204,0.8746,0.1891,-5.82,13.38,-39.06,,adl
13.829989,-3.7474,-0.601,0.2841,0.9348,0.522,0.5278,-5.82,13.38,-39.06,,adl
13.85194,-3.7474,-0.601,0.2841,0.988,0.4783,0.6168,-5.82,13.38,-39.06,,adl
13.873927,-3.7474,-0.601,0.2841,0.988,0.4783,0.6168,-4.32,11.88,-39.54,,adl
13.876309,-3.7474,-0.601,0.2841,0.9476,0.4863,0.6019,-4.32,11.88,-39.54,,adl
13.887612,-3.7474,-0.601,0.2841,0.9476,0.4863,0.6019,-4.32,11.88,-39.54,,adl
13.888746,0.9046,-1.7614,2.5838,0.9476,0.4863,0.6019,-4.32,11.88,-39.54,,adl
13.892947,0.9046,-1.7614,2.5838,0.9422,0.4842,0.5747,-4.32,11.88,-39.54,,adl
13.912924,0.9046,-1.7614,2.5838,1.281,-0.2226,0.4266,-4.32,11.88,-39.54,,adl
13.934072,0.9046,-1.7614,2.5838,1.281,-0.2226,0.4266,-2.58,9.42,-39.84,,adl
13.936109,0.9046,-1.7614,2.5838,1.6016,-0.7867,0.2834,-2.58,9.42,-39.84,,adl
13.950227,0.9046,-1.7614,2.5838,1.6016,-0.7867,0.2834,-2.58,9.42,-39.84,,adl
13.952038,2.4972,-1.0536,-1.487,1.6016,-0.7867,0.2834,-2.58,9.42,-39.84,,adl
13.95643,2.4972,-1.0536,-1.487,1.7177,-0.3867,0.3265,-2.58,9.42,-39.84,,adl
13.974135,2.4972,-1.0536,-1.487,1.5063,0.3649,0.5417,-2.58,9.42,-39.84,,adl
13.994426,2.4972,-1.0536,-1.487,1.5063,0.3649,0.5417,-0.96,7.32,-40.26,,adl
13.996343,2.4972,-1.0536,-1.487,1.0296,0.49,0.6093,-0.96,7.32,-40.26,,adl
14.010722,2.4972,-1.0536,-1.487,1.0296,0.49,0.6093,-0.96,7.32,-40.26,,adl
14.012568,0.7437,-1.1233,-2.6823,1.0296,0.49,0.6093,-0.96,7.32,-40.26,,adl
14.01383,0.7437,-1.1233,-2.6823,0.5204,0.2162,0.6083,-0.96,7.32,-40.26,,adl
14.034474,0.7437,-1.1233,-2.6823,0.1593,-0.065,0.5177,-0.96,7.32,-40.26,,adl
14.056688,0.7437,-1.1233,-2.6823,0.1593,-0.065,0.5177,-0.12,4.38,-40.68,,adl
14.058434,0.7437,-1.1233,-2.6823,0.0517,-0.2743,0.343,-0.12,4.38,-40.68,,adl
14.071533,0.7437,-1.1233,-2.6823,0.0517,-0.2743,0.343,-0.12,4.38,-40.68,,adl
14.073947,2.6849,-1.5967,0.2544,0.0517,-0.2743,0.343,-0.12,4.38,-40.68,,adl
14.075097,2.6849,-1.5967,0.2544,0.1156,-0.2274,0.1252,-0.12,4.38,-40.68,,adl
14.095947,2.6849,-1.5967,0.2544,0.1827,0.0021,-0.0767,-0.12,4.38,-40.68,,adl
14.117471,2.6849,-1.5967,0.2544,0.1827,0.0021,-0.0767,0.66,1.8,-40.86,,adl
14.118893,2.6849,-1.5967,0.2544,0.2594,0.2961,-0.2732,0.66,1.8,-40.86,,adl
14.133877,2.6849,-1.5967,0.2544,0.2594,0.2961,-0.2732,0.66,1.8,-40.86,,adl
14.135585,4.465,-0.0334,0.2472,0.2594,0.2961,-0.2732,0.66,1.8,-40.86,,adl
14.139143,4.465,-0.0334,0.2472,0.3712,0.7382,-0.384,0.66,1.8,-40.86,,adl
14.158029,4.465,-0.0334,0.2472,0.4101,0.9438,-0.4607,0.66,1.8,-40.86,,adl
14.179217,4.465,-0.0334,0.2472,0.4101,0.9438,-0.4607,0.9,-0.12,-40.86,,adl
14.180815,4.465,-0.0334,0.2472,0.3782,0.8693,-0.6328,0.9,-0.12,-40.86,,adl
14.195416,4.465,-0.0334,0.2472,0.3782,0.8693,-0.6328,0.9,-0.12,-40.86,,adl
14.196938,2.0266,0.5375,-0.7588,0.3782,0.8693,-0.6328,0.9,-0.12,-40.86,,adl
14.19892,2.0266,0.5375,-0.7588,0.2067,0.7441,-0.7499,0.9,-0.12,-40.86,,adl
14.22032,2.0266,0.5375,-0.7588,-0.1049,0.6594,-0.8336,0.9,-0.12,-40.86,,adl
14.241798,2.0266,0.5375,-0.7588,-0.1049,0.6594,-0.8336,1.92,-1.92,-40.5,,adl
14.243552,2.0266,0.5375,-0.7588,-0.457,0.6599,-0.8788,1.92,-1.92,-40.5,,adl
14.257102,2.0266,0.5375,-0.7588,-0.457,0.6599,-0.8788,1.92,-1.92,-40.5,,adl
14.25858,-0.6473,-1.328,-1.4602,-0.457,0.6599,-0.8788,1.92,-1.92,-40.5,,adl
14.260262,-0.6473,-1.328,-1.4602,-0.653,0.7105,-0.9199,1.92,-1.92,-40.5,,adl
14.281997,-0.6473,-1.328,-1.4602,-0.6599,0.7047,-0.7926,1.92,-1.92,-40.5,,adl
14.302729,-0.6473,-1.328,-1.4602,-0.6599,0.7047,-0.7926,2.76,-2.46,-40.08,,adl
14.30475,-0.6473,-1.328,-1.4602,-0.376,0.7164,-0.4186,2.76,-2.46,-40.08,,adl
14.318671,-0.6473,-1.328,-1.4602,-0.376,0.7164,-0.4186,2.76,-2.46,-40.08,,adl
14.3196,-4.6026,1.6067,4.0325,-0.376,0.7164,-0.4186,2.76,-2.46,-40.08,,adl
14.323432,-4.6026,1.6067,4.0325,0.0154,0.718,0.138,2.76,-2.46,-40.08,,adl
14.343527,-4.6026,1.6067,4.0325,0.31,1.0392,0.3766,2.76,-2.46,-40.08,,adl
14.364382,-4.6026,1.6067,4.0325,0.31,1.0392,0.3766,4.02,-2.1,-40.26,,adl
14.366034,-4.6026,1.6067,4.0325,0.5278,1.2011,0.3931,4.02,-2.1,-40.26,,adl
14.380353,-4.6026,1.6067,4.0325,0.5278,1.2011,0.3931,4.02,-2.1,-40.26,,adl
14.382176,1.2544,-0.266,3.3876,0.5278,1.2011,0.3931,4.02,-2.1,-40.26,,adl
14.383529,1.2544,-0.266,3.3876,0.6045,0.7792,0.3723,4.02,-2.1,-40.26,,adl
14.405108,1.2544,-0.266,3.3876,0.5241,0.1076,0.1438,4.02,-2.1,-40.26,,adl
14.426234,1.2544,-0.266,3.3876,0.5241,0.1076,0.1438,6.12,-1.86,-39.96,,adl
14.42768,1.2544,-0.266,3.3876,0.27,-0.4804,-0.2157,6.12,-1.86,-39.96,,adl
14.442436,1.2544,-0.266,3.3876,0.27,-0.4804,-0.2157,6.12,-1.86,-39.96,,adl
14.444189,2.9144,-1.2129,-1.6021,0.27,-0.4804,-0.2157,6.12,-1.86,-39.96,,adl
14.445517,2.9144,-1.2129,-1.6021,-0.1284,-0.6935,-0.5172,6.12,-1.86,-39.96,,adl
14.466643,2.9144,-1.2129,-1.6021,-0.465,-0.5412,-0.5939,6.12,-1.86,-39.96,,adl
14.487804,2.9144,-1.2129,-1.6021,-0.465,-0.5412,-0.5939,7.56,-1.56,-39.96,,adl
14.489702,2.9144,-1.2129,-1.6021,-0.563,-0.0751,-0.5619,7.56,-1.56,-39.96,,adl
14.503488,2.9144,-1.2129,-1.6021,-0.563,-0.0751,-0.5619,7.56,-1.56,-39.96,,adl
14.504614,-2.4025,0.5838,0.8956,-0.563,-0.0751,-0.5619,7.56,-1.56,-39.96,,adl
14.508732,-2.4025,0.5838,0.8956,-0.384,0.3989,-0.3569,7.56,-1.56,-39.96,,adl
14.52839,-2.4025,0.5838,0.8956,0.0937,0.6626,0.066,7.56,-1.56,-39.96,,adl
14.549137,-2.4025,0.5838,0.8956,0.0937,0.6626,0.066,8.34,-1.68,-39.9,,adl
14.550947,-2.4025,0.5838,0.8956,0.5204,0.6594,0.3734,8.34,-1.68,-39.9,,adl
14.565525,-2.4025,0.5838,0.8956,0.5204,0.6594,0.3734,8.34,-1.68,-39.9,,adl
14.567027,-0.7837,0.3295,1.113,0.5204,0.6594,0.3734,8.34,-1.68,-39.9,,adl
14.568535,-0.7837,0.3295,1.113,0.506,0.3824,0.4378,8.34,-1.68,-39.9,,adl
14.589274,-0.7837,0.3295,1.113,0.1502,0.0746,0.3356,8.34,-1.68,-39.9,,adl
14.61013,-0.7837,0.3295,1.113,0.1502,0.0746,0.3356,9.24,-2.1,-40.02,,adl
14.611687,-0.7837,0.3295,1.113,-0.1401,-0.2221,0.1891,9.24,-2.1,-40.02,,adl
14.626672,-0.7837,0.3295,1.113,-0.1401,-0.2221,0.1891,9.24,-2.1,-40.02,,adl
14.628273,1.1029,-0.518,0.2982,-0.1401,-0.2221,0.1891,9.24,-2.1,-40.02,,adl
14.630888,1.1029,-0.518,0.2982,-0.2077,-0.4213,0.0415,9.24,-2.1,-40.02,,adl
14.650594,1.1029,-0.518,0.2982,-0.0916,-0.2711,-0.0245,9.24,-2.1,-40.02,,adl
14.672742,1.1029,-0.518,0.2982,-0.0916,-0.2711,-0.0245,9.36,-2.28,-39.84,,adl
14.674589,1.1029,-0.518,0.2982,-0.0533,0.0581,-0.0458,9.36,-2.28,-39.84,,adl
14.690138,1.1029,-0.518,0.2982,-0.0533,0.0581,-0.0458,9.36,-2.28,-39.84,,adl
14.691684,0.574,-0.1247,0.6044,-0.0533,0.0581,-0.0458,9.36,-2.28,-39.84,,adl
14.693032,0.574,-0.1247,0.6044,-0.0799,0.1987,-0.082,9.36,-2.28,-39.84,,adl
14.711987,0.574,-0.1247,0.6044,-0.0378,0.1257,-0.0943,9.36,-2.28,-39.84,,adl
14.734065,0.574,-0.1247,0.6044,-0.0378,0.1257,-0.0943,9.6,-1.98,-39.78,,adl
14.735822,0.574,-0.1247,0.6044,0.0016,-0.0847,-0.0975,9.6,-1.98,-39.78,,adl
14.749385,0.574,-0.1247,0.6044,0.0016,-0.0847,-0.0975,9.6,-1.98,-39.78,,adl
14.75098,-0.1603,-0.102,0.1247,0.0016,-0.0847,-0.0975,9.6,-1.98,-39.78,,adl
14.753287,-0.1603,-0.102,0.1247,0.0069,-0.1502,-0.0948,9.6,-1.98,-39.78,,adl
14.772667,-0.1603,-0.102,0.1247,-0.024,-0.0921,-0.074,9.6,-1.98,-39.78,,adl
14.793953,-0.1603,-0.102,0.1247,-0.024,-0.0921,-0.074,10.32,-1.5,-40.02,,adl
14.794914,-0.1603,-0.102,0.1247,-0.0746,0.016,-0.0495,10.32,-1.5,-40.02,,adl
14.810048,-0.1603,-0.102,0.1247,-0.0746,0.016,-0.0495,10.32,-1.5,-40.02,,adl
14.810762,-0.0407,0.098,-0.0525,-0.0746,0.016,-0.0495,10.32,-1.5,-40.02,,adl
14.814177,-0.0407,0.098,-0.0525,-0.106,0.0511,-0.041,10.32,-1.5,-40.02,,adl
14.834848,-0.0407,0.098,-0.0525,-0.1103,0.0362,-0.0394,10.32,-1.5,-40.02,,adl
14.857163,-0.0407,0.098,-0.0525,-0.1017,0.0304,-0.0272,10.32,-1.5,-40.02,,adl
14.858666,-0.0407,0.098,-0.0525,-0.1017,0.0304,-0.0272,10.2,-1.56,-39.72,,adl
14.871904,-0.0407,0.098,-0.0525,-0.1017,0.0304,-0.0272,10.2,-1.56,-39.72,,adl
14.875234,0.0141,-0.0976,0.1176,-0.1017,0.0304,-0.0272,10.2,-1.56,-39.72,,adl
14.87651,0.0141,-0.0976,0.1176,-0.0847,0.0272,-0.024,10.2,-1.56,-39.72,,adl
14.898319,0.0141,-0.0976,0.1176,-0.0421,0.033,-0.0261,10.2,-1.56,-39.72,,adl
14.918192,0.0141,-0.0976,0.1176,-0.0421,0.033,-0.0261,10.08,-1.62,-40.02,,adl
14.92001,0.0141,-0.0976,0.1176,0.0027,0.0368,-0.0309,10.08,-1.62,-40.02,,adl
14.934383,0.0141,-0.0976,0.1176,0.0027,0.0368,-0.0309,10.08,-1.62,-40.02,,adl
14.935422,0.155,-0.1065,-0.0349,0.0027,0.0368,-0.0309,10.08,-1.62,-40.02,,adl
14.938203,0.155,-0.1065,-0.0349,0.0256,0.032,-0.0517,10.08,-1.62,-40.02,,adl
14.959379,0.155,-0.1065,-0.0349,0.0107,0.0256,-0.0836,10.08,-1.62,-40.02,,adl
14.978802,0.155,-0.1065,-0.0349,0.0107,0.0256,-0.0836,10.08,-1.62,-40.2,,adl
14.979978,0.155,-0.1065,-0.0349,-0.0266,0.0213,-0.115,10.08,-1.62,-40.2,,adl
14.995168,0.155,-0.1065,-0.0349,-0.0266,0.0213,-0.115,10.08,-1.62,-40.2,,adl
14.996053,-0.1286,0.0952,-0.2433,-0.0266,0.0213,-0.115,10.08,-1.62,-40.2,,adl
14.998698,-0.1286,0.0952,-0.2433,-0.074,0.024,-0.1289,10.08,-1.62,-40.2,,adl
15.01948,-0.1286,0.0952,-0.2433,-0.1023,0.0186,-0.1204,10.08,-1.62,-40.2,,adl
15.040721,-0.1286,0.0952,-0.2433,-0.1023,0.0186,-0.1204,10.14,-1.74,-39.78,,adl
15.041909,-0.1286,0.0952,-0.2433,-0.114,0.0032,-0.0889,10.14,-1.74,-39.78,,adl
15.056764,-0.1286,0.0952,-0.2433,-0.114,0.0032,-0.0889,10.14,-1.74,-39.78,,adl
15.057741,-0.4461,0.1143,0.0284,-0.114,0.0032,-0.0889,10.14,-1.74,-39.78,,adl
15.060539,-0.4461,0.1143,0.0284,-0.1108,0.0053,-0.0522,10.14,-1.74,-39.78,,adl
15.081027,-0.4461,0.1143,0.0284,-0.0863,0.0373,-0.0181,10.14,-1.74,-39.78,,adl
15.102874,-0.4461,0.1143,0.0284,-0.0863,0.0373,-0.0181,10.14,-1.44,-39.72,,adl
15.104321,-0.4461,0.1143,0.0284,-0.0639,0.0511,-0.0011,10.14,-1.44,-39.72,,adl
15.118545,-0.4461,0.1143,0.0284,-0.0639,0.0511,-0.0011,10.14,-1.44,-39.72,,adl
15.119229,0.0739,-0.2095,0.1581,-0.0639,0.0511,-0.0011,10.14,-1.44,-39.72,,adl
15.122493,0.0739,-0.2095,0.1581,-0.049,0.0394,-0.0011,10.14,-1.44,-39.72,,adl
15.143342,0.0739,-0.2095,0.1581,-0.049,0.0261,-0.017,10.14,-1.44,-39.72,,adl
15.164296,0.0739,-0.2095,0.1581,-0.049,0.0261,-0.017,10.14,-1.02,-39.72,,adl
15.165671,0.0739,-0.2095,0.1581,-0.0543,0.0112,-0.0421,10.14,-1.02,-39.72,,adl
15.180748,0.0739,-0.2095,0.1581,-0.0543,0.0112,-0.0421,10.14,-1.02,-39.72,,adl
15.182256,0.0316,-0.0648,0.1314,-0.0543,0.0112,-0.0421,10.14,-1.02,-39.72,,adl
15.183425,0.0316,-0.0648,0.1314,-0.0437,0.0016,-0.0602,10.14,-1.02,-39.72,,adl
15.20489,0.0316,-0.0648,0.1314,-0.0266,-0.0154,-0.0586,10.14,-1.02,-39.72,,adl
15.225844,0.0316,-0.0648,0.1314,-0.0266,-0.0154,-0.0586,10.32,-0.66,-39.84,,adl
15.227439,0.0316,-0.0648,0.1314,-0.024,-0.0208,-0.0506,10.32,-0.66,-39.84,,adl
15.241276,0.0316,-0.0648,0.1314,-0.024,-0.0208,-0.0506,10.32,-0.66,-39.84,,adl
15.242681,-0.0948,-0.0657,-0.1708,-0.024,-0.0208,-0.0506,10.32,-0.66,-39.84,,adl
15.24603,-0.0948,-0.0657,-0.1708,-0.0325,-0.0293,-0.0394,10.32,-0.66,-39.84,,adl
15.266777,-0.0948,-0.0657,-0.1708,-0.0559,-0.0719,-0.0357,10.32,-0.66,-39.84,,adl
15.287976,-0.0948,-0.0657,-0.1708,-0.0559,-0.0719,-0.0357,10.14,-0.72,-39.72,,adl
15.289537,-0.0948,-0.0657,-0.1708,-0.0549,-0.0399,-0.0474,10.14,-0.72,-39.72,,adl
15.303616,-0.0948,-0.0657,-0.1708,-0.0549,-0.0399,-0.0474,10.14,-0.72,-39.72,,adl
15.304698,0.0209,-0.1624,-0.3098,-0.0549,-0.0399,-0.0474,10.14,-0.72,-39.72,,adl
15.308615,0.0209,-0.1624,-0.3098,-0.0719,0.0415,-0.0559,10.14,-0.72,-39.72,,adl
15.3286,0.0209,-0.1624,-0.3098,-0.0405,0.2008,-0.0458,10.14,-0.72,-39.72,,adl
15.350028,0.0209,-0.1624,-0.3098,-0.0405,0.2008,-0.0458,9.78,-0.66,-39.54,,adl
15.351599,0.0209,-0.1624,-0.3098,-0.1012,0.1598,-0.0687,9.78,-0.66,-39.54,,adl
15.365269,0.0209,-0.1624,-0.3098,-0.1012,0.1598,-0.0687,9.78,-0.66,-39.54,,adl
15.36677,-0.2561,0.0567,0.1553,-0.1012,0.1598,-0.0687,9.78,-0.66,-39.54,,adl
15.368223,-0.2561,0.0567,0.1553,0.0091,0.1566,0.049,9.78,-0.66,-39.54,,adl
15.39079,-0.2561,0.0567,0.1553,0.0655,-0.0479,-0.0133,9.78,-0.66,-39.54,,adl
15.410545,-0.2561,0.0567,0.1553,0.0655,-0.0479,-0.0133,9.78,-0.54,-39.3,,adl
15.412433,-0.2561,0.0567,0.1553,-0.033,-0.0469,-0.0826,9.78,-0.54,-39.3,,adl
15.427269,-0.2561,0.0567,0.1553,-0.033,-0.0469,-0.0826,9.78,-0.54,-39.3,,adl
15.428932,0.5156,-0.2871,-0.1884,-0.033,-0.0469,-0.0826,9.78,-0.54,-39.3,,adl
15.430065,0.5156,-0.2871,-0.1884,-0.0096,0.1172,-0.0964,9.78,-0.54,-39.3,,adl
15.451486,0.5156,-0.2871,-0.1884,-0.0293,0.1193,-0.1161,9.78,-0.54,-39.3,,adl
15.472764,0.5156,-0.2871,-0.1884,-0.0293,0.1193,-0.1161,9.9,-0.36,-39.36,,adl
15.474372,0.5156,-0.2871,-0.1884,0.024,0.0597,-0.057,9.9,-0.36,-39.36,,adl
15.489612,0.5156,-0.2871,-0.1884,0.024,0.0597,-0.057,9.9,-0.36,-39.36,,adl
15.491071,-0.0488,-0.0208,0.0165,0.024,0.0597,-0.057,9.9,-0.36,-39.36,,adl
15.492388,-0.0488,-0.0208,0.0165,0.0277,-0.0037,-0.0027,9.9,-0.36,-39.36,,adl
15.51305,-0.0488,-0.0208,0.0165,-0.0533,-0.0192,-0.0037,9.9,-0.36,-39.36,,adl
15.533784,-0.0488,-0.0208,0.0165,-0.0756,-0.0559,-0.0304,9.9,-0.36,-39.36,,adl
15.535416,-0.0488,-0.0208,0.0165,-0.0756,-0.0559,-0.0304,10.26,-0.18,-39.78,,adl
15.549811,-0.0488,-0.0208,0.0165,-0.0756,-0.0559,-0.0304,10.26,-0.18,-39.78,,adl
15.551501,-0.1511,-0.0467,0.0434,-0.0756,-0.0559,-0.0304,10.26,-0.18,-39.78,,adl
15.555086,-0.1511,-0.0467,0.0434,-0.0383,-0.0629,-0.0293,10.26,-0.18,-39.78,,adl
15.573657,-0.1511,-0.0467,0.0434,-0.0144,-0.0655,-0.0197,10.26,-0.18,-39.78,,adl
15.595678,-0.1511,-0.0467,0.0434,-0.0144,-0.0655,-0.0197,10.92,-0.12,-40.02,,adl
15.597264,-0.1511,-0.0467,0.0434,-0.0037,-0.0559,-0.0059,10.92,-0.12,-40.02,,adl
15.611237,-0.1511,-0.0467,0.0434,-0.0037,-0.0559,-0.0059,10.92,-0.12,-40.02,,adl
15.612957,-0.0769,-0.0022,0.0464,-0.0037,-0.0559,-0.0059,10.92,-0.12,-40.02,,adl
15.61512,-0.0769,-0.0022,0.0464,0.0144,-0.0714,-0.0048,10.92,-0.12,-40.02,,adl
15.635177,-0.0769,-0.0022,0.0464,0.0069,-0.0469,-0.0117,10.92,-0.12,-40.02,,adl
15.656855,-0.0769,-0.0022,0.0464,0.0069,-0.0469,-0.0117,11.04,0.12,-39.9,,adl
15.658377,-0.0769,-0.0022,0.0464,0.0021,-0.0266,-0.0069,11.04,0.12,-39.9,,adl
15.673575,-0.0769,-0.0022,0.0464,0.0021,-0.0266,-0.0069,11.04,0.12,-39.9,,adl
15.675076,0.0678,-0.2206,-0.0894,0.0021,-0.0266,-0.0069,11.04,0.12,-39.9,,adl
15.676547,0.0678,-0.2206,-0.0894,0.0154,-0.041,0.0107,11.04,0.12,-39.9,,adl
15.697947,0.0678,-0.2206,-0.0894,0.0218,-0.0208,0.0138,11.04,0.12,-39.9,,adl
15.719213,0.0678,-0.2206,-0.0894,0.0218,-0.0208,0.0138,11.04,-0.18,-39.3,,adl
15.721112,0.0678,-0.2206,-0.0894,0.0245,0.0075,0.0053,11.04,-0.18,-39.3,,adl
15.734566,0.0678,-0.2206,-0.0894,0.0245,0.0075,0.0053,11.04,-0.18,-39.3,,adl
15.735518,0.4026,-0.0959,-0.1702,0.0245,0.0075,0.0053,11.04,-0.18,-39.3,,adl
15.739094,0.4026,-0.0959,-0.1702,0.0314,0.0682,-0.0229,11.04,-0.18,-39.3,,adl
15.759657,0.4026,-0.0959,-0.1702,0.0389,0.1103,-0.0218,11.04,-0.18,-39.3,,adl
15.780342,0.4026,-0.0959,-0.1702,0.0389,0.1103,-0.0218,10.92,0.06,-39.18,,adl
15.781878,0.4026,-0.0959,-0.1702,0.0405,0.0953,-0.0373,10.92,0.06,-39.18,,adl
15.796797,0.4026,-0.0959,-0.1702,0.0405,0.0953,-0.0373,10.92,0.06,-39.18,,adl
15.798356,0.1878,-0.0855,0.0586,0.0405,0.0953,-0.0373,10.92,0.06,-39.18,,adl
15.799592,0.1878,-0.0855,0.0586,0.0277,0.0948,-0.049,10.92,0.06,-39.18,,adl
15.82027,0.1878,-0.0855,0.0586,0.041,0.1001,-0.0629,10.92,0.06,-39.18,,adl
15.841112,0.1878,-0.0855,0.0586,0.041,0.1001,-0.0629,10.86,0.3,-39.24,,adl
15.842489,0.1878,-0.0855,0.0586,0.0517,0.0879,-0.0559,10.86,0.3,-39.24,,adl
15.858374,0.1878,-0.0855,0.0586,0.0517,0.0879,-0.0559,10.86,0.3,-39.24,,adl
15.860191,-0.3628,-0.033,0.0806,0.0517,0.0879,-0.0559,10.86,0.3,-39.24,,adl
15.861358,-0.3628,-0.033,0.0806,0.0618,0.0953,-0.0378,10.86,0.3,-39.24,,adl
15.882976,-0.3628,-0.033,0.0806,0.0559,0.082,-0.0133,10.86,0.3,-39.24,,adl
15.904101,-0.3628,-0.033,0.0806,0.0559,0.082,-0.0133,11.04,-0.06,-39.18,,adl
15.905778,-0.3628,-0.033,0.0806,0.0325,0.0181,0.0005,11.04,-0.06,-39.18,,adl
15.919497,-0.3628,-0.033,0.0806,0.0325,0.0181,0.0005,11.04,-0.06,-39.18,,adl
15.920885,-0.203,0.0761,-0.0593,0.0325,0.0181,0.0005,11.04,-0.06,-39.18,,adl
15.924641,-0.203,0.0761,-0.0593,-0.0069,0.0229,-0.0304,11.04,-0.06,-39.18,,adl
15.944365,-0.203,0.0761,-0.0593,-0.0197,0.0479,-0.0133,11.04,-0.06,-39.18,,adl
15.965305,-0.203,0.0761,-0.0593,-0.0197,0.0479,-0.0133,10.5,-0.24,-39.48,,adl
15.966862,-0.203,0.0761,-0.0593,0.0101,-0.0037,0.0123,10.5,-0.24,-39.48,,adl
15.98127,-0.203,0.0761,-0.0593,0.0101,-0.0037,0.0123,10.5,-0.24,-39.48,,adl
15.982881,-0.0443,-0.0112,0.2238,0.0101,-0.0037,0.0123,10.5,-0.24,-39.48,,adl
15.984096,-0.0443,-0.0112,0.2238,0.0437,0.0027,0.0234,10.5,-0.24,-39.48,,adl
16.006137,-0.0443,-0.0112,0.2238,0.0591,0.0197,-0.0053,10.5,-0.24,-39.48,,adl
16.026987,-0.0443,-0.0112,0.2238,0.0591,0.0197,-0.0053,10.68,-0.12,-39.18,,adl
16.028673,-0.0443,-0.0112,0.2238,0.0597,0.0138,-0.0037,10.68,-0.12,-39.18,,adl
16.043818,-0.0443,-0.0112,0.2238,0.0597,0.0138,-0.0037,10.68,-0.12,-39.18,,adl
16.045327,0.1762,-0.3615,0.0634,0.0597,0.0138,-0.0037,10.68,-0.12,-39.18,,adl
16.046415,0.1762,-0.3615,0.0634,0.1012,0.0399,-0.0096,10.68,-0.12,-39.18,,adl
16.067408,0.1762,-0.3615,0.0634,0.1161,0.081,-0.0005,10.68,-0.12,-39.18,,adl
