time,ax,ay,az,wx,wy,wz,Bx,By,Bz,Unnamed: 10,label
0.025383,0.0,0.0,0.0,0.0,0.0,0.0,0.0,0.0,0.0,,adl
0.029167,0.0,0.0,0.0,-0.4155,-0.9396,0.0282,0.0,0.0,0.0,,adl
0.049317,0.0,0.0,0.0,-0.4155,-0.9396,0.0282,0.0,0.0,0.0,,adl
0.071,0.0,0.0,0.0,-0.4155,-0.9396,0.0282,-19.62,16.86,-28.26,,adl
0.071694,0.0,0.0,0.0,0.253,0.5934,-0.0293,-19.62,16.86,-28.26,,adl
0.086921,0.0,0.0,0.0,0.253,0.5934,-0.0293,-19.62,16.86,-28.26,,adl
0.087578,0.0062,-0.0011,-0.056,0.253,0.5934,-0.0293,-19.62,16.86,-28.26,,adl
0.090751,0.0062,-0.0011,-0.056,0.0634,0.1854,-0.0144,-19.62,16.86,-28.26,,adl
0.111505,0.0062,-0.0011,-0.056,-0.1433,-0.3286,0.0101,-19.62,16.86,-28.26,,adl
0.132153,0.0062,-0.0011,-0.056,-0.1433,-0.3286,0.0101,-25.44,-7.26,-18.6,,adl
0.132951,0.0062,-0.0011,-0.056,-0.1816,-0.3515,0.0213,-25.44,-7.26,-18.6,,adl
0.148333,0.0062,-0.0011,-0.056,-0.1816,-0.3515,0.0213,-25.44,-7.26,-18.6,,adl
0.148987,0.2229,-0.0116,0.3777,-0.1816,-0.3515,0.0213,-25.44,-7.26,-18.6,,adl
0.152673,0.2229,-0.0116,0.3777,-0.0474,-0.0144,-0.0027,-25.44,-7.26,-18.6,,adl
0.174051,0.2229,-0.0116,0.3777,0.1198,0.2439,-0.032,-25.44,-7.26,-18.6,,adl
0.194206,0.2229,-0.0116,0.3777,0.1198,0.2439,-0.032,-28.44,-19.14,-13.86,,adl
0.194941,0.2229,-0.0116,0.3777,0.1342,0.196,-0.032,-28.44,-19.14,-13.86,,adl
0.210548,0.2229,-0.0116,0.3777,0.1342,0.196,-0.032,-28.44,-19.14,-13.86,,adl
0.211164,-0.1259,-0.082,-0.1694,0.1342,0.196,-0.032,-28.44,-19.14,-13.86,,adl
0.213706,-0.1259,-0.082,-0.1694,-0.0208,-0.0591,-0.0165,-28.44,-19.14,-13.86,,adl
0.234455,-0.1259,-0.082,-0.1694,-0.1262,-0.1662,-0.0027,-28.44,-19.14,-13.86,,adl
0.255419,-0.1259,-0.082,-0.1694,-0.1262,-0.1662,-0.0027,-31.2,-30.9,-9.54,,adl
0.256336,-0.1259,-0.082,-0.1694,-0.0879,-0.0676,0.0037,-31.2,-30.9,-9.54,,adl
0.271615,-0.1259,-0.082,-0.1694,-0.0879,-0.0676,0.0037,-31.2,-30.9,-9.54,,adl
0.272373,0.0029,-0.0026,0.6167,-0.0879,-0.0676,0.0037,-31.2,-30.9,-9.54,,adl
0.275598,0.0029,-0.0026,0.6167,0.0597,0.0794,-0.0032,-31.2,-30.9,-9.54,,adl
0.296005,0.0029,-0.0026,0.6167,0.123,0.0826,-0.0085,-31.2,-30.9,-9.54,,adl
0.317437,0.0029,-0.0026,0.6167,0.123,0.0826,-0.0085,-31.26,-30.72,-9.48,,adl
0.318281,0.0029,-0.0026,0.6167,0.0543,0.0016,-0.0027,-31.26,-30.72,-9.48,,adl
0.33337,0.0029,-0.0026,0.6167,0.0543,0.0016,-0.0027,-31.26,-30.72,-9.48,,adl
0.334086,-0.0109,0.0773,-0.3134,0.0543,0.0016,-0.0027,-31.26,-30.72,-9.48,,adl
0.336865,-0.0109,0.0773,-0.3134,-0.065,-0.0506,0.008,-31.26,-30.72,-9.48,,adl
0.358676,-0.0109,0.0773,-0.3134,-0.1007,-0.0304,-0.0011,-31.26,-30.72,-9.48,,adl
0.378784,-0.0109,0.0773,-0.3134,-0.1007,-0.0304,-0.0011,-31.14,-30.96,-9.6,,adl
0.379415,-0.0109,0.0773,-0.3134,-0.0506,0.0005,-0.0085,-31.14,-30.96,-9.6,,adl
0.395081,-0.0109,0.0773,-0.3134,-0.0506,0.0005,-0.0085,-31.14,-30.96,-9.6,,adl
0.395675,0.004,-0.0671,0.508,-0.0506,0.0005,-0.0085,-31.14,-30.96,-9.6,,adl
0.398939,0.004,-0.0671,0.508,0.0202,0.0261,-0.0176,-31.14,-30.96,-9.6,,adl
0.420129,0.004,-0.0671,0.508,0.0474,0.0192,-0.0069,-31.14,-30.96,-9.6,,adl
0.440559,0.004,-0.0671,0.508,0.0474,0.0192,-0.0069,-31.32,-31.2,-9.3,,adl
0.441214,0.004,-0.0671,0.508,0.0138,-0.0101,0.0091,-31.32,-31.2,-9.3,,adl
0.456482,0.004,-0.0671,0.508,0.0138,-0.0101,0.0091,-31.32,-31.2,-9.3,,adl
0.457058,0.0506,0.0057,-0.0036,0.0138,-0.0101,0.0091,-31.32,-31.2,-9.3,,adl
0.459947,0.0506,0.0057,-0.0036,-0.0117,-0.0192,0.0165,-31.32,-31.2,-9.3,,adl
0.481108,0.0506,0.0057,-0.0036,-0.0059,0.0128,0.0112,-31.32,-31.2,-9.3,,adl
0.501472,0.0506,0.0057,-0.0036,-0.0059,0.0128,0.0112,-31.56,-31.44,-9.18,,adl
0.502091,0.0506,0.0057,-0.0036,0.0064,0.0298,-0.0011,-31.56,-31.44,-9.18,,adl
0.517888,0.0506,0.0057,-0.0036,0.0064,0.0298,-0.0011,-31.56,-31.44,-9.18,,adl
0.518502,-0.0076,-0.0209,0.2266,0.0064,0.0298,-0.0011,-31.56,-31.44,-9.18,,adl
0.521519,-0.0076,-0.0209,0.2266,0.0064,0.0037,-0.0085,-31.56,-31.44,-9.18,,adl
0.542132,-0.0076,-0.0209,0.2266,-0.0027,-0.0383,-0.0144,-31.56,-31.44,-9.18,,adl
0.563539,-0.0076,-0.0209,0.2266,-0.0027,-0.0383,-0.0144,-31.74,-31.74,-9.42,,adl
0.564341,-0.0076,-0.0209,0.2266,-0.0053,-0.0256,-0.0123,-31.74,-31.74,-9.42,,adl
0.579667,-0.0076,-0.0209,0.2266,-0.0053,-0.0256,-0.0123,-31.74,-31.74,-9.42,,adl
0.580417,-0.1518,-0.0837,0.1707,-0.0053,-0.0256,-0.0123,-31.74,-31.74,-9.42,,adl
0.58544,-0.1518,-0.0837,0.1707,0.0053,0.016,-0.0069,-31.74,-31.74,-9.42,,adl
0.603958,-0.1518,-0.0837,0.1707,0.0192,0.0149,-0.0016,-31.74,-31.74,-9.42,,adl
0.625142,-0.1518,-0.0837,0.1707,0.0192,0.0149,-0.0016,-31.68,-31.56,-9.48,,adl
0.625808,-0.1518,-0.0837,0.1707,0.0085,-0.0165,0.0027,-31.68,-31.56,-9.48,,adl
0.641904,-0.1518,-0.0837,0.1707,0.0085,-0.0165,0.0027,-31.68,-31.56,-9.48,,adl
0.642751,0.0285,0.1518,0.1448,0.0085,-0.0165,0.0027,-31.68,-31.56,-9.48,,adl
0.645588,0.0285,0.1518,0.1448,-0.0048,-0.0154,0.0091,-31.68,-31.56,-9.48,,adl
0.666304,0.0285,0.1518,0.1448,-0.0011,0.0027,0.0048,-31.68,-31.56,-9.48,,adl
0.686988,0.0285,0.1518,0.1448,-0.0011,0.0027,0.0048,-31.56,-31.92,-9.84,,adl
0.688156,0.0285,0.1518,0.1448,-0.0096,0.0224,0.0032,-31.56,-31.92,-9.84,,adl
0.702994,0.0285,0.1518,0.1448,-0.0096,0.0224,0.0032,-31.56,-31.92,-9.84,,adl
0.704106,0.0486,-0.0937,0.14,-0.0096,0.0224,0.0032,-31.56,-31.92,-9.84,,adl
0.707787,0.0486,-0.0937,0.14,-0.0218,0.0064,-0.0059,-31.56,-31.92,-9.84,,adl
0.72735,0.0486,-0.0937,0.14,-0.0064,-0.017,-0.0101,-31.56,-31.92,-9.84,,adl
0.749652,0.0486,-0.0937,0.14,-0.0064,-0.017,-0.0101,-31.62,-31.62,-9.66,,adl
0.750797,0.0486,-0.0937,0.14,0.0165,-0.0128,-0.008,-31.62,-31.62,-9.66,,adl
0.76502,0.0486,-0.0937,0.14,0.0165,-0.0128,-0.008,-31.62,-31.62,-9.66,,adl
0.766097,-0.0114,0.0525,0.2018,0.0165,-0.0128,-0.008,-31.62,-31.62,-9.66,,adl
0.76918,-0.0114,0.0525,0.2018,0.0213,0.0027,0.0027,-31.62,-31.62,-9.66,,adl
0.788861,-0.0114,0.0525,0.2018,0.0096,0.0075,0.0037,-31.62,-31.62,-9.66,,adl
0.810558,-0.0114,0.0525,0.2018,0.0096,0.0075,0.0037,-31.56,-31.62,-9.78,,adl
0.811627,-0.0114,0.0525,0.2018,-0.0032,0.0,-0.0016,-31.56,-31.62,-9.78,,adl
0.826086,-0.0114,0.0525,0.2018,-0.0032,0.0,-0.0016,-31.56,-31.62,-9.78,,adl
0.827154,-0.0935,0.0057,0.1137,-0.0032,0.0,-0.0016,-31.56,-31.62,-9.78,,adl
0.829681,-0.0935,0.0057,0.1137,-0.0069,-0.0085,-0.0053,-31.56,-31.62,-9.78,,adl
0.850633,-0.0935,0.0057,0.1137,-0.0075,0.0059,0.0021,-31.56,-31.62,-9.78,,adl
0.871724,-0.0935,0.0057,0.1137,-0.0075,0.0059,0.0021,-31.98,-31.74,-9.6,,adl
0.873035,-0.0935,0.0057,0.1137,-0.0213,0.0123,0.0048,-31.98,-31.74,-9.6,,adl
0.887839,-0.0935,0.0057,0.1137,-0.0213,0.0123,0.0048,-31.98,-31.74,-9.6,,adl
0.888924,-0.0006,-0.0159,0.2742,-0.0213,0.0123,0.0048,-31.98,-31.74,-9.6,,adl
0.891669,-0.0006,-0.0159,0.2742,-0.0224,-0.0085,0.0037,-31.98,-31.74,-9.6,,adl
0.912053,-0.0006,-0.0159,0.2742,0.0085,-0.008,-0.0021,-31.98,-31.74,-9.6,,adl
0.933337,-0.0006,-0.0159,0.2742,0.0085,-0.008,-0.0021,-32.46,-31.62,-9.06,,adl
0.934475,-0.0006,-0.0159,0.2742,0.0277,0.0101,-0.0016,-32.46,-31.62,-9.06,,adl
0.948946,-0.0006,-0.0159,0.2742,0.0277,0.0101,-0.0016,-32.46,-31.62,-9.06,,adl
0.949741,0.0312,0.0549,0.0442,0.0277,0.0101,-0.0016,-32.46,-31.62,-9.06,,adl
0.952539,0.0312,0.0549,0.0442,0.0123,0.0128,-0.0011,-32.46,-31.62,-9.06,,adl
0.974234,0.0312,0.0549,0.0442,-0.0213,-0.0069,-0.0005,-32.46,-31.62,-9.06,,adl
0.995157,0.0312,0.0549,0.0442,-0.0213,-0.0069,-0.0005,-32.1,-31.5,-8.76,,adl
0.996577,0.0312,0.0549,0.0442,-0.0261,-0.0085,-0.0021,-32.1,-31.5,-8.76,,adl
1.011438,0.0312,0.0549,0.0442,-0.0261,-0.0085,-0.0021,-32.1,-31.5,-8.76,,adl
1.012743,-0.0173,-0.0527,0.2428,-0.0261,-0.0085,-0.0021,-32.1,-31.5,-8.76,,adl
1.016763,-0.0173,-0.0527,0.2428,-0.0069,0.0069,-0.0021,-32.1,-31.5,-8.76,,adl
1.035062,-0.0173,-0.0527,0.2428,0.0123,0.0123,0.0016,-32.1,-31.5,-8.76,,adl
1.057857,-0.0173,-0.0527,0.2428,0.0123,0.0123,0.0016,-32.4,-31.5,-8.52,,adl
1.063416,-0.0173,-0.0527,0.2428,0.0107,0.0021,0.0032,-32.4,-31.5,-8.52,,adl
1.0728,-0.0173,-0.0527,0.2428,0.0107,0.0021,0.0032,-32.4,-31.5,-8.52,,adl
1.073626,-0.0059,0.0039,0.1475,0.0107,0.0021,0.0032,-32.4,-31.5,-8.52,,adl
1.075962,-0.0059,0.0039,0.1475,0.0021,-0.0101,0.0037,-32.4,-31.5,-8.52,,adl
1.097351,-0.0059,0.0039,0.1475,0.0053,-0.0064,-0.0016,-32.4,-31.5,-8.52,,adl
1.118407,-0.0059,0.0039,0.1475,0.0053,-0.0064,-0.0016,-32.1,-31.5,-8.76,,adl
1.119606,-0.0059,0.0039,0.1475,0.0075,0.0064,-0.0016,-32.1,-31.5,-8.76,,adl
1.134402,-0.0059,0.0039,0.1475,0.0075,0.0064,-0.0016,-32.1,-31.5,-8.76,,adl
1.135549,-0.0365,0.0176,0.0875,0.0075,0.0064,-0.0016,-32.1,-31.5,-8.76,,adl
1.138525,-0.0365,0.0176,0.0875,-0.0037,0.0085,-0.0021,-32.1,-31.5,-8.76,,adl
1.158053,-0.0365,0.0176,0.0875,-0.016,-0.0059,0.0032,-32.1,-31.5,-8.76,,adl
1.179744,-0.0365,0.0176,0.0875,-0.0133,-0.0096,0.0048,-32.1,-31.5,-8.76,,adl
1.180803,-0.0365,0.0176,0.0875,-0.0133,-0.0096,0.0048,-31.44,-31.38,-8.82,,adl
1.19599,-0.0365,0.0176,0.0875,-0.0133,-0.0096,0.0048,-31.44,-31.38,-8.82,,adl
1.197015,-0.0163,-0.0448,0.2525,-0.0133,-0.0096,0.0048,-31.44,-31.38,-8.82,,adl
1.199944,-0.0163,-0.0448,0.2525,0.0021,0.0,0.0048,-31.44,-31.38,-8.82,,adl
1.220511,-0.0163,-0.0448,0.2525,0.0149,0.0053,0.0053,-31.44,-31.38,-8.82,,adl
1.241003,-0.0163,-0.0448,0.2525,0.0149,0.0053,0.0053,-31.74,-31.8,-9.3,,adl
1.241919,-0.0163,-0.0448,0.2525,0.0133,0.0016,0.0027,-31.74,-31.8,-9.3,,adl
1.257163,-0.0163,-0.0448,0.2525,0.0133,0.0016,0.0027,-31.74,-31.8,-9.3,,adl
1.258129,0.0325,0.0563,0.0826,0.0133,0.0016,0.0027,-31.74,-31.8,-9.3,,adl
1.26102,0.0325,0.0563,0.0826,0.0005,0.0,0.0,-31.74,-31.8,-9.3,,adl
1.281253,0.0325,0.0563,0.0826,-0.0096,0.0027,-0.0027,-31.74,-31.8,-9.3,,adl
1.303177,0.0325,0.0563,0.0826,-0.0096,0.0027,-0.0027,-31.5,-31.62,-9.36,,adl
1.304441,0.0325,0.0563,0.0826,-0.0096,-0.0005,-0.0011,-31.5,-31.62,-9.36,,adl
1.319184,0.0325,0.0563,0.0826,-0.0096,-0.0005,-0.0011,-31.5,-31.62,-9.36,,adl
1.320369,-0.0223,-0.0331,0.2023,-0.0096,-0.0005,-0.0011,-31.5,-31.62,-9.36,,adl
1.322158,-0.0223,-0.0331,0.2023,-0.0053,-0.0027,0.0005,-31.5,-31.62,-9.36,,adl
1.34312,-0.0223,-0.0331,0.2023,0.0032,-0.0043,0.0043,-31.5,-31.62,-9.36,,adl
1.364082,-0.0223,-0.0331,0.2023,0.0032,-0.0043,0.0043,-30.96,-31.62,-9.12,,adl
1.36523,-0.0223,-0.0331,0.2023,0.008,-0.0011,0.0059,-30.96,-31.62,-9.12,,adl
1.380552,-0.0223,-0.0331,0.2023,0.008,-0.0011,0.0059,-30.96,-31.62,-9.12,,adl
1.381594,-0.0096,-0.0104,0.1734,0.008,-0.0011,0.0059,-30.96,-31.62,-9.12,,adl
1.384247,-0.0096,-0.0104,0.1734,0.0085,0.0027,0.0043,-30.96,-31.62,-9.12,,adl
1.404633,-0.0096,-0.0104,0.1734,0.008,0.0059,0.0021,-30.96,-31.62,-9.12,,adl
1.425818,-0.0096,-0.0104,0.1734,0.008,0.0059,0.0021,-30.9,-31.86,-9.42,,adl
1.426694,-0.0096,-0.0104,0.1734,0.0043,0.0021,0.0027,-30.9,-31.86,-9.42,,adl
1.442183,-0.0096,-0.0104,0.1734,0.0043,0.0021,0.0027,-30.9,-31.86,-9.42,,adl
1.443162,0.0063,0.0562,0.1114,0.0043,0.0021,0.0027,-30.9,-31.86,-9.42,,adl
1.445536,0.0063,0.0562,0.1114,-0.0069,-0.0085,-0.0016,-30.9,-31.86,-9.42,,adl
1.466009,0.0063,0.0562,0.1114,-0.0075,-0.008,-0.0027,-30.9,-31.86,-9.42,,adl
1.487435,0.0063,0.0562,0.1114,-0.0075,-0.008,-0.0027,-30.72,-31.44,-8.94,,adl
1.488782,0.0063,0.0562,0.1114,-0.0048,0.0005,-0.0037,-30.72,-31.44,-8.94,,adl
1.503337,0.0063,0.0562,0.1114,-0.0048,0.0005,-0.0037,-30.72,-31.44,-8.94,,adl
1.50416,-0.0256,-0.0116,0.1973,-0.0048,0.0005,-0.0037,-30.72,-31.44,-8.94,,adl
1.507656,-0.0256,-0.0116,0.1973,0.0011,0.0069,-0.0016,-30.72,-31.44,-8.94,,adl
1.527607,-0.0256,-0.0116,0.1973,0.0016,0.0043,-0.0011,-30.72,-31.44,-8.94,,adl
1.548294,-0.0256,-0.0116,0.1973,0.0016,0.0043,-0.0011,-30.9,-31.2,-8.58,,adl
1.548723,-0.0256,-0.0116,0.1973,0.0005,-0.0005,0.0032,-30.9,-31.2,-8.58,,adl
1.564812,-0.0256,-0.0116,0.1973,0.0005,-0.0005,0.0032,-30.9,-31.2,-8.58,,adl
1.565654,-0.0092,-0.0381,0.1376,0.0005,-0.0005,0.0032,-30.9,-31.2,-8.58,,adl
1.568073,-0.0092,-0.0381,0.1376,-0.0027,-0.0032,0.0048,-30.9,-31.2,-8.58,,adl
1.588874,-0.0092,-0.0381,0.1376,-0.0048,-0.0053,0.0053,-30.9,-31.2,-8.58,,adl
1.610167,-0.0092,-0.0381,0.1376,-0.0048,-0.0053,0.0053,-31.26,-30.84,-8.34,,adl
1.611172,-0.0092,-0.0381,0.1376,0.0037,0.0005,0.0011,-31.26,-30.84,-8.34,,adl
1.626426,-0.0092,-0.0381,0.1376,0.0037,0.0005,0.0011,-31.26,-30.84,-8.34,,adl
1.627264,0.0244,0.0293,0.1589,0.0037,0.0005,0.0011,-31.26,-30.84,-8.34,,adl
1.630007,0.0244,0.0293,0.1589,0.0069,0.0064,-0.0048,-31.26,-30.84,-8.34,,adl
1.650719,0.0244,0.0293,0.1589,-0.0027,0.0027,-0.0016,-31.26,-30.84,-8.34,,adl
1.672209,0.0244,0.0293,0.1589,-0.0027,0.0027,-0.0016,-31.2,-30.3,-7.98,,adl
1.673342,0.0244,0.0293,0.1589,-0.0101,-0.0107,0.0005,-31.2,-30.3,-7.98,,adl
1.688286,0.0244,0.0293,0.1589,-0.0101,-0.0107,0.0005,-31.2,-30.3,-7.98,,adl
1.689265,-0.0286,0.0137,0.1804,-0.0101,-0.0107,0.0005,-31.2,-30.3,-7.98,,adl
1.692457,-0.0286,0.0137,0.1804,-0.0016,-0.0053,0.0011,-31.2,-30.3,-7.98,,adl
1.712736,-0.0286,0.0137,0.1804,0.0037,0.0085,0.0021,-31.2,-30.3,-7.98,,adl
1.733604,-0.0286,0.0137,0.1804,0.0037,0.0085,0.0021,-31.02,-30.42,-8.4,,adl
1.734765,-0.0286,0.0137,0.1804,-0.0005,0.0059,0.0016,-31.02,-30.42,-8.4,,adl
1.749636,-0.0286,0.0137,0.1804,-0.0005,0.0059,0.0016,-31.02,-30.42,-8.4,,adl
1.750628,-0.0196,-0.0059,0.1614,-0.0005,0.0059,0.0016,-31.02,-30.42,-8.4,,adl
1.754057,-0.0196,-0.0059,0.1614,-0.0064,-0.0005,0.0,-31.02,-30.42,-8.4,,adl
1.774154,-0.0196,-0.0059,0.1614,-0.0037,-0.0011,0.0,-31.02,-30.42,-8.4,,adl
1.795204,-0.0196,-0.0059,0.1614,-0.0037,-0.0011,0.0,-30.78,-30.78,-8.64,,adl
1.79653,-0.0196,-0.0059,0.1614,0.0032,-0.0005,0.0011,-30.78,-30.78,-8.64,,adl
1.811223,-0.0196,-0.0059,0.1614,0.0032,-0.0005,0.0011,-30.78,-30.78,-8.64,,adl
1.81209,0.0107,0.0285,0.1446,0.0032,-0.0005,0.0011,-30.78,-30.78,-8.64,,adl
1.815705,0.0107,0.0285,0.1446,0.0043,0.0005,0.0016,-30.78,-30.78,-8.64,,adl
1.835986,0.0107,0.0285,0.1446,-0.0043,0.0027,-0.0005,-30.78,-30.78,-8.64,,adl
1.857286,0.0107,0.0285,0.1446,-0.0043,0.0027,-0.0005,-30.54,-30.96,-9.06,,adl
1.858325,0.0107,0.0285,0.1446,-0.0037,-0.0011,-0.0005,-30.54,-30.96,-9.06,,adl
1.873155,0.0107,0.0285,0.1446,-0.0037,-0.0011,-0.0005,-30.54,-30.96,-9.06,,adl
1.874102,-0.0152,-0.0091,0.1877,-0.0037,-0.0011,-0.0005,-30.54,-30.96,-9.06,,adl
1.876816,-0.0152,-0.0091,0.1877,0.0027,-0.0043,0.0,-30.54,-30.96,-9.06,,adl
1.896834,-0.0152,-0.0091,0.1877,0.0075,-0.0011,0.0,-30.54,-30.96,-9.06,,adl
1.918517,-0.0152,-0.0091,0.1877,0.0075,-0.0011,0.0,-31.14,-31.32,-9.18,,adl
1.91957,-0.0152,-0.0091,0.1877,-0.0011,0.0069,0.0021,-31.14,-31.32,-9.18,,adl
1.934233,-0.0152,-0.0091,0.1877,-0.0011,0.0069,0.0021,-31.14,-31.32,-9.18,,adl
1.935254,-0.0054,-0.0108,0.1686,-0.0011,0.0069,0.0021,-31.14,-31.32,-9.18,,adl
1.937629,-0.0054,-0.0108,0.1686,-0.0085,0.0005,0.0016,-31.14,-31.32,-9.18,,adl
1.958964,-0.0054,-0.0108,0.1686,-0.0005,-0.0075,0.0027,-31.14,-31.32,-9.18,,adl
1.979783,-0.0054,-0.0108,0.1686,-0.0005,-0.0075,0.0027,-31.2,-31.5,-9.18,,adl
1.980789,-0.0054,-0.0108,0.1686,0.0091,-0.0053,0.0016,-31.2,-31.5,-9.18,,adl
1.99613,-0.0054,-0.0108,0.1686,0.0091,-0.0053,0.0016,-31.2,-31.5,-9.18,,adl
1.997068,-0.0198,0.0389,0.1229,0.0091,-0.0053,0.0016,-31.2,-31.5,-9.18,,adl
1.999675,-0.0198,0.0389,0.1229,0.0085,0.0032,-0.0021,-31.2,-31.5,-9.18,,adl
2.02057,-0.0198,0.0389,0.1229,-0.0021,0.0037,0.0,-31.2,-31.5,-9.18,,adl
2.041704,-0.0198,0.0389,0.1229,-0.0021,0.0037,0.0,-30.9,-31.38,-8.88,,adl
2.042796,-0.0198,0.0389,0.1229,-0.0085,-0.0021,0.0005,-30.9,-31.38,-8.88,,adl
2.058054,-0.0198,0.0389,0.1229,-0.0085,-0.0021,0.0005,-30.9,-31.38,-8.88,,adl
2.059247,-0.0141,-0.0229,0.1757,-0.0085,-0.0021,0.0005,-30.9,-31.38,-8.88,,adl
2.061977,-0.0141,-0.0229,0.1757,-0.0075,-0.0011,0.0021,-30.9,-31.38,-8.88,,adl
2.082506,-0.0141,-0.0229,0.1757,0.0005,-0.0011,0.0037,-30.9,-31.38,-8.88,,adl
2.103395,-0.0141,-0.0229,0.1757,0.0005,-0.0011,0.0037,-31.32,-31.26,-9.12,,adl
2.104369,-0.0141,-0.0229,0.1757,0.0048,-0.0053,0.0027,-31.32,-31.26,-9.12,,adl
2.119301,-0.0141,-0.0229,0.1757,0.0048,-0.0053,0.0027,-31.32,-31.26,-9.12,,adl
2.120423,-0.006,-0.0011,0.1492,0.0048,-0.0053,0.0027,-31.32,-31.26,-9.12,,adl
2.123475,-0.006,-0.0011,0.1492,0.0048,0.0021,0.0016,-31.32,-31.26,-9.12,,adl
2.14327,-0.006,-0.0011,0.1492,0.0027,0.0005,0.0,-31.32,-31.26,-9.12,,adl
2.165295,-0.006,-0.0011,0.1492,0.0027,0.0053,-0.0011,-31.32,-31.26,-9.12,,adl
2.166327,-0.006,-0.0011,0.1492,0.0027,0.0053,-0.0011,-30.96,-31.02,-9.06,,adl
2.180389,-0.006,-0.0011,0.1492,0.0027,0.0053,-0.0011,-30.96,-31.02,-9.06,,adl
2.181325,-0.002,0.0088,0.1374,0.0027,0.0053,-0.0011,-30.96,-31.02,-9.06,,adl
2.183759,-0.002,0.0088,0.1374,-0.0053,-0.0021,-0.0005,-30.96,-31.02,-9.06,,adl
2.205,-0.002,0.0088,0.1374,-0.0101,-0.0091,-0.0011,-30.96,-31.02,-9.06,,adl
2.22657,-0.002,0.0088,0.1374,-0.0101,-0.0091,-0.0011,-31.08,-31.08,-8.7,,adl
2.227663,-0.002,0.0088,0.1374,-0.0005,0.0011,0.0005,-31.08,-31.08,-8.7,,adl
2.243211,-0.002,0.0088,0.1374,-0.0005,0.0011,0.0005,-31.08,-31.08,-8.7,,adl
2.24444,-0.0184,0.0049,0.1946,-0.0005,0.0011,0.0005,-31.08,-31.08,-8.7,,adl
2.245989,-0.0184,0.0049,0.1946,0.0096,0.0059,0.0005,-31.08,-31.08,-8.7,,adl
2.266457,-0.0184,0.0049,0.1946,0.0048,-0.0011,0.0016,-31.08,-31.08,-8.7,,adl
2.287323,-0.0184,0.0049,0.1946,0.0048,-0.0011,0.0016,-31.02,-31.02,-8.76,,adl
2.288301,-0.0184,0.0049,0.1946,-0.0016,-0.0027,0.0005,-31.02,-31.02,-8.76,,adl
2.304333,-0.0184,0.0049,0.1946,-0.0016,-0.0027,0.0005,-31.02,-31.02,-8.76,,adl
2.305323,-0.0276,-0.0001,0.1324,-0.0016,-0.0027,0.0005,-31.02,-31.02,-8.76,,adl
2.308102,-0.0276,-0.0001,0.1324,-0.0069,-0.0011,0.0,-31.02,-31.02,-8.76,,adl
2.328817,-0.0276,-0.0001,0.1324,-0.0016,-0.0021,-0.0005,-31.02,-31.02,-8.76,,adl
2.3497,-0.0276,-0.0001,0.1324,-0.0016,-0.0021,-0.0005,-31.2,-31.26,-8.16,,adl
2.350748,-0.0276,-0.0001,0.1324,0.0021,0.0005,0.0021,-31.2,-31.26,-8.16,,adl
2.366321,-0.0276,-0.0001,0.1324,0.0021,0.0005,0.0021,-31.2,-31.26,-8.16,,adl
2.36729,-0.0209,0.0059,0.1659,0.0021,0.0005,0.0021,-31.2,-31.26,-8.16,,adl
2.370026,-0.0209,0.0059,0.1659,-0.0005,0.0,0.0005,-31.2,-31.26,-8.16,,adl
2.389353,-0.0209,0.0059,0.1659,-0.0027,0.0005,0.0005,-31.2,-31.26,-8.16,,adl
2.411234,-0.0209,0.0059,0.1659,-0.0027,0.0005,0.0005,-31.56,-31.44,-8.76,,adl
2.412439,-0.0209,0.0059,0.1659,-0.0005,-0.0032,0.0,-31.56,-31.44,-8.76,,adl
2.427074,-0.0209,0.0059,0.1659,-0.0005,-0.0032,0.0,-31.56,-31.44,-8.76,,adl
2.428224,0.0024,0.0208,0.1491,-0.0005,-0.0032,0.0,-31.56,-31.44,-8.76,,adl
2.430708,0.0024,0.0208,0.1491,0.0037,-0.0032,0.0011,-31.56,-31.44,-8.76,,adl
2.451226,0.0024,0.0208,0.1491,0.0,0.0016,0.0011,-31.56,-31.44,-8.76,,adl
2.472128,0.0024,0.0208,0.1491,0.0,0.0016,0.0011,-31.68,-31.14,-8.82,,adl
2.473032,0.0024,0.0208,0.1491,-0.0128,0.0011,-0.0016,-31.68,-31.14,-8.82,,adl
2.488077,0.0024,0.0208,0.1491,-0.0128,0.0011,-0.0016,-31.68,-31.14,-8.82,,adl
2.489017,0.0021,-0.0014,0.1945,-0.0128,0.0011,-0.0016,-31.68,-31.14,-8.82,,adl
2.492025,0.0021,-0.0014,0.1945,-0.0064,-0.0043,-0.0005,-31.68,-31.14,-8.82,,adl
2.512511,0.0021,-0.0014,0.1945,0.0075,0.0005,-0.0021,-31.68,-31.14,-8.82,,adl
2.534136,0.0021,-0.0014,0.1945,0.0075,0.0005,-0.0021,-32.34,-31.14,-9.18,,adl
2.535233,0.0021,-0.0014,0.1945,0.0069,0.0096,0.0011,-32.34,-31.14,-9.18,,adl
2.549983,0.0021,-0.0014,0.1945,0.0069,0.0096,0.0011,-32.34,-31.14,-9.18,,adl
2.550722,0.0213,0.0204,0.1203,0.0069,0.0096,0.0011,-32.34,-31.14,-9.18,,adl
2.553849,0.0213,0.0204,0.1203,-0.0021,0.008,-0.0011,-32.34,-31.14,-9.18,,adl
2.574885,0.0213,0.0204,0.1203,-0.0107,-0.0016,-0.0027,-32.34,-31.14,-9.18,,adl
2.596199,0.0213,0.0204,0.1203,-0.0107,-0.0016,-0.0027,-32.04,-30.96,-9.6,,adl
2.597745,0.0213,0.0204,0.1203,-0.0043,-0.0123,-0.008,-32.04,-30.96,-9.6,,adl
2.611462,0.0213,0.0204,0.1203,-0.0043,-0.0123,-0.008,-32.04,-30.96,-9.6,,adl
2.612615,-0.0907,0.0184,0.161,-0.0043,-0.0123,-0.008,-32.04,-30.96,-9.6,,adl
2.615735,-0.0907,0.0184,0.161,0.0059,-0.0075,-0.0053,-32.04,-30.96,-9.6,,adl
2.636149,-0.0907,0.0184,0.161,0.0032,0.0085,-0.0048,-32.04,-30.96,-9.6,,adl
2.657429,-0.0907,0.0184,0.161,-0.0069,0.0101,-0.0032,-32.04,-30.96,-9.6,,adl
2.65824,-0.0907,0.0184,0.161,-0.0069,0.0101,-0.0032,-31.68,-30.96,-9.06,,adl
2.673743,-0.0907,0.0184,0.161,-0.0069,0.0101,-0.0032,-31.68,-30.96,-9.06,,adl
2.674587,-0.0602,-0.0106,0.195,-0.0069,0.0101,-0.0032,-31.68,-30.96,-9.06,,adl
2.67678,-0.0602,-0.0106,0.195,-0.0112,-0.0037,0.0032,-31.68,-30.96,-9.06,,adl
2.697688,-0.0602,-0.0106,0.195,-0.0021,-0.008,0.0064,-31.68,-30.96,-9.06,,adl
2.718291,-0.0602,-0.0106,0.195,-0.0021,-0.008,0.0064,-31.5,-31.26,-9.24,,adl
2.719469,-0.0602,-0.0106,0.195,0.0048,0.0059,0.0069,-31.5,-31.26,-9.24,,adl
2.734412,-0.0602,-0.0106,0.195,0.0048,0.0059,0.0069,-31.5,-31.26,-9.24,,adl
2.735342,0.0714,-0.002,0.1301,0.0048,0.0059,0.0069,-31.5,-31.26,-9.24,,adl
2.738471,0.0714,-0.002,0.1301,0.0021,0.0085,0.0048,-31.5,-31.26,-9.24,,adl
2.758677,0.0714,-0.002,0.1301,0.0,-0.0096,-0.0016,-31.5,-31.26,-9.24,,adl
2.780561,0.0714,-0.002,0.1301,0.0,-0.0096,-0.0016,-31.2,-31.14,-8.58,,adl
2.781586,0.0714,-0.002,0.1301,0.0037,-0.0144,-0.0048,-31.2,-31.14,-8.58,,adl
2.796367,0.0714,-0.002,0.1301,0.0037,-0.0144,-0.0048,-31.2,-31.14,-8.58,,adl
2.797383,-0.0346,0.023,0.1346,0.0037,-0.0144,-0.0048,-31.2,-31.14,-8.58,,adl
2.800254,-0.0346,0.023,0.1346,0.0075,0.0,-0.0096,-31.2,-31.14,-8.58,,adl
2.820887,-0.0346,0.023,0.1346,0.0032,0.0091,-0.0053,-31.2,-31.14,-8.58,,adl
2.841426,-0.0346,0.023,0.1346,0.0032,0.0091,-0.0053,-31.5,-31.26,-8.76,,adl
2.842449,-0.0346,0.023,0.1346,-0.0128,-0.0027,-0.0005,-31.5,-31.26,-8.76,,adl
2.857864,-0.0346,0.023,0.1346,-0.0128,-0.0027,-0.0005,-31.5,-31.26,-8.76,,adl
2.858873,-0.0541,0.0231,0.1874,-0.0128,-0.0027,-0.0005,-31.5,-31.26,-8.76,,adl
2.861783,-0.0541,0.0231,0.1874,-0.0133,-0.0123,0.0027,-31.5,-31.26,-8.76,,adl
2.882268,-0.0541,0.0231,0.1874,0.0005,0.0011,0.0037,-31.5,-31.26,-8.76,,adl
2.903386,-0.0541,0.0231,0.1874,0.0005,0.0011,0.0037,-31.56,-31.14,-8.58,,adl
2.904554,-0.0541,0.0231,0.1874,0.008,0.0128,0.0021,-31.56,-31.14,-8.58,,adl
2.91946,-0.0541,0.0231,0.1874,0.008,0.0128,0.0021,-31.56,-31.14,-8.58,,adl
2.920658,0.0108,-0.0072,0.13,0.008,0.0128,0.0021,-31.56,-31.14,-8.58,,adl
2.925222,0.0108,-0.0072,0.13,0.0005,0.0069,0.0027,-31.56,-31.14,-8.58,,adl
2.944039,0.0108,-0.0072,0.13,-0.0064,-0.0064,0.0027,-31.56,-31.14,-8.58,,adl
2.965845,0.0108,-0.0072,0.13,-0.0064,-0.0064,0.0027,-31.44,-30.9,-8.4,,adl
2.966931,0.0108,-0.0072,0.13,-0.0037,-0.008,0.0005,-31.44,-30.9,-8.4,,adl
2.981921,0.0108,-0.0072,0.13,-0.0037,-0.008,0.0005,-31.44,-30.9,-8.4,,adl
2.982997,0.0322,-0.0007,0.1896,-0.0037,-0.008,0.0005,-31.44,-30.9,-8.4,,adl
2.985666,0.0322,-0.0007,0.1896,-0.0005,0.0021,-0.0032,-31.44,-30.9,-8.4,,adl
3.004803,0.0322,-0.0007,0.1896,0.0021,0.0027,-0.0043,-31.44,-30.9,-8.4,,adl
3.02659,0.0322,-0.0007,0.1896,0.0021,0.0027,-0.0043,-31.26,-31.2,-8.94,,adl
3.027723,0.0322,-0.0007,0.1896,0.0005,-0.0005,-0.0027,-31.26,-31.2,-8.94,,adl
3.04243,0.0322,-0.0007,0.1896,0.0005,-0.0005,-0.0027,-31.26,-31.2,-8.94,,adl
3.04355,-0.0364,0.0182,0.1418,0.0005,-0.0005,-0.0027,-31.26,-31.2,-8.94,,adl
3.046621,-0.0364,0.0182,0.1418,0.0,-0.0032,-0.0011,-31.26,-31.2,-8.94,,adl
3.067052,-0.0364,0.0182,0.1418,-0.0011,0.0005,0.0011,-31.26,-31.2,-8.94,,adl
3.087971,-0.0364,0.0182,0.1418,-0.0011,0.0005,0.0011,-30.96,-31.08,-8.82,,adl
3.089058,-0.0364,0.0182,0.1418,0.0,0.0027,0.0032,-30.96,-31.08,-8.82,,adl
3.104303,-0.0364,0.0182,0.1418,0.0,0.0027,0.0032,-30.96,-31.08,-8.82,,adl
3.105499,-0.0315,0.011,0.1466,0.0,0.0027,0.0032,-30.96,-31.08,-8.82,,adl
3.108478,-0.0315,0.011,0.1466,-0.0032,0.0043,0.0016,-30.96,-31.08,-8.82,,adl
3.128199,-0.0315,0.011,0.1466,-0.0011,-0.0043,0.0016,-30.96,-31.08,-8.82,,adl
3.149565,-0.0315,0.011,0.1466,-0.0011,-0.0043,0.0016,-30.66,-31.14,-9.24,,adl
3.150647,-0.0315,0.011,0.1466,-0.0005,-0.0021,-0.0016,-30.66,-31.14,-9.24,,adl
3.166235,-0.0315,0.011,0.1466,-0.0005,-0.0021,-0.0016,-30.66,-31.14,-9.24,,adl
3.167353,-0.0031,0.0072,0.1466,-0.0005,-0.0021,-0.0016,-30.66,-31.14,-9.24,,adl
3.169763,-0.0031,0.0072,0.1466,-0.0048,0.0016,-0.0021,-30.66,-31.14,-9.24,,adl
3.190914,-0.0031,0.0072,0.1466,0.0005,0.0064,-0.0032,-30.66,-31.14,-9.24,,adl
3.210579,-0.0031,0.0072,0.1466,0.0005,0.0064,-0.0032,-31.08,-31.2,-9.06,,adl
3.211509,-0.0031,0.0072,0.1466,-0.0021,-0.0048,-0.0011,-31.08,-31.2,-9.06,,adl
3.227131,-0.0031,0.0072,0.1466,-0.0021,-0.0048,-0.0011,-31.08,-31.2,-9.06,,adl
3.228268,-0.0382,0.0084,0.1562,-0.0021,-0.0048,-0.0011,-31.08,-31.2,-9.06,,adl
3.231108,-0.0382,0.0084,0.1562,-0.0059,-0.0112,0.0005,-31.08,-31.2,-9.06,,adl
3.251227,-0.0382,0.0084,0.1562,-0.0021,0.0043,0.0011,-31.08,-31.2,-9.06,,adl
3.272769,-0.0382,0.0084,0.1562,-0.0021,0.0043,0.0011,-30.9,-31.32,-9.42,,adl
3.273789,-0.0382,0.0084,0.1562,0.0032,0.0091,0.0011,-30.9,-31.32,-9.42,,adl
3.288586,-0.0382,0.0084,0.1562,0.0032,0.0091,0.0011,-30.9,-31.32,-9.42,,adl
3.28951,0.0171,0.0162,0.1371,0.0032,0.0091,0.0011,-30.9,-31.32,-9.42,,adl
3.292044,0.0171,0.0162,0.1371,0.0032,0.0,-0.0016,-30.9,-31.32,-9.42,,adl
3.313436,0.0171,0.0162,0.1371,-0.0048,-0.0027,-0.0032,-30.9,-31.32,-9.42,,adl
3.334131,0.0171,0.0162,0.1371,-0.0048,-0.0027,-0.0032,-30.96,-31.68,-9.12,,adl
3.335606,0.0171,0.0162,0.1371,-0.017,-0.0027,-0.0011,-30.96,-31.68,-9.12,,adl
3.350383,0.0171,0.0162,0.1371,-0.017,-0.0027,-0.0011,-30.96,-31.68,-9.12,,adl
3.351714,-0.0367,-0.0087,0.204,-0.017,-0.0027,-0.0011,-30.96,-31.68,-9.12,,adl
3.354376,-0.0367,-0.0087,0.204,-0.0043,-0.0075,0.0,-30.96,-31.68,-9.12,,adl
3.374267,-0.0367,-0.0087,0.204,0.0123,0.0032,0.0005,-30.96,-31.68,-9.12,,adl
3.396934,-0.0367,-0.0087,0.204,0.0123,0.0032,0.0005,-31.56,-31.62,-8.52,,adl
3.398485,-0.0367,-0.0087,0.204,0.0069,0.0075,-0.0005,-31.56,-31.62,-8.52,,adl
3.412423,-0.0367,-0.0087,0.204,0.0069,0.0075,-0.0005,-31.56,-31.62,-8.52,,adl
3.413997,0.0069,0.0593,0.1298,0.0069,0.0075,-0.0005,-31.56,-31.62,-8.52,,adl
3.416684,0.0069,0.0593,0.1298,-0.0107,-0.0016,-0.0032,-31.56,-31.62,-8.52,,adl
3.436372,0.0069,0.0593,0.1298,-0.0128,-0.0027,-0.0032,-31.56,-31.62,-8.52,,adl
3.458486,0.0069,0.0593,0.1298,-0.0128,-0.0027,-0.0032,-31.68,-31.86,-8.7,,adl
3.460287,0.0069,0.0593,0.1298,-0.0048,0.0021,-0.0021,-31.68,-31.86,-8.7,,adl
3.473937,0.0069,0.0593,0.1298,-0.0048,0.0021,-0.0021,-31.68,-31.86,-8.7,,adl
3.475518,-0.0271,-0.0306,0.1561,-0.0048,0.0021,-0.0021,-31.68,-31.86,-8.7,,adl
3.477216,-0.0271,-0.0306,0.1561,-0.0005,-0.0005,0.0,-31.68,-31.86,-8.7,,adl
3.498738,-0.0271,-0.0306,0.1561,-0.0021,0.0011,0.0011,-31.68,-31.86,-8.7,,adl
3.519833,-0.0271,-0.0306,0.1561,-0.0021,0.0011,0.0011,-31.92,-31.8,-7.92,,adl
3.521624,-0.0271,-0.0306,0.1561,-0.0048,0.0027,0.0,-31.92,-31.8,-7.92,,adl
3.536298,-0.0271,-0.0306,0.1561,-0.0048,0.0027,0.0,-31.92,-31.8,-7.92,,adl
3.538133,0.0069,0.002,0.2136,-0.0048,0.0027,0.0,-31.92,-31.8,-7.92,,adl
3.539282,0.0069,0.002,0.2136,0.0043,-0.0037,-0.0021,-31.92,-31.8,-7.92,,adl
3.560612,0.0069,0.002,0.2136,0.0133,-0.0021,-0.0032,-31.92,-31.8,-7.92,,adl
3.580721,0.0069,0.002,0.2136,0.0133,-0.0021,-0.0032,-31.86,-31.32,-8.22,,adl
3.582502,0.0069,0.002,0.2136,0.008,-0.0005,-0.0043,-31.86,-31.32,-8.22,,adl
3.597173,0.0069,0.002,0.2136,0.008,-0.0005,-0.0043,-31.86,-31.32,-8.22,,adl
3.598797,-0.0159,0.009,0.077,0.008,-0.0005,-0.0043,-31.86,-31.32,-8.22,,adl
3.60102,-0.0159,0.009,0.077,-0.0101,-0.0016,-0.0037,-31.86,-31.32,-8.22,,adl
3.621002,-0.0159,0.009,0.077,-0.017,-0.0085,-0.0027,-31.86,-31.32,-8.22,,adl
3.643193,-0.0159,0.009,0.077,-0.017,-0.0085,-0.0027,-31.44,-31.44,-8.34,,adl
3.644804,-0.0159,0.009,0.077,-0.0043,0.0005,0.0011,-31.44,-31.44,-8.34,,adl
3.658635,-0.0159,0.009,0.077,-0.0043,0.0005,0.0011,-31.44,-31.44,-8.34,,adl
3.66055,-0.0322,-0.0038,0.1893,-0.0043,0.0005,0.0011,-31.44,-31.44,-8.34,,adl
3.661759,-0.0322,-0.0038,0.1893,0.0085,0.0133,-0.0011,-31.44,-31.44,-8.34,,adl
3.68434,-0.0322,-0.0038,0.1893,-0.0005,-0.008,-0.0005,-31.44,-31.44,-8.34,,adl
3.704621,-0.0322,-0.0038,0.1893,-0.0005,-0.008,-0.0005,-30.78,-31.32,-8.16,,adl
3.706322,-0.0322,-0.0038,0.1893,-0.0043,-0.0112,-0.0011,-30.78,-31.32,-8.16,,adl
3.719932,-0.0322,-0.0038,0.1893,-0.0043,-0.0112,-0.0011,-30.78,-31.32,-8.16,,adl
3.72136,0.0166,0.0263,0.1246,-0.0043,-0.0112,-0.0011,-30.78,-31.32,-8.16,,adl
3.726653,0.0166,0.0263,0.1246,-0.0027,0.008,-0.0032,-30.78,-31.32,-8.16,,adl
3.744748,0.0166,0.0263,0.1246,0.0,0.0123,-0.0016,-30.78,-31.32,-8.16,,adl
3.765972,0.0166,0.0263,0.1246,0.0,0.0123,-0.0016,-31.32,-30.96,-8.16,,adl
3.767481,0.0166,0.0263,0.1246,-0.0037,0.0021,-0.0021,-31.32,-30.96,-8.16,,adl
3.782541,0.0166,0.0263,0.1246,-0.0037,0.0021,-0.0021,-31.32,-30.96,-8.16,,adl
3.784204,-0.0104,0.0292,0.168,-0.0037,0.0021,-0.0021,-31.32,-30.96,-8.16,,adl
3.785085,-0.0104,0.0292,0.168,-0.0117,-0.0154,-0.0011,-31.32,-30.96,-8.16,,adl
3.806138,-0.0104,0.0292,0.168,-0.0016,-0.0096,-0.0016,-31.32,-30.96,-8.16,,adl
3.827163,-0.0104,0.0292,0.168,-0.0016,-0.0096,-0.0016,-31.86,-31.08,-7.92,,adl
3.828679,-0.0104,0.0292,0.168,0.0085,0.0154,-0.0016,-31.86,-31.08,-7.92,,adl
3.843723,-0.0104,0.0292,0.168,0.0085,0.0154,-0.0016,-31.86,-31.08,-7.92,,adl
3.845404,-0.0195,-0.0033,0.1655,0.0085,0.0154,-0.0016,-31.86,-31.08,-7.92,,adl
3.846611,-0.0195,-0.0033,0.1655,0.0112,0.017,0.0005,-31.86,-31.08,-7.92,,adl
3.867823,-0.0195,-0.0033,0.1655,-0.0021,-0.0064,0.0,-31.86,-31.08,-7.92,,adl
3.889546,-0.0195,-0.0033,0.1655,-0.0021,-0.0064,0.0,-31.62,-30.78,-8.22,,adl
3.891173,-0.0195,-0.0033,0.1655,-0.0096,-0.0138,0.0005,-31.62,-30.78,-8.22,,adl
3.904379,-0.0195,-0.0033,0.1655,-0.0096,-0.0138,0.0005,-31.62,-30.78,-8.22,,adl
3.905846,-0.0201,0.0016,0.1534,-0.0096,-0.0138,0.0005,-31.62,-30.78,-8.22,,adl
3.908848,-0.0201,0.0016,0.1534,-0.0085,-0.0005,0.0,-31.62,-30.78,-8.22,,adl
3.9292,-0.0201,0.0016,0.1534,0.0005,0.0101,0.0011,-31.62,-30.78,-8.22,,adl
3.949107,-0.0201,0.0016,0.1534,0.0005,0.0101,0.0011,-31.86,-30.84,-8.28,,adl
3.950663,-0.0201,0.0016,0.1534,0.0021,0.0011,0.0032,-31.86,-30.84,-8.28,,adl
3.967463,-0.0201,0.0016,0.1534,0.0021,0.0011,0.0032,-31.86,-30.84,-8.28,,adl
3.969099,-0.0393,-0.0116,0.1776,0.0021,0.0011,0.0032,-31.86,-30.84,-8.28,,adl
3.970018,-0.0393,-0.0116,0.1776,0.0021,-0.0075,0.0,-31.86,-30.84,-8.28,,adl
3.990814,-0.0393,-0.0116,0.1776,0.0016,-0.0059,0.0,-31.86,-30.84,-8.28,,adl
4.011068,-0.0393,-0.0116,0.1776,0.0016,-0.0059,0.0,-31.5,-31.14,-8.46,,adl
4.01163,-0.0393,-0.0116,0.1776,0.0016,0.0011,-0.0016,-31.5,-31.14,-8.46,,adl
4.027155,-0.0393,-0.0116,0.1776,0.0016,0.0011,-0.0016,-31.5,-31.14,-8.46,,adl
4.028311,-0.0148,0.0826,0.1248,0.0016,0.0011,-0.0016,-31.5,-31.14,-8.46,,adl
4.032016,-0.0148,0.0826,0.1248,0.0005,0.0069,-0.0016,-31.5,-31.14,-8.46,,adl
4.051715,-0.0148,0.0826,0.1248,-0.0053,0.0064,-0.0037,-31.5,-31.14,-8.46,,adl
4.073092,-0.0148,0.0826,0.1248,-0.0053,0.0064,-0.0037,-30.42,-31.14,-8.94,,adl
4.073831,-0.0148,0.0826,0.1248,-0.0075,-0.0011,-0.0032,-30.42,-31.14,-8.94,,adl
4.089761,-0.0148,0.0826,0.1248,-0.0075,-0.0011,-0.0032,-30.42,-31.14,-8.94,,adl
4.090674,0.002,-0.0417,0.1585,-0.0075,-0.0011,-0.0032,-30.42,-31.14,-8.94,,adl
4.092775,0.002,-0.0417,0.1585,-0.0085,-0.0053,-0.0021,-30.42,-31.14,-8.94,,adl
4.113742,0.002,-0.0417,0.1585,-0.0064,0.0,-0.0011,-30.42,-31.14,-8.94,,adl
4.135389,0.002,-0.0417,0.1585,-0.0064,0.0,-0.0011,-30.36,-31.14,-8.7,,adl
4.136795,0.002,-0.0417,0.1585,-0.0048,0.0053,0.0021,-30.36,-31.14,-8.7,,adl
4.15127,0.002,-0.0417,0.1585,-0.0048,0.0053,0.0021,-30.36,-31.14,-8.7,,adl
4.152513,-0.0147,0.015,0.2303,-0.0048,0.0053,0.0021,-30.36,-31.14,-8.7,,adl
4.154744,-0.0147,0.015,0.2303,0.0048,-0.0064,0.0,-30.36,-31.14,-8.7,,adl
4.176354,-0.0147,0.015,0.2303,0.0165,-0.0059,-0.0021,-30.36,-31.14,-8.7,,adl
4.19653,-0.0147,0.015,0.2303,0.0165,-0.0059,-0.0021,-30.48,-31.2,-8.58,,adl
4.197926,-0.0147,0.015,0.2303,0.0117,0.0075,-0.0064,-30.48,-31.2,-8.58,,adl
4.212912,-0.0147,0.015,0.2303,0.0117,0.0075,-0.0064,-30.48,-31.2,-8.58,,adl
4.214313,0.0213,0.0703,0.0841,0.0117,0.0075,-0.0064,-30.48,-31.2,-8.58,,adl
4.217675,0.0213,0.0703,0.0841,-0.0107,0.0133,-0.0069,-30.48,-31.2,-8.58,,adl
4.236661,0.0213,0.0703,0.0841,-0.0202,0.0032,-0.0064,-30.48,-31.2,-8.58,,adl
4.259109,0.0213,0.0703,0.0841,-0.0202,0.0032,-0.0064,-30.42,-31.08,-8.52,,adl
4.2609,0.0213,0.0703,0.0841,-0.017,-0.0123,-0.0048,-30.42,-31.08,-8.52,,adl
4.274802,0.0213,0.0703,0.0841,-0.017,-0.0123,-0.0048,-30.42,-31.08,-8.52,,adl
4.276621,-0.0732,-0.0726,0.211,-0.017,-0.0123,-0.0048,-30.42,-31.08,-8.52,,adl
4.277722,-0.0732,-0.0726,0.211,-0.0021,-0.0112,0.0005,-30.42,-31.08,-8.52,,adl
4.298881,-0.0732,-0.0726,0.211,0.0075,0.0027,0.0037,-30.42,-31.08,-8.52,,adl
4.318667,-0.0732,-0.0726,0.211,0.0075,0.0027,0.0037,-31.2,-31.14,-8.22,,adl
4.319246,-0.0732,-0.0726,0.211,0.0112,0.0123,0.0027,-31.2,-31.14,-8.22,,adl
4.335643,-0.0732,-0.0726,0.211,0.0112,0.0123,0.0027,-31.2,-31.14,-8.22,,adl
4.337192,-0.003,0.0459,0.1585,0.0112,0.0123,0.0027,-31.2,-31.14,-8.22,,adl
4.33939,-0.003,0.0459,0.1585,0.0091,0.0069,-0.0011,-31.2,-31.14,-8.22,,adl
4.360637,-0.003,0.0459,0.1585,0.0032,-0.0053,-0.0021,-31.2,-31.14,-8.22,,adl
4.382189,-0.003,0.0459,0.1585,0.0032,-0.0053,-0.0021,-31.44,-31.26,-8.16,,adl
4.383822,-0.003,0.0459,0.1585,-0.0085,-0.0032,-0.0016,-31.44,-31.26,-8.16,,adl
4.397344,-0.003,0.0459,0.1585,-0.0085,-0.0032,-0.0016,-31.44,-31.26,-8.16,,adl
4.398589,-0.0104,0.0163,0.1321,-0.0085,-0.0032,-0.0016,-31.44,-31.26,-8.16,,adl
4.400651,-0.0104,0.0163,0.1321,-0.0176,0.0,-0.0027,-31.44,-31.26,-8.16,,adl
4.422212,-0.0104,0.0163,0.1321,-0.0107,-0.0085,-0.0016,-31.44,-31.26,-8.16,,adl
4.443054,-0.0104,0.0163,0.1321,-0.0107,-0.0085,-0.0016,-30.9,-30.78,-7.92,,adl
4.444612,-0.0104,0.0163,0.1321,0.0075,-0.0037,-0.0048,-30.9,-30.78,-7.92,,adl
4.459299,-0.0104,0.0163,0.1321,0.0075,-0.0037,-0.0048,-30.9,-30.78,-7.92,,adl
4.460793,-0.0599,-0.0177,0.175,0.0075,-0.0037,-0.0048,-30.9,-30.78,-7.92,,adl
4.462379,-0.0599,-0.0177,0.175,0.0149,0.0107,-0.0027,-30.9,-30.78,-7.92,,adl
4.483405,-0.0599,-0.0177,0.175,0.0005,0.0128,0.0,-30.9,-30.78,-7.92,,adl
4.505013,-0.0599,-0.0177,0.175,0.0005,0.0128,0.0,-31.14,-30.96,-8.52,,adl
4.506728,-0.0599,-0.0177,0.175,-0.0133,-0.0085,-0.0011,-31.14,-30.96,-8.52,,adl
4.521523,-0.0599,-0.0177,0.175,-0.0133,-0.0085,-0.0011,-31.14,-30.96,-8.52,,adl
4.522707,0.0385,0.0437,0.1274,-0.0133,-0.0085,-0.0011,-31.14,-30.96,-8.52,,adl
4.524113,0.0385,0.0437,0.1274,-0.0138,-0.0107,-0.0037,-31.14,-30.96,-8.52,,adl
4.545724,0.0385,0.0437,0.1274,-0.0053,0.0075,-0.0048,-31.14,-30.96,-8.52,,adl
4.566424,0.0385,0.0437,0.1274,-0.0053,0.0075,-0.0048,-30.72,-30.84,-8.82,,adl
4.56805,0.0385,0.0437,0.1274,-0.0064,0.0091,-0.0037,-30.72,-30.84,-8.82,,adl
4.582844,0.0385,0.0437,0.1274,-0.0064,0.0091,-0.0037,-30.72,-30.84,-8.82,,adl
4.58456,-0.0177,-0.0275,0.1682,-0.0064,0.0091,-0.0037,-30.72,-30.84,-8.82,,adl
4.5858,-0.0177,-0.0275,0.1682,-0.0075,-0.0069,-0.0032,-30.72,-30.84,-8.82,,adl
4.607113,-0.0177,-0.0275,0.1682,-0.0048,-0.008,0.0005,-30.72,-30.84,-8.82,,adl
4.627512,-0.0177,-0.0275,0.1682,-0.0048,-0.008,0.0005,-30.72,-30.84,-9.0,,adl
4.628978,-0.0177,-0.0275,0.1682,0.0027,0.0101,0.0021,-30.72,-30.84,-9.0,,adl
4.644473,-0.0177,-0.0275,0.1682,0.0027,0.0101,0.0021,-30.72,-30.84,-9.0,,adl
4.646577,-0.0091,0.0055,0.1681,0.0027,0.0101,0.0021,-30.72,-30.84,-9.0,,adl
4.647524,-0.0091,0.0055,0.1681,0.0053,0.0112,0.0032,-30.72,-30.84,-9.0,,adl
4.669004,-0.0091,0.0055,0.1681,0.0005,-0.0053,0.0021,-30.72,-30.84,-9.0,,adl
4.69007,-0.0091,0.0055,0.1681,0.0005,-0.0053,0.0021,-30.84,-31.02,-9.3,,adl
4.691779,-0.0091,0.0055,0.1681,-0.0032,-0.0091,0.0005,-30.84,-31.02,-9.3,,adl
4.705893,-0.0091,0.0055,0.1681,-0.0032,-0.0091,0.0005,-30.84,-31.02,-9.3,,adl
4.706889,-0.0122,0.0261,0.1273,-0.0032,-0.0091,0.0005,-30.84,-31.02,-9.3,,adl
4.710927,-0.0122,0.0261,0.1273,-0.0069,0.0069,-0.0016,-30.84,-31.02,-9.3,,adl
4.729452,-0.0122,0.0261,0.1273,-0.0043,0.0064,-0.0016,-30.84,-31.02,-9.3,,adl
4.750576,-0.0122,0.0261,0.1273,-0.0043,0.0064,-0.0016,-30.6,-30.78,-8.58,,adl
4.752027,-0.0122,0.0261,0.1273,-0.0032,-0.0027,0.0005,-30.6,-30.78,-8.58,,adl
4.767032,-0.0122,0.0261,0.1273,-0.0032,-0.0027,0.0005,-30.6,-30.78,-8.58,,adl
4.768785,-0.0478,-0.0422,0.1467,-0.0032,-0.0027,0.0005,-30.6,-30.78,-8.58,,adl
4.771019,-0.0478,-0.0422,0.1467,-0.0032,-0.0016,0.0021,-30.6,-30.78,-8.58,,adl
4.791566,-0.0478,-0.0422,0.1467,-0.0059,0.0043,0.0021,-30.6,-30.78,-8.58,,adl
4.812869,-0.0478,-0.0422,0.1467,-0.0059,0.0043,0.0021,-31.14,-31.2,-8.4,,adl
4.814335,-0.0478,-0.0422,0.1467,-0.0011,-0.0021,0.0021,-31.14,-31.2,-8.4,,adl
4.829442,-0.0478,-0.0422,0.1467,-0.0011,-0.0021,0.0021,-31.14,-31.2,-8.4,,adl
4.830873,-0.0229,0.095,0.1612,-0.0011,-0.0021,0.0021,-31.14,-31.2,-8.4,,adl
4.83205,-0.0229,0.095,0.1612,0.0027,-0.0053,-0.0027,-31.14,-31.2,-8.4,,adl
4.853202,-0.0229,0.095,0.1612,0.0053,0.0011,-0.0021,-31.14,-31.2,-8.4,,adl
4.873932,-0.0229,0.095,0.1612,0.0053,0.0011,-0.0021,-31.86,-31.44,-8.34,,adl
4.87559,-0.0229,0.095,0.1612,0.0005,0.0133,-0.0037,-31.86,-31.44,-8.34,,adl
4.890252,-0.0229,0.095,0.1612,0.0005,0.0133,-0.0037,-31.86,-31.44,-8.34,,adl
4.891207,0.0348,-0.1138,0.1252,0.0005,0.0133,-0.0037,-31.86,-31.44,-8.34,,adl
4.895309,0.0348,-0.1138,0.1252,-0.0101,0.0138,0.0005,-31.86,-31.44,-8.34,,adl
4.914894,0.0348,-0.1138,0.1252,-0.0208,-0.0048,0.0053,-31.86,-31.44,-8.34,,adl
4.935766,0.0348,-0.1138,0.1252,-0.0208,-0.0048,0.0053,-32.28,-31.68,-8.4,,adl
4.937574,0.0348,-0.1138,0.1252,-0.0075,-0.0202,0.0064,-32.28,-31.68,-8.4,,adl
4.951658,0.0348,-0.1138,0.1252,-0.0075,-0.0202,0.0064,-32.28,-31.68,-8.4,,adl
4.953206,-0.0322,0.117,0.2208,-0.0075,-0.0202,0.0064,-32.28,-31.68,-8.4,,adl
4.954828,-0.0322,0.117,0.2208,0.0138,-0.0181,0.0011,-32.28,-31.68,-8.4,,adl
4.97644,-0.0322,0.117,0.2208,0.032,0.0208,-0.0048,-32.28,-31.68,-8.4,,adl
4.998071,-0.0322,0.117,0.2208,0.032,0.0208,-0.0048,-32.46,-31.56,-9.12,,adl
4.999571,-0.0322,0.117,0.2208,0.0176,0.0389,-0.0064,-32.46,-31.56,-9.12,,adl
5.01418,-0.0322,0.117,0.2208,0.0176,0.0389,-0.0064,-32.46,-31.56,-9.12,,adl
5.015781,0.0284,-0.0367,0.0636,0.0176,0.0389,-0.0064,-32.46,-31.56,-9.12,,adl
5.017094,0.0284,-0.0367,0.0636,-0.0208,0.0128,-0.0027,-32.46,-31.56,-9.12,,adl
5.037487,0.0284,-0.0367,0.0636,-0.0383,-0.0282,0.0032,-32.46,-31.56,-9.12,,adl
5.058272,0.0284,-0.0367,0.0636,-0.0383,-0.0282,0.0032,-32.28,-31.38,-8.94,,adl
5.059963,0.0284,-0.0367,0.0636,-0.0186,-0.032,0.008,-32.28,-31.38,-8.94,,adl
5.076005,0.0284,-0.0367,0.0636,-0.0186,-0.032,0.008,-32.28,-31.38,-8.94,,adl
5.077354,-0.086,0.0002,0.2853,-0.0186,-0.032,0.008,-32.28,-31.38,-8.94,,adl
5.078515,-0.086,0.0002,0.2853,0.0197,-0.0037,0.0048,-32.28,-31.38,-8.94,,adl
5.099781,-0.086,0.0002,0.2853,0.0383,0.0256,0.0027,-32.28,-31.38,-8.94,,adl
5.120626,-0.086,0.0002,0.2853,0.0383,0.0256,0.0027,-31.44,-30.96,-9.12,,adl
5.122243,-0.086,0.0002,0.2853,0.0213,0.0261,0.0027,-31.44,-30.96,-9.12,,adl
5.135994,-0.086,0.0002,0.2853,0.0213,0.0261,0.0027,-31.44,-30.96,-9.12,,adl
5.137395,0.0241,0.0318,0.0421,0.0213,0.0261,0.0027,-31.44,-30.96,-9.12,,adl
5.139129,0.0241,0.0318,0.0421,-0.0096,-0.0043,0.0048,-31.44,-30.96,-9.12,,adl
5.161273,0.0241,0.0318,0.0421,-0.0234,-0.0314,0.0053,-31.44,-30.96,-9.12,,adl
5.182458,0.0241,0.0318,0.0421,-0.0234,-0.0314,0.0053,-31.62,-30.54,-9.36,,adl
5.184103,0.0241,0.0318,0.0421,-0.0107,-0.0229,0.0048,-31.62,-30.54,-9.36,,adl
5.197674,0.0241,0.0318,0.0421,-0.0107,-0.0229,0.0048,-31.62,-30.54,-9.36,,adl
5.199141,0.005,-0.0338,0.2229,-0.0107,-0.0229,0.0048,-31.62,-30.54,-9.36,,adl
5.20226,0.005,-0.0338,0.2229,0.0027,0.0021,0.0027,-31.62,-30.54,-9.36,,adl
5.222798,0.005,-0.0338,0.2229,0.0202,0.0176,0.0005,-31.62,-30.54,-9.36,,adl
5.242851,0.005,-0.0338,0.2229,0.0202,0.0176,0.0005,-31.74,-30.72,-8.64,,adl
5.244332,0.005,-0.0338,0.2229,0.0293,0.0096,0.0037,-31.74,-30.72,-8.64,,adl
5.260467,0.005,-0.0338,0.2229,0.0293,0.0096,0.0037,-31.74,-30.72,-8.64,,adl
5.262024,-0.0227,0.1114,0.0846,0.0293,0.0096,0.0037,-31.74,-30.72,-8.64,,adl
5.263108,-0.0227,0.1114,0.0846,0.0154,-0.0064,0.0005,-31.74,-30.72,-8.64,,adl
5.284359,-0.0227,0.1114,0.0846,-0.0069,-0.0149,-0.0053,-31.74,-30.72,-8.64,,adl
5.305909,-0.0227,0.1114,0.0846,-0.0069,-0.0149,-0.0053,-31.8,-30.24,-8.64,,adl
5.307611,-0.0227,0.1114,0.0846,-0.0186,-0.0059,-0.008,-31.8,-30.24,-8.64,,adl
5.321579,-0.0227,0.1114,0.0846,-0.0186,-0.0059,-0.008,-31.8,-30.24,-8.64,,adl
5.322514,-0.0539,-0.0065,0.1704,-0.0186,-0.0059,-0.008,-31.8,-30.24,-8.64,,adl
5.326828,-0.0539,-0.0065,0.1704,-0.0133,0.0091,-0.0037,-31.8,-30.24,-8.64,,adl
5.345088,-0.0539,-0.0065,0.1704,-0.0069,0.0101,0.0043,-31.8,-30.24,-8.64,,adl
5.366175,-0.0539,-0.0065,0.1704,-0.0032,0.0016,0.0123,-31.8,-30.24,-8.64,,adl
5.367624,-0.0539,-0.0065,0.1704,-0.0032,0.0016,0.0123,-31.98,-30.42,-8.58,,adl
5.383053,-0.0539,-0.0065,0.1704,-0.0032,0.0016,0.0123,-31.98,-30.42,-8.58,,adl
5.384661,0.0097,-0.0861,0.2329,-0.0032,0.0016,0.0123,-31.98,-30.42,-8.58,,adl
5.385764,0.0097,-0.0861,0.2329,0.0053,-0.0075,0.0144,-31.98,-30.42,-8.58,,adl
5.407629,0.0097,-0.0861,0.2329,0.0176,-0.0085,0.0091,-31.98,-30.42,-8.58,,adl
5.428489,0.0097,-0.0861,0.2329,0.0176,-0.0085,0.0091,-32.1,-30.96,-8.64,,adl
5.429752,0.0097,-0.0861,0.2329,0.0266,-0.0005,0.0011,-32.1,-30.96,-8.64,,adl
5.445335,0.0097,-0.0861,0.2329,0.0266,-0.0005,0.0011,-32.1,-30.96,-8.64,,adl
5.446763,0.0271,0.1151,0.0842,0.0266,-0.0005,0.0011,-32.1,-30.96,-8.64,,adl
5.447787,0.0271,0.1151,0.0842,0.0208,0.0096,-0.0037,-32.1,-30.96,-8.64,,adl
5.468784,0.0271,0.1151,0.0842,-0.0016,0.0027,-0.0043,-32.1,-30.96,-8.64,,adl
5.490623,0.0271,0.1151,0.0842,-0.0016,0.0027,-0.0043,-31.98,-30.78,-9.0,,adl
5.492189,0.0271,0.1151,0.0842,-0.0218,-0.0107,-0.0016,-31.98,-30.78,-9.0,,adl
5.50624,0.0271,0.1151,0.0842,-0.0218,-0.0107,-0.0016,-31.98,-30.78,-9.0,,adl
5.507179,-0.0681,-0.0374,0.1991,-0.0218,-0.0107,-0.0016,-31.98,-30.78,-9.0,,adl
5.511043,-0.0681,-0.0374,0.1991,-0.0213,-0.0096,0.0011,-31.98,-30.78,-9.0,,adl
5.529696,-0.0681,-0.0374,0.1991,0.0048,0.0,0.0043,-31.98,-30.78,-9.0,,adl
5.551403,-0.0681,-0.0374,0.1991,0.0048,0.0,0.0043,-32.04,-31.2,-8.88,,adl
5.55283,-0.0681,-0.0374,0.1991,0.0213,0.0064,0.0085,-32.04,-31.2,-8.88,,adl
5.567659,-0.0681,-0.0374,0.1991,0.0213,0.0064,0.0085,-32.04,-31.2,-8.88,,adl
5.569255,-0.0537,0.0044,0.1393,0.0213,0.0064,0.0085,-32.04,-31.2,-8.88,,adl
5.570651,-0.0537,0.0044,0.1393,0.0176,0.0043,0.0075,-32.04,-31.2,-8.88,,adl
5.591582,-0.0537,0.0044,0.1393,0.0016,-0.0011,0.0059,-32.04,-31.2,-8.88,,adl
5.613524,-0.0537,0.0044,0.1393,0.0016,-0.0011,0.0059,-32.04,-31.38,-8.64,,adl
5.615007,-0.0537,0.0044,0.1393,-0.0107,-0.0043,0.0016,-32.04,-31.38,-8.64,,adl
5.629171,-0.0537,0.0044,0.1393,-0.0107,-0.0043,0.0016,-32.04,-31.38,-8.64,,adl
5.630615,0.0534,0.0143,0.1368,-0.0107,-0.0043,0.0016,-32.04,-31.38,-8.64,,adl
5.632104,0.0534,0.0143,0.1368,-0.0096,-0.0048,-0.0016,-32.04,-31.38,-8.64,,adl
5.65407,0.0534,0.0143,0.1368,-0.0064,-0.0075,-0.0037,-32.04,-31.38,-8.64,,adl
5.674941,0.0534,0.0143,0.1368,-0.0064,-0.0075,-0.0037,-31.8,-31.2,-8.52,,adl
5.677164,0.0534,0.0143,0.1368,-0.0011,-0.0048,-0.0005,-31.8,-31.2,-8.52,,adl
5.692854,0.0534,0.0143,0.1368,-0.0011,-0.0048,-0.0005,-31.8,-31.2,-8.52,,adl
5.694233,-0.0458,-0.0181,0.2179,-0.0011,-0.0048,-0.0005,-31.8,-31.2,-8.52,,adl
5.695313,-0.0458,-0.0181,0.2179,0.0075,0.0011,0.0027,-31.8,-31.2,-8.52,,adl
5.715553,-0.0458,-0.0181,0.2179,0.0144,0.0053,0.0037,-31.8,-31.2,-8.52,,adl
5.736781,-0.0458,-0.0181,0.2179,0.0144,0.0053,0.0037,-31.92,-31.56,-8.52,,adl
5.738522,-0.0458,-0.0181,0.2179,0.0107,0.0048,0.0048,-31.92,-31.56,-8.52,,adl
5.751828,-0.0458,-0.0181,0.2179,0.0107,0.0048,0.0048,-31.92,-31.56,-8.52,,adl
5.753212,0.0088,0.0464,0.096,0.0107,0.0048,0.0048,-31.92,-31.56,-8.52,,adl
5.756006,0.0088,0.0464,0.096,-0.0005,-0.0021,0.0027,-31.92,-31.56,-8.52,,adl
5.776073,0.0088,0.0464,0.096,-0.008,-0.0053,0.0,-31.92,-31.56,-8.52,,adl
5.797581,0.0088,0.0464,0.096,-0.008,-0.0053,0.0,-31.68,-31.44,-8.88,,adl
5.799141,0.0088,0.0464,0.096,-0.0048,-0.0005,-0.0005,-31.68,-31.44,-8.88,,adl
5.813558,0.0088,0.0464,0.096,-0.0048,-0.0005,-0.0005,-31.68,-31.44,-8.88,,adl
5.815043,-0.0476,-0.0086,0.1988,-0.0048,-0.0005,-0.0005,-31.68,-31.44,-8.88,,adl
5.81773,-0.0476,-0.0086,0.1988,-0.0005,0.0021,-0.0011,-31.68,-31.44,-8.88,,adl
5.837824,-0.0476,-0.0086,0.1988,0.0032,-0.0005,-0.0005,-31.68,-31.44,-8.88,,adl
5.859225,-0.0476,-0.0086,0.1988,0.0032,-0.0005,-0.0005,-31.62,-31.38,-8.64,,adl
5.860795,-0.0476,-0.0086,0.1988,0.0032,-0.0016,0.0005,-31.62,-31.38,-8.64,,adl
5.876572,-0.0476,-0.0086,0.1988,0.0032,-0.0016,0.0005,-31.62,-31.38,-8.64,,adl
5.878044,-0.0258,-0.0049,0.1486,0.0032,-0.0016,0.0005,-31.62,-31.38,-8.64,,adl
5.878934,-0.0258,-0.0049,0.1486,-0.0011,0.0037,0.0032,-31.62,-31.38,-8.64,,adl
5.900519,-0.0258,-0.0049,0.1486,-0.0085,0.0,0.0048,-31.62,-31.38,-8.64,,adl
5.92111,-0.0258,-0.0049,0.1486,-0.0085,0.0,0.0048,-31.38,-30.9,-8.58,,adl
5.922659,-0.0258,-0.0049,0.1486,-0.0043,-0.0032,0.0043,-31.38,-30.9,-8.58,,adl
5.937579,-0.0258,-0.0049,0.1486,-0.0043,-0.0032,0.0043,-31.38,-30.9,-8.58,,adl
5.93929,0.0101,0.0143,0.1534,-0.0043,-0.0032,0.0043,-31.38,-30.9,-8.58,,adl
5.940282,0.0101,0.0143,0.1534,0.0048,0.0027,0.0032,-31.38,-30.9,-8.58,,adl
5.962032,0.0101,0.0143,0.1534,0.0016,0.0037,0.0011,-31.38,-30.9,-8.58,,adl
5.98307,0.0101,0.0143,0.1534,0.0016,0.0037,0.0011,-31.38,-30.66,-8.4,,adl
5.984858,0.0101,0.0143,0.1534,-0.0011,-0.0021,-0.0016,-31.38,-30.66,-8.4,,adl
5.999361,0.0101,0.0143,0.1534,-0.0011,-0.0021,-0.0016,-31.38,-30.66,-8.4,,adl
6.000957,-0.0322,-0.0012,0.1822,-0.0011,-0.0021,-0.0016,-31.38,-30.66,-8.4,,adl
6.001801,-0.0322,-0.0012,0.1822,-0.0005,-0.0043,-0.0005,-31.38,-30.66,-8.4,,adl
6.023499,-0.0322,-0.0012,0.1822,0.0053,0.0011,-0.0005,-31.38,-30.66,-8.4,,adl
6.04352,-0.0322,-0.0012,0.1822,0.0053,0.0011,-0.0005,-31.44,-30.72,-8.22,,adl
6.04505,-0.0322,-0.0012,0.1822,0.0075,0.0021,0.0021,-31.44,-30.72,-8.22,,adl
6.060292,-0.0322,-0.0012,0.1822,0.0075,0.0021,0.0021,-31.44,-30.72,-8.22,,adl
6.061836,-0.0273,0.0224,0.1128,0.0075,0.0021,0.0021,-31.44,-30.72,-8.22,,adl
6.064407,-0.0273,0.0224,0.1128,-0.0011,0.0016,0.0027,-31.44,-30.72,-8.22,,adl
6.084544,-0.0273,0.0224,0.1128,-0.0064,0.0027,0.0032,-31.44,-30.72,-8.22,,adl
6.106463,-0.0273,0.0224,0.1128,-0.0064,0.0027,0.0032,-31.86,-30.36,-8.7,,adl
6.108172,-0.0273,0.0224,0.1128,0.0005,-0.0027,0.0016,-31.86,-30.36,-8.7,,adl
6.122311,-0.0273,0.0224,0.1128,0.0005,-0.0027,0.0016,-31.86,-30.36,-8.7,,adl
6.123404,-0.0079,0.0045,0.1894,0.0005,-0.0027,0.0016,-31.86,-30.36,-8.7,,adl
6.128047,-0.0079,0.0045,0.1894,0.0064,-0.0032,0.0005,-31.86,-30.36,-8.7,,adl
6.1468,-0.0079,0.0045,0.1894,0.0043,0.0053,-0.0016,-31.86,-30.36,-8.7,,adl
6.167082,-0.0079,0.0045,0.1894,0.0043,0.0053,-0.0016,-32.16,-30.84,-8.7,,adl
6.168962,-0.0079,0.0045,0.1894,-0.0011,0.0021,0.0,-32.16,-30.84,-8.7,,adl
6.183713,-0.0079,0.0045,0.1894,-0.0011,0.0021,0.0,-32.16,-30.84,-8.7,,adl
6.185613,-0.0166,-0.0022,0.1584,-0.0011,0.0021,0.0,-32.16,-30.84,-8.7,,adl
6.18685,-0.0166,-0.0022,0.1584,-0.0027,-0.0059,0.0,-32.16,-30.84,-8.7,,adl
6.208419,-0.0166,-0.0022,0.1584,-0.0005,-0.0027,0.0021,-32.16,-30.84,-8.7,,adl
6.229364,-0.0166,-0.0022,0.1584,-0.0005,-0.0027,0.0021,-31.68,-31.2,-8.28,,adl
6.230637,-0.0166,-0.0022,0.1584,0.0037,0.0032,0.0021,-31.68,-31.2,-8.28,,adl
6.244806,-0.0166,-0.0022,0.1584,0.0037,0.0032,0.0021,-31.68,-31.2,-8.28,,adl
6.246262,-0.0388,0.0283,0.1655,0.0037,0.0032,0.0021,-31.68,-31.2,-8.28,,adl
6.249114,-0.0388,0.0283,0.1655,0.0037,-0.0005,0.0043,-31.68,-31.2,-8.28,,adl
6.269284,-0.0388,0.0283,0.1655,0.0011,-0.0064,0.0037,-31.68,-31.2,-8.28,,adl
6.29073,-0.0388,0.0283,0.1655,0.0011,-0.0064,0.0037,-31.86,-31.62,-8.4,,adl
6.29259,-0.0388,0.0283,0.1655,-0.0011,-0.0021,-0.0005,-31.86,-31.62,-8.4,,adl
6.306956,-0.0388,0.0283,0.1655,-0.0011,-0.0021,-0.0005,-31.86,-31.62,-8.4,,adl
6.307999,0.0071,0.0268,0.139,-0.0011,-0.0021,-0.0005,-31.86,-31.62,-8.4,,adl
6.312329,0.0071,0.0268,0.139,-0.0005,0.0064,-0.0037,-31.86,-31.62,-8.4,,adl
6.332071,0.0071,0.0268,0.139,-0.0048,0.0064,-0.0032,-31.86,-31.62,-8.4,,adl
6.353068,0.0071,0.0268,0.139,-0.0048,0.0064,-0.0032,-31.44,-31.5,-8.64,,adl
6.354738,0.0071,0.0268,0.139,-0.0069,-0.0059,-0.0005,-31.44,-31.5,-8.64,,adl
6.368638,0.0071,0.0268,0.139,-0.0069,-0.0059,-0.0005,-31.44,-31.5,-8.64,,adl
6.370145,-0.0415,-0.0304,0.1774,-0.0069,-0.0059,-0.0005,-31.44,-31.5,-8.64,,adl
6.370991,-0.0415,-0.0304,0.1774,-0.0043,-0.0117,0.0005,-31.44,-31.5,-8.64,,adl
6.391979,-0.0415,-0.0304,0.1774,0.0005,-0.0043,0.0037,-31.44,-31.5,-8.64,,adl
6.414287,-0.0415,-0.0304,0.1774,0.0005,-0.0043,0.0037,-31.32,-31.26,-8.76,,adl
6.415797,-0.0415,-0.0304,0.1774,0.0043,0.0085,0.0016,-31.32,-31.26,-8.76,,adl
6.429473,-0.0415,-0.0304,0.1774,0.0043,0.0085,0.0016,-31.32,-31.26,-8.76,,adl
6.431033,0.0257,0.0429,0.1629,0.0043,0.0085,0.0016,-31.32,-31.26,-8.76,,adl
6.433152,0.0257,0.0429,0.1629,0.0048,0.0101,-0.0016,-31.32,-31.26,-8.76,,adl
6.454331,0.0257,0.0429,0.1629,0.0016,-0.0011,-0.0016,-31.32,-31.26,-8.76,,adl
6.475583,0.0257,0.0429,0.1629,0.0016,-0.0011,-0.0016,-31.8,-30.72,-9.84,,adl
6.477332,0.0257,0.0429,0.1629,-0.0037,-0.0069,-0.0021,-31.8,-30.72,-9.84,,adl
6.492883,0.0257,0.0429,0.1629,-0.0037,-0.0069,-0.0021,-31.8,-30.72,-9.84,,adl
6.494428,-0.0218,0.0086,0.1294,-0.0037,-0.0069,-0.0021,-31.8,-30.72,-9.84,,adl
6.495288,-0.0218,0.0086,0.1294,-0.0085,-0.0075,-0.0005,-31.8,-30.72,-9.84,,adl
6.515462,-0.0218,0.0086,0.1294,-0.0064,-0.0032,-0.0011,-31.8,-30.72,-9.84,,adl
6.536688,-0.0218,0.0086,0.1294,-0.0064,-0.0032,-0.0011,-31.86,-30.12,-9.36,,adl
6.538344,-0.0218,0.0086,0.1294,0.0043,0.0032,0.0005,-31.86,-30.12,-9.36,,adl
6.5524,-0.0218,0.0086,0.1294,0.0043,0.0032,0.0005,-31.86,-30.12,-9.36,,adl
6.553719,-0.0492,-0.0179,0.2059,0.0043,0.0032,0.0005,-31.86,-30.12,-9.36,,adl
6.55674,-0.0492,-0.0179,0.2059,0.0133,0.0043,0.0011,-31.86,-30.12,-9.36,,adl
6.577184,-0.0492,-0.0179,0.2059,0.008,0.0016,0.0011,-31.86,-30.12,-9.36,,adl
6.59849,-0.0492,-0.0179,0.2059,0.008,0.0016,0.0011,-32.22,-30.72,-8.82,,adl
6.600038,-0.0492,-0.0179,0.2059,-0.0032,-0.0053,0.0021,-32.22,-30.72,-8.82,,adl
6.614476,-0.0492,-0.0179,0.2059,-0.0032,-0.0053,0.0021,-32.22,-30.72,-8.82,,adl
6.616094,-0.0105,0.0447,0.1198,-0.0032,-0.0053,0.0021,-32.22,-30.72,-8.82,,adl
6.617335,-0.0105,0.0447,0.1198,-0.008,-0.0016,0.0021,-32.22,-30.72,-8.82,,adl
6.638601,-0.0105,0.0447,0.1198,-0.0064,0.0032,-0.0005,-32.22,-30.72,-8.82,,adl
6.660641,-0.0105,0.0447,0.1198,-0.0064,0.0032,-0.0005,-32.04,-30.6,-8.52,,adl
6.662111,-0.0105,0.0447,0.1198,-0.0027,0.0011,0.0005,-32.04,-30.6,-8.52,,adl
6.677157,-0.0105,0.0447,0.1198,-0.0027,0.0011,0.0005,-32.04,-30.6,-8.52,,adl
6.678688,-0.0219,-0.007,0.1892,-0.0027,0.0011,0.0005,-32.04,-30.6,-8.52,,adl
6.680181,-0.0219,-0.007,0.1892,0.0016,-0.0011,-0.0016,-32.04,-30.6,-8.52,,adl
6.699486,-0.0219,-0.007,0.1892,0.0027,0.0005,0.0005,-32.04,-30.6,-8.52,,adl
6.721528,-0.0219,-0.007,0.1892,0.0027,0.0005,0.0005,-32.16,-30.78,-7.74,,adl
6.723088,-0.0219,-0.007,0.1892,-0.0011,0.0005,-0.0005,-32.16,-30.78,-7.74,,adl
6.737717,-0.0219,-0.007,0.1892,-0.0011,0.0005,-0.0005,-32.16,-30.78,-7.74,,adl
6.738723,-0.0241,0.0347,0.1629,-0.0011,0.0005,-0.0005,-32.16,-30.78,-7.74,,adl
6.740102,-0.0241,0.0347,0.1629,-0.0011,0.0011,0.0011,-32.16,-30.78,-7.74,,adl
6.762587,-0.0241,0.0347,0.1629,0.0032,0.0,0.0011,-32.16,-30.78,-7.74,,adl
6.783381,-0.0241,0.0347,0.1629,0.0032,0.0,0.0011,-31.98,-30.78,-8.1,,adl
6.785241,-0.0241,0.0347,0.1629,0.0027,0.0037,-0.0011,-31.98,-30.78,-8.1,,adl
6.799523,-0.0241,0.0347,0.1629,0.0027,0.0037,-0.0011,-31.98,-30.78,-8.1,,adl
6.801213,-0.0183,-0.0093,0.1558,0.0027,0.0037,-0.0011,-31.98,-30.78,-8.1,,adl
6.802316,-0.0183,-0.0093,0.1558,-0.0085,0.0027,0.0016,-31.98,-30.78,-8.1,,adl
6.823729,-0.0183,-0.0093,0.1558,-0.0123,-0.0085,0.0005,-31.98,-30.78,-8.1,,adl
6.845083,-0.0183,-0.0093,0.1558,-0.0123,-0.0085,0.0005,-31.74,-30.48,-8.16,,adl
6.846669,-0.0183,-0.0093,0.1558,0.0048,-0.0043,0.0027,-31.74,-30.48,-8.16,,adl
6.861192,-0.0183,-0.0093,0.1558,0.0048,-0.0043,0.0027,-31.74,-30.48,-8.16,,adl
6.862737,-0.0438,0.0127,0.182,0.0048,-0.0043,0.0027,-31.74,-30.48,-8.16,,adl
6.864057,-0.0438,0.0127,0.182,0.0112,0.0085,0.0027,-31.74,-30.48,-8.16,,adl
6.885561,-0.0438,0.0127,0.182,0.0037,0.0069,0.0016,-31.74,-30.48,-8.16,,adl
6.905862,-0.0438,0.0127,0.182,0.0037,0.0069,0.0016,-31.68,-30.54,-8.4,,adl
6.907575,-0.0438,0.0127,0.182,-0.0048,-0.0043,0.0016,-31.68,-30.54,-8.4,,adl
6.922404,-0.0438,0.0127,0.182,-0.0048,-0.0043,0.0016,-31.68,-30.54,-8.4,,adl
6.923381,-0.0103,0.0268,0.1368,-0.0048,-0.0043,0.0016,-31.68,-30.54,-8.4,,adl
6.927586,-0.0103,0.0268,0.1368,-0.0059,-0.0037,-0.0016,-31.68,-30.54,-8.4,,adl
6.945934,-0.0103,0.0268,0.1368,-0.0021,0.0016,-0.0032,-31.68,-30.54,-8.4,,adl
6.968409,-0.0103,0.0268,0.1368,-0.0021,0.0016,-0.0032,-31.44,-30.66,-8.52,,adl
6.970032,-0.0103,0.0268,0.1368,-0.0011,0.0027,-0.0011,-31.44,-30.66,-8.52,,adl
6.984417,-0.0103,0.0268,0.1368,-0.0011,0.0027,-0.0011,-31.44,-30.66,-8.52,,adl
6.985936,-0.0077,-0.0024,0.1679,-0.0011,0.0027,-0.0011,-31.44,-30.66,-8.52,,adl
6.986995,-0.0077,-0.0024,0.1679,-0.0043,0.0021,0.0016,-31.44,-30.66,-8.52,,adl
7.007677,-0.0077,-0.0024,0.1679,-0.0027,0.0027,0.0032,-31.44,-30.66,-8.52,,adl
7.028271,-0.0077,-0.0024,0.1679,-0.0027,0.0027,0.0032,-31.02,-30.48,-8.34,,adl
7.029562,-0.0077,-0.0024,0.1679,0.0059,-0.0037,0.0016,-31.02,-30.48,-8.34,,adl
7.04568,-0.0077,-0.0024,0.1679,0.0059,-0.0037,0.0016,-31.02,-30.48,-8.34,,adl
7.047168,-0.0123,-0.019,0.1511,0.0059,-0.0037,0.0016,-31.02,-30.48,-8.34,,adl
7.048469,-0.0123,-0.019,0.1511,0.0117,-0.0032,-0.0011,-31.02,-30.48,-8.34,,adl
7.068844,-0.0123,-0.019,0.1511,0.0043,0.0037,-0.0011,-31.02,-30.48,-8.34,,adl
7.09091,-0.0123,-0.019,0.1511,0.0043,0.0037,-0.0011,-30.72,-30.42,-8.52,,adl
7.092643,-0.0123,-0.019,0.1511,-0.0037,-0.0011,0.0,-30.72,-30.42,-8.52,,adl
7.107082,-0.0123,-0.019,0.1511,-0.0037,-0.0011,0.0,-30.72,-30.42,-8.52,,adl
7.10814,-0.0479,0.0286,0.1967,-0.0037,-0.0011,0.0,-30.72,-30.42,-8.52,,adl
7.112308,-0.0479,0.0286,0.1967,-0.0037,-0.0091,0.0021,-30.72,-30.42,-8.52,,adl
7.132103,-0.0479,0.0286,0.1967,0.0021,-0.0043,0.0011,-30.72,-30.42,-8.52,,adl
7.153209,-0.0479,0.0286,0.1967,0.0021,-0.0043,0.0011,-31.2,-30.96,-8.34,,adl
7.154816,-0.0479,0.0286,0.1967,0.0048,0.0032,0.0005,-31.2,-30.96,-8.34,,adl
7.169446,-0.0479,0.0286,0.1967,0.0048,0.0032,0.0005,-31.2,-30.96,-8.34,,adl
7.171006,-0.0133,0.0769,0.1296,0.0048,0.0032,0.0005,-31.2,-30.96,-8.34,,adl
7.172301,-0.0133,0.0769,0.1296,0.0053,0.0085,0.0005,-31.2,-30.96,-8.34,,adl
7.192178,-0.0133,0.0769,0.1296,-0.0037,0.0043,-0.0021,-31.2,-30.96,-8.34,,adl
7.214374,-0.0133,0.0769,0.1296,-0.0037,0.0043,-0.0021,-31.2,-30.48,-8.34,,adl
7.216226,-0.0133,0.0769,0.1296,-0.008,-0.0032,-0.0021,-31.2,-30.48,-8.34,,adl
7.230336,-0.0133,0.0769,0.1296,-0.008,-0.0032,-0.0021,-31.2,-30.48,-8.34,,adl
7.232033,-0.0042,-0.0319,0.168,-0.008,-0.0032,-0.0021,-31.2,-30.48,-8.34,,adl
7.233679,-0.0042,-0.0319,0.168,-0.0075,-0.0037,-0.0016,-31.2,-30.48,-8.34,,adl
7.254847,-0.0042,-0.0319,0.168,-0.0032,0.0011,-0.0011,-31.2,-30.48,-8.34,,adl
7.276431,-0.0042,-0.0319,0.168,-0.0032,0.0011,-0.0011,-31.62,-30.9,-8.58,,adl
7.277911,-0.0042,-0.0319,0.168,0.0016,0.0016,-0.0005,-31.62,-30.9,-8.58,,adl
7.293812,-0.0042,-0.0319,0.168,0.0016,0.0016,-0.0005,-31.62,-30.9,-8.58,,adl
7.29517,-0.0092,-0.0132,0.2111,0.0016,0.0016,-0.0005,-31.62,-30.9,-8.58,,adl
7.296281,-0.0092,-0.0132,0.2111,0.0075,-0.0027,0.0,-31.62,-30.9,-8.58,,adl
7.315729,-0.0092,-0.0132,0.2111,0.0107,-0.0027,-0.0011,-31.62,-30.9,-8.58,,adl
7.336365,-0.0092,-0.0132,0.2111,0.0107,-0.0027,-0.0011,-31.92,-31.2,-8.46,,adl
7.337807,-0.0092,-0.0132,0.2111,0.0048,0.0037,0.0,-31.92,-31.2,-8.46,,adl
7.352813,-0.0092,-0.0132,0.2111,0.0048,0.0037,0.0,-31.92,-31.2,-8.46,,adl
7.354116,-0.019,0.0531,0.0914,0.0048,0.0037,0.0,-31.92,-31.2,-8.46,,adl
7.356543,-0.019,0.0531,0.0914,-0.0032,0.0016,-0.0005,-31.92,-31.2,-8.46,,adl
7.378423,-0.019,0.0531,0.0914,-0.0096,-0.0027,0.0011,-31.92,-31.2,-8.46,,adl
7.398283,-0.019,0.0531,0.0914,-0.0096,-0.0027,0.0011,-31.62,-31.14,-8.46,,adl
7.399754,-0.019,0.0531,0.0914,-0.008,-0.0037,0.0,-31.62,-31.14,-8.46,,adl
7.415018,-0.019,0.0531,0.0914,-0.008,-0.0037,0.0,-31.62,-31.14,-8.46,,adl
7.416739,-0.0435,-0.0217,0.2039,-0.008,-0.0037,0.0,-31.62,-31.14,-8.46,,adl
7.417938,-0.0435,-0.0217,0.2039,-0.0005,0.0011,-0.0011,-31.62,-31.14,-8.46,,adl
7.439065,-0.0435,-0.0217,0.2039,0.0059,0.0011,-0.0021,-31.62,-31.14,-8.46,,adl
7.460171,-0.0435,-0.0217,0.2039,0.0059,0.0011,-0.0021,-31.26,-31.38,-8.7,,adl
7.46162,-0.0435,-0.0217,0.2039,0.0059,-0.0027,-0.0005,-31.26,-31.38,-8.7,,adl
7.477045,-0.0435,-0.0217,0.2039,0.0059,-0.0027,-0.0005,-31.26,-31.38,-8.7,,adl
7.478477,-0.0357,0.0189,0.1297,0.0059,-0.0027,-0.0005,-31.26,-31.38,-8.7,,adl
7.479678,-0.0357,0.0189,0.1297,-0.0005,-0.0048,0.0005,-31.26,-31.38,-8.7,,adl
7.501175,-0.0357,0.0189,0.1297,-0.0043,-0.0043,0.0021,-31.26,-31.38,-8.7,,adl
7.52116,-0.0357,0.0189,0.1297,-0.0043,-0.0043,0.0021,-31.5,-31.08,-8.88,,adl
7.522637,-0.0357,0.0189,0.1297,-0.0064,0.0016,-0.0011,-31.5,-31.08,-8.88,,adl
7.538028,-0.0357,0.0189,0.1297,-0.0064,0.0016,-0.0011,-31.5,-31.08,-8.88,,adl
7.539711,0.0177,0.009,0.1559,-0.0064,0.0016,-0.0011,-31.5,-31.08,-8.88,,adl
7.541037,0.0177,0.009,0.1559,-0.0075,0.0037,-0.0021,-31.5,-31.08,-8.88,,adl
7.561405,0.0177,0.009,0.1559,-0.0091,0.0032,0.0021,-31.5,-31.08,-8.88,,adl
7.583409,0.0177,0.009,0.1559,-0.0091,0.0032,0.0021,-31.8,-30.96,-8.76,,adl
7.585072,0.0177,0.009,0.1559,-0.008,-0.0069,0.0016,-31.8,-30.96,-8.76,,adl
7.598874,0.0177,0.009,0.1559,-0.008,-0.0069,0.0016,-31.8,-30.96,-8.76,,adl
7.600576,0.0122,0.0063,0.1989,-0.008,-0.0069,0.0016,-31.8,-30.96,-8.76,,adl
7.60222,0.0122,0.0063,0.1989,0.0069,-0.0091,0.0011,-31.8,-30.96,-8.76,,adl
7.624019,0.0122,0.0063,0.1989,0.0096,0.0027,-0.0021,-31.8,-30.96,-8.76,,adl
7.644076,0.0122,0.0063,0.1989,0.0096,0.0027,-0.0021,-31.68,-30.66,-9.0,,adl
7.645533,0.0122,0.0063,0.1989,-0.0005,0.0048,-0.0037,-31.68,-30.66,-9.0,,adl
7.661426,0.0122,0.0063,0.1989,-0.0005,0.0048,-0.0037,-31.68,-30.66,-9.0,,adl
7.662947,-0.0335,0.0244,0.1414,-0.0005,0.0048,-0.0037,-31.68,-30.66,-9.0,,adl
7.664602,-0.0335,0.0244,0.1414,-0.0096,0.0032,-0.0059,-31.68,-30.66,-9.0,,adl
7.685401,-0.0335,0.0244,0.1414,-0.0064,0.0032,-0.0027,-31.68,-30.66,-9.0,,adl
7.706777,-0.0335,0.0244,0.1414,-0.0064,0.0032,-0.0027,-32.28,-30.72,-8.94,,adl
7.708358,-0.0335,0.0244,0.1414,-0.0005,-0.0005,0.0016,-32.28,-30.72,-8.94,,adl
7.722545,-0.0335,0.0244,0.1414,-0.0005,-0.0005,0.0016,-32.28,-30.72,-8.94,,adl
7.72413,-0.0345,-0.0105,0.1511,-0.0005,-0.0005,0.0016,-32.28,-30.72,-8.94,,adl
7.725186,-0.0345,-0.0105,0.1511,-0.0053,-0.0053,0.0043,-32.28,-30.72,-8.94,,adl
7.747508,-0.0345,-0.0105,0.1511,-0.0096,0.0005,0.0048,-32.28,-30.72,-8.94,,adl
7.767611,-0.0345,-0.0105,0.1511,-0.0096,0.0005,0.0048,-31.86,-31.08,-8.82,,adl
7.769122,-0.0345,-0.0105,0.1511,-0.0005,0.0027,0.0027,-31.86,-31.08,-8.82,,adl
7.786091,-0.0345,-0.0105,0.1511,-0.0005,0.0027,0.0027,-31.86,-31.08,-8.82,,adl
7.787786,-0.0015,-0.01,0.2061,-0.0005,0.0027,0.0027,-31.86,-31.08,-8.82,,adl
7.788872,-0.0015,-0.01,0.2061,0.0149,0.0,-0.0005,-31.86,-31.08,-8.82,,adl
7.808869,-0.0015,-0.01,0.2061,0.0128,0.0016,-0.0021,-31.86,-31.08,-8.82,,adl
7.829989,-0.0015,-0.01,0.2061,0.0128,0.0016,-0.0021,-31.38,-30.84,-8.94,,adl
7.831306,-0.0015,-0.01,0.2061,-0.0075,0.0048,-0.0021,-31.38,-30.84,-8.94,,adl
7.845576,-0.0015,-0.01,0.2061,-0.0075,0.0048,-0.0021,-31.38,-30.84,-8.94,,adl
7.847015,-0.0028,0.0382,0.1536,-0.0075,0.0048,-0.0021,-31.38,-30.84,-8.94,,adl
7.848902,-0.0028,0.0382,0.1536,-0.0208,-0.0064,-0.0021,-31.38,-30.84,-8.94,,adl
7.870573,-0.0028,0.0382,0.1536,-0.0101,-0.0123,-0.0011,-31.38,-30.84,-8.94,,adl
7.892269,-0.0028,0.0382,0.1536,0.0117,0.0011,-0.0016,-31.38,-30.84,-8.94,,adl
7.894014,-0.0028,0.0382,0.1536,0.0117,0.0011,-0.0016,-31.5,-30.96,-8.88,,adl
7.907251,-0.0028,0.0382,0.1536,0.0117,0.0011,-0.0016,-31.5,-30.96,-8.88,,adl
7.90855,-0.0515,0.0084,0.1556,0.0117,0.0011,-0.0016,-31.5,-30.96,-8.88,,adl
7.912309,-0.0515,0.0084,0.1556,0.0133,0.0112,0.0021,-31.5,-30.96,-8.88,,adl
7.930908,-0.0515,0.0084,0.1556,0.0005,0.0064,0.0021,-31.5,-30.96,-8.88,,adl
7.953308,-0.0515,0.0084,0.1556,0.0005,0.0064,0.0021,-30.84,-31.02,-8.88,,adl
7.954845,-0.0515,0.0084,0.1556,-0.0138,-0.0032,0.0032,-30.84,-31.02,-8.88,,adl
7.969233,-0.0515,0.0084,0.1556,-0.0138,-0.0032,0.0032,-30.84,-31.02,-8.88,,adl
7.970891,0.0207,-0.0013,0.1798,-0.0138,-0.0032,0.0032,-30.84,-31.02,-8.88,,adl
7.972247,0.0207,-0.0013,0.1798,-0.0123,-0.0037,0.0021,-30.84,-31.02,-8.88,,adl
7.993221,0.0207,-0.0013,0.1798,-0.0005,0.0011,-0.0016,-30.84,-31.02,-8.88,,adl
8.014344,0.0207,-0.0013,0.1798,-0.0005,0.0011,-0.0016,-31.08,-30.9,-9.0,,adl
8.015772,0.0207,-0.0013,0.1798,0.0032,-0.0005,-0.0037,-31.08,-30.9,-9.0,,adl
8.030412,0.0207,-0.0013,0.1798,0.0032,-0.0005,-0.0037,-31.08,-30.9,-9.0,,adl
8.032137,-0.0326,0.0195,0.1606,0.0032,-0.0005,-0.0037,-31.08,-30.9,-9.0,,adl
8.033387,-0.0326,0.0195,0.1606,0.0032,-0.0021,-0.0021,-31.08,-30.9,-9.0,,adl
8.054967,-0.0326,0.0195,0.1606,0.0011,-0.0011,-0.0016,-31.08,-30.9,-9.0,,adl
8.076948,-0.0326,0.0195,0.1606,0.0011,-0.0011,-0.0016,-31.2,-31.02,-8.88,,adl
8.078682,-0.0326,0.0195,0.1606,0.0016,0.0043,0.0005,-31.2,-31.02,-8.88,,adl
8.093507,-0.0326,0.0195,0.1606,0.0016,0.0043,0.0005,-31.2,-31.02,-8.88,,adl
8.09505,-0.025,0.011,0.1463,0.0016,0.0043,0.0005,-31.2,-31.02,-8.88,,adl
8.096464,-0.025,0.011,0.1463,-0.0037,0.0027,0.0016,-31.2,-31.02,-8.88,,adl
8.116991,-0.025,0.011,0.1463,-0.008,-0.0048,0.0027,-31.2,-31.02,-8.88,,adl
8.137218,-0.025,0.011,0.1463,-0.008,-0.0048,0.0027,-31.08,-31.14,-8.94,,adl
8.138784,-0.025,0.011,0.1463,-0.0027,-0.0011,0.0011,-31.08,-31.14,-8.94,,adl
8.152508,-0.025,0.011,0.1463,-0.0027,-0.0011,0.0011,-31.08,-31.14,-8.94,,adl
8.153963,0.0053,0.0181,0.1773,-0.0027,-0.0011,0.0011,-31.08,-31.14,-8.94,,adl
8.157204,0.0053,0.0181,0.1773,0.0021,0.0016,-0.0011,-31.08,-31.14,-8.94,,adl
8.178177,0.0053,0.0181,0.1773,0.0011,0.0011,-0.0016,-31.08,-31.14,-8.94,,adl
8.199512,0.0053,0.0181,0.1773,-0.0011,0.0,-0.0043,-31.08,-31.14,-8.94,,adl
8.201158,0.0053,0.0181,0.1773,-0.0011,0.0,-0.0043,-31.62,-30.9,-9.06,,adl
8.215791,0.0053,0.0181,0.1773,-0.0011,0.0,-0.0043,-31.62,-30.9,-9.06,,adl
8.217504,-0.0205,0.0152,0.1343,-0.0011,0.0,-0.0043,-31.62,-30.9,-9.06,,adl
8.218756,-0.0205,0.0152,0.1343,-0.0016,-0.0011,-0.0043,-31.62,-30.9,-9.06,,adl
8.239319,-0.0205,0.0152,0.1343,-0.0027,0.0016,-0.0005,-31.62,-30.9,-9.06,,adl
8.259539,-0.0205,0.0152,0.1343,-0.0027,0.0016,-0.0005,-31.56,-31.08,-9.06,,adl
8.261007,-0.0205,0.0152,0.1343,-0.0096,0.0037,0.0016,-31.56,-31.08,-9.06,,adl
8.276537,-0.0205,0.0152,0.1343,-0.0096,0.0037,0.0016,-31.56,-31.08,-9.06,,adl
8.27806,-0.0268,-0.0131,0.2133,-0.0096,0.0037,0.0016,-31.56,-31.08,-9.06,,adl
8.28033,-0.0268,-0.0131,0.2133,-0.0133,-0.0064,0.0048,-31.56,-31.08,-9.06,,adl
8.300875,-0.0268,-0.0131,0.2133,0.0059,-0.008,0.0016,-31.56,-31.08,-9.06,,adl
8.322453,-0.0268,-0.0131,0.2133,0.0059,-0.008,0.0016,-31.74,-31.08,-9.0,,adl
8.324157,-0.0268,-0.0131,0.2133,0.0149,0.0069,-0.0011,-31.74,-31.08,-9.0,,adl
8.337883,-0.0268,-0.0131,0.2133,0.0149,0.0069,-0.0011,-31.74,-31.08,-9.0,,adl
8.338915,0.0192,0.0587,0.1102,0.0149,0.0069,-0.0011,-31.74,-31.08,-9.0,,adl
8.342856,0.0192,0.0587,0.1102,0.0053,0.0123,-0.0005,-31.74,-31.08,-9.0,,adl
8.362275,0.0192,0.0587,0.1102,-0.0101,0.0027,-0.0032,-31.74,-31.08,-9.0,,adl
8.384016,0.0192,0.0587,0.1102,-0.0101,0.0027,-0.0032,-31.68,-31.02,-9.06,,adl
8.385753,0.0192,0.0587,0.1102,-0.0138,-0.0064,-0.0032,-31.68,-31.02,-9.06,,adl
8.400131,0.0192,0.0587,0.1102,-0.0138,-0.0064,-0.0032,-31.68,-31.02,-9.06,,adl
8.401673,-0.0294,-0.038,0.1774,-0.0138,-0.0064,-0.0032,-31.68,-31.02,-9.06,,adl
8.404503,-0.0294,-0.038,0.1774,-0.0091,-0.0059,-0.0027,-31.68,-31.02,-9.06,,adl
8.423646,-0.0294,-0.038,0.1774,-0.0005,-0.0011,0.0005,-31.68,-31.02,-9.06,,adl
8.444317,-0.0294,-0.038,0.1774,-0.0005,-0.0011,0.0005,-31.14,-30.9,-9.06,,adl
8.445658,-0.0294,-0.038,0.1774,0.0021,0.0064,0.0021,-31.14,-30.9,-9.06,,adl
8.460613,-0.0294,-0.038,0.1774,0.0021,0.0064,0.0021,-31.14,-30.9,-9.06,,adl
8.461966,-0.0151,-0.0242,0.187,0.0021,0.0064,0.0021,-31.14,-30.9,-9.06,,adl
8.463711,-0.0151,-0.0242,0.187,0.0032,0.0011,0.0048,-31.14,-30.9,-9.06,,adl
8.485082,-0.0151,-0.0242,0.187,0.0101,-0.0059,0.0043,-31.14,-30.9,-9.06,,adl
8.507051,-0.0151,-0.0242,0.187,0.0101,-0.0059,0.0043,-30.84,-30.72,-8.82,,adl
8.50883,-0.0151,-0.0242,0.187,0.0107,0.0005,0.0011,-30.84,-30.72,-8.82,,adl
8.522988,-0.0151,-0.0242,0.187,0.0107,0.0005,0.0011,-30.84,-30.72,-8.82,,adl
8.524074,0.0194,0.0446,0.0719,0.0107,0.0005,0.0011,-30.84,-30.72,-8.82,,adl
8.527444,0.0194,0.0446,0.0719,-0.0027,0.0053,-0.0037,-30.84,-30.72,-8.82,,adl
8.547058,0.0194,0.0446,0.0719,-0.0165,-0.0043,-0.0032,-30.84,-30.72,-8.82,,adl
8.568185,0.0194,0.0446,0.0719,-0.0165,-0.0043,-0.0032,-30.54,-30.72,-9.12,,adl
8.569552,0.0194,0.0446,0.0719,-0.0085,-0.0112,-0.0043,-30.54,-30.72,-9.12,,adl
8.584948,0.0194,0.0446,0.0719,-0.0085,-0.0112,-0.0043,-30.54,-30.72,-9.12,,adl
8.586612,-0.054,0.0069,0.2082,-0.0085,-0.0112,-0.0043,-30.54,-30.72,-9.12,,adl
8.587662,-0.054,0.0069,0.2082,0.0069,0.0005,-0.0016,-30.54,-30.72,-9.12,,adl
8.609222,-0.054,0.0069,0.2082,0.0101,0.0096,-0.0016,-30.54,-30.72,-9.12,,adl
8.629052,-0.054,0.0069,0.2082,0.0101,0.0096,-0.0016,-30.78,-30.6,-8.58,,adl
8.630416,-0.054,0.0069,0.2082,-0.0011,0.0037,0.0021,-30.78,-30.6,-8.58,,adl
8.646249,-0.054,0.0069,0.2082,-0.0011,0.0037,0.0021,-30.78,-30.6,-8.58,,adl
8.647762,0.0014,0.0201,0.1391,-0.0011,0.0037,0.0021,-30.78,-30.6,-8.58,,adl
8.649647,0.0014,0.0201,0.1391,-0.0091,-0.0037,0.0011,-30.78,-30.6,-8.58,,adl
8.670359,0.0014,0.0201,0.1391,-0.0069,-0.0016,0.0016,-30.78,-30.6,-8.58,,adl
8.691496,0.0014,0.0201,0.1391,-0.0069,-0.0016,0.0016,-30.72,-30.48,-8.76,,adl
8.693222,0.0014,0.0201,0.1391,-0.0011,0.0011,0.0,-30.72,-30.48,-8.76,,adl
8.707097,0.0014,0.0201,0.1391,-0.0011,0.0011,0.0,-30.72,-30.48,-8.76,,adl
8.708359,0.0003,-0.0314,0.1629,-0.0011,0.0011,0.0,-30.72,-30.48,-8.76,,adl
8.712142,0.0003,-0.0314,0.1629,-0.0021,-0.0027,-0.0005,-30.72,-30.48,-8.76,,adl
8.731948,0.0003,-0.0314,0.1629,-0.0016,-0.0096,0.0011,-30.72,-30.48,-8.76,,adl
8.753077,0.0003,-0.0314,0.1629,-0.0016,-0.0096,0.0011,-30.96,-30.48,-8.94,,adl
8.755077,0.0003,-0.0314,0.1629,0.0027,-0.0048,0.0005,-30.96,-30.48,-8.94,,adl
8.769131,0.0003,-0.0314,0.1629,0.0027,-0.0048,0.0005,-30.96,-30.48,-8.94,,adl
8.770801,-0.0151,0.0285,0.1722,0.0027,-0.0048,0.0005,-30.96,-30.48,-8.94,,adl
8.772471,-0.0151,0.0285,0.1722,0.0075,0.0064,-0.0027,-30.96,-30.48,-8.94,,adl
8.793084,-0.0151,0.0285,0.1722,0.0048,0.008,-0.0027,-30.96,-30.48,-8.94,,adl
8.815104,-0.0151,0.0285,0.1722,0.0048,0.008,-0.0027,-31.38,-30.42,-8.64,,adl
8.816873,-0.0151,0.0285,0.1722,-0.0053,-0.0016,-0.0011,-31.38,-30.42,-8.64,,adl
8.831501,-0.0151,0.0285,0.1722,-0.0053,-0.0016,-0.0011,-31.38,-30.42,-8.64,,adl
8.833119,-0.0387,-0.0087,0.1437,-0.0053,-0.0016,-0.0011,-31.38,-30.42,-8.64,,adl
8.834175,-0.0387,-0.0087,0.1437,-0.0107,-0.0053,0.0011,-31.38,-30.42,-8.64,,adl
8.8554,-0.0387,-0.0087,0.1437,-0.008,0.0021,0.0021,-31.38,-30.42,-8.64,,adl
8.876412,-0.0387,-0.0087,0.1437,-0.008,0.0021,0.0021,-31.26,-30.54,-9.0,,adl
8.877844,-0.0387,-0.0087,0.1437,0.0021,0.0032,-0.0005,-31.26,-30.54,-9.0,,adl
8.893785,-0.0387,-0.0087,0.1437,0.0021,0.0032,-0.0005,-31.26,-30.54,-9.0,,adl
8.895331,-0.0336,0.0112,0.1844,0.0021,0.0032,-0.0005,-31.26,-30.54,-9.0,,adl
8.896326,-0.0336,0.0112,0.1844,0.0069,0.0016,0.0005,-31.26,-30.54,-9.0,,adl
8.916913,-0.0336,0.0112,0.1844,0.0016,-0.0005,0.0,-31.26,-30.54,-9.0,,adl
8.937991,-0.0336,0.0112,0.1844,0.0016,-0.0005,0.0,-31.74,-31.02,-8.7,,adl
8.939353,-0.0336,0.0112,0.1844,-0.0037,0.0011,0.0,-31.74,-31.02,-8.7,,adl
8.953151,-0.0336,0.0112,0.1844,-0.0037,0.0011,0.0,-31.74,-31.02,-8.7,,adl
8.954063,0.0171,0.0006,0.1366,-0.0037,0.0011,0.0,-31.74,-31.02,-8.7,,adl
8.957107,0.0171,0.0006,0.1366,-0.0069,-0.0011,-0.0005,-31.74,-31.02,-8.7,,adl
8.97875,0.0171,0.0006,0.1366,-0.0027,-0.0005,-0.0011,-31.74,-31.02,-8.7,,adl
8.999185,0.0171,0.0006,0.1366,-0.0027,-0.0005,-0.0011,-31.8,-31.02,-8.7,,adl
9.000799,0.0171,0.0006,0.1366,-0.0059,0.0016,0.0,-31.8,-31.02,-8.7,,adl
9.015274,0.0171,0.0006,0.1366,-0.0059,0.0016,0.0,-31.8,-31.02,-8.7,,adl
9.016784,-0.0307,-0.0342,0.206,-0.0059,0.0016,0.0,-31.8,-31.02,-8.7,,adl
9.018335,-0.0307,-0.0342,0.206,-0.0123,-0.0053,0.0037,-31.8,-31.02,-8.7,,adl
9.040193,-0.0307,-0.0342,0.206,0.0016,-0.0075,0.0027,-31.8,-31.02,-8.7,,adl
9.060569,-0.0307,-0.0342,0.206,0.0016,-0.0075,0.0027,-31.74,-31.08,-8.7,,adl
9.062089,-0.0307,-0.0342,0.206,0.0149,0.0048,0.0027,-31.74,-31.08,-8.7,,adl
9.07774,-0.0307,-0.0342,0.206,0.0149,0.0048,0.0027,-31.74,-31.08,-8.7,,adl
9.079325,0.0104,0.0903,0.1172,0.0149,0.0048,0.0027,-31.74,-31.08,-8.7,,adl
9.080611,0.0104,0.0903,0.1172,0.0096,0.0091,0.0016,-31.74,-31.08,-8.7,,adl
9.10174,0.0104,0.0903,0.1172,-0.008,0.0043,-0.0016,-31.74,-31.08,-8.7,,adl
9.12139,0.0104,0.0903,0.1172,-0.008,0.0043,-0.0016,-31.44,-30.84,-8.94,,adl
9.122961,0.0104,0.0903,0.1172,-0.0144,-0.0021,-0.0043,-31.44,-30.84,-8.94,,adl
9.138837,0.0104,0.0903,0.1172,-0.0144,-0.0021,-0.0043,-31.44,-30.84,-8.94,,adl
9.140058,-0.0589,-0.0293,0.1797,-0.0144,-0.0021,-0.0043,-31.44,-30.84,-8.94,,adl
9.144432,-0.0589,-0.0293,0.1797,-0.008,-0.0016,-0.0021,-31.44,-30.84,-8.94,,adl
9.163123,-0.0589,-0.0293,0.1797,0.0011,-0.0011,0.0021,-31.44,-30.84,-8.94,,adl
9.184371,-0.0589,-0.0293,0.1797,0.0037,0.0037,0.0053,-31.44,-30.84,-8.94,,adl
9.185925,-0.0589,-0.0293,0.1797,0.0037,0.0037,0.0053,-31.44,-30.96,-8.88,,adl
9.200434,-0.0589,-0.0293,0.1797,0.0037,0.0037,0.0053,-31.44,-30.96,-8.88,,adl
9.201913,-0.006,-0.0261,0.2084,0.0037,0.0037,0.0053,-31.44,-30.96,-8.88,,adl
9.202794,-0.006,-0.0261,0.2084,0.0037,0.0027,0.0053,-31.44,-30.96,-8.88,,adl
9.224881,-0.006,-0.0261,0.2084,0.0107,-0.0043,0.0037,-31.44,-30.96,-8.88,,adl
9.246306,-0.006,-0.0261,0.2084,0.0107,-0.0043,0.0037,-31.5,-31.02,-9.06,,adl
9.248177,-0.006,-0.0261,0.2084,0.0144,-0.0053,0.0005,-31.5,-31.02,-9.06,,adl
9.262101,-0.006,-0.0261,0.2084,0.0144,-0.0053,0.0005,-31.5,-31.02,-9.06,,adl
9.263832,0.009,0.058,0.0647,0.0144,-0.0053,0.0005,-31.5,-31.02,-9.06,,adl
9.265028,0.009,0.058,0.0647,0.0032,0.0011,-0.0027,-31.5,-31.02,-9.06,,adl
9.285965,0.009,0.058,0.0647,-0.0123,-0.0011,-0.0021,-31.5,-31.02,-9.06,,adl
9.306878,0.009,0.058,0.0647,-0.0101,-0.0048,-0.0021,-31.5,-31.02,-9.06,,adl
9.308569,0.009,0.058,0.0647,-0.0101,-0.0048,-0.0021,-31.5,-30.78,-9.54,,adl
9.32333,0.009,0.058,0.0647,-0.0101,-0.0048,-0.0021,-31.5,-30.78,-9.54,,adl
9.324464,-0.0515,0.0114,0.2393,-0.0101,-0.0048,-0.0021,-31.5,-30.78,-9.54,,adl
9.328547,-0.0515,0.0114,0.2393,0.0032,-0.0005,-0.0016,-31.5,-30.78,-9.54,,adl
9.34719,-0.0515,0.0114,0.2393,0.0112,0.0064,0.0011,-31.5,-30.78,-9.54,,adl
9.368634,-0.0515,0.0114,0.2393,0.0112,0.0064,0.0011,-31.5,-31.26,-9.3,,adl
9.370235,-0.0515,0.0114,0.2393,0.0021,0.0021,0.0032,-31.5,-31.26,-9.3,,adl
9.384655,-0.0515,0.0114,0.2393,0.0021,0.0021,0.0032,-31.5,-31.26,-9.3,,adl
9.386207,0.0003,0.0057,0.127,0.0021,0.0021,0.0032,-31.5,-31.26,-9.3,,adl
9.38773,0.0003,0.0057,0.127,-0.0091,-0.0027,0.0043,-31.5,-31.26,-9.3,,adl
9.409265,0.0003,0.0057,0.127,-0.0048,-0.0011,0.0043,-31.5,-31.26,-9.3,,adl
9.429768,0.0003,0.0057,0.127,-0.0048,-0.0011,0.0043,-31.38,-31.14,-9.6,,adl
9.431118,0.0003,0.0057,0.127,0.0032,0.0021,0.0011,-31.38,-31.14,-9.6,,adl
9.445764,0.0003,0.0057,0.127,0.0032,0.0021,0.0011,-31.38,-31.14,-9.6,,adl
9.447293,0.0024,-0.0044,0.1605,0.0032,0.0021,0.0011,-31.38,-31.14,-9.6,,adl
9.449574,0.0024,-0.0044,0.1605,0.0053,0.0037,0.0005,-31.38,-31.14,-9.6,,adl
9.469459,0.0024,-0.0044,0.1605,0.0011,-0.0043,0.0005,-31.38,-31.14,-9.6,,adl
9.491811,0.0024,-0.0044,0.1605,0.0011,-0.0043,0.0005,-31.56,-31.2,-9.54,,adl
9.493451,0.0024,-0.0044,0.1605,0.0016,-0.008,0.0016,-31.56,-31.2,-9.54,,adl
9.510156,0.0024,-0.0044,0.1605,0.0016,-0.008,0.0016,-31.56,-31.2,-9.54,,adl
9.511643,-0.0326,0.0503,0.1747,0.0016,-0.008,0.0016,-31.56,-31.2,-9.54,,adl
9.512765,-0.0326,0.0503,0.1747,0.0043,-0.0027,0.0032,-31.56,-31.2,-9.54,,adl
9.532631,-0.0326,0.0503,0.1747,0.0037,0.0053,0.0005,-31.56,-31.2,-9.54,,adl
9.553953,-0.0326,0.0503,0.1747,0.0037,0.0053,0.0005,-31.14,-31.26,-9.06,,adl
9.555686,-0.0326,0.0503,0.1747,0.0021,0.0021,0.0021,-31.14,-31.26,-9.06,,adl
9.569908,-0.0326,0.0503,0.1747,0.0021,0.0021,0.0021,-31.14,-31.26,-9.06,,adl
9.571563,-0.0241,0.0255,0.1318,0.0021,0.0021,0.0021,-31.14,-31.26,-9.06,,adl
9.572915,-0.0241,0.0255,0.1318,-0.0048,-0.0021,0.0021,-31.14,-31.26,-9.06,,adl
9.593749,-0.0241,0.0255,0.1318,-0.0064,-0.0021,0.0027,-31.14,-31.26,-9.06,,adl
9.614895,-0.0241,0.0255,0.1318,-0.0064,-0.0021,0.0027,-31.2,-30.9,-8.7,,adl
9.616534,-0.0241,0.0255,0.1318,-0.0021,-0.0011,-0.0005,-31.2,-30.9,-8.7,,adl
9.630646,-0.0241,0.0255,0.1318,-0.0021,-0.0011,-0.0005,-31.2,-30.9,-8.7,,adl
9.632215,-0.0251,-0.0031,0.1867,-0.0021,-0.0011,-0.0005,-31.2,-30.9,-8.7,,adl
9.634334,-0.0251,-0.0031,0.1867,0.0011,-0.0016,-0.0005,-31.2,-30.9,-8.7,,adl
9.655196,-0.0251,-0.0031,0.1867,0.0043,0.0005,0.0016,-31.2,-30.9,-8.7,,adl
9.67649,-0.0251,-0.0031,0.1867,0.0043,0.0005,0.0016,-31.44,-30.9,-8.7,,adl
9.67787,-0.0251,-0.0031,0.1867,-0.0005,0.0032,0.0005,-31.44,-30.9,-8.7,,adl
9.693345,-0.0251,-0.0031,0.1867,-0.0005,0.0032,0.0005,-31.44,-30.9,-8.7,,adl
9.694788,0.0064,0.0101,0.1628,-0.0005,0.0032,0.0005,-31.44,-30.9,-8.7,,adl
9.695801,0.0064,0.0101,0.1628,-0.0016,-0.0059,0.0027,-31.44,-30.9,-8.7,,adl
9.717239,0.0064,0.0101,0.1628,0.0011,-0.0027,0.0032,-31.44,-30.9,-8.7,,adl
9.738147,0.0064,0.0101,0.1628,0.0011,-0.0027,0.0032,-31.44,-30.84,-8.28,,adl
9.739766,0.0064,0.0101,0.1628,0.0,-0.0011,0.0005,-31.44,-30.84,-8.28,,adl
9.753734,0.0064,0.0101,0.1628,0.0,-0.0011,0.0005,-31.44,-30.84,-8.28,,adl
9.75479,-0.0171,0.0333,0.1674,0.0,-0.0011,0.0005,-31.44,-30.84,-8.28,,adl
9.758945,-0.0171,0.0333,0.1674,0.0,0.0021,0.0005,-31.44,-30.84,-8.28,,adl
9.778141,-0.0171,0.0333,0.1674,0.0032,0.0048,-0.0011,-31.44,-30.84,-8.28,,adl
9.799145,-0.0171,0.0333,0.1674,0.0032,0.0048,-0.0011,-31.8,-30.96,-8.22,,adl
9.800816,-0.0171,0.0333,0.1674,0.0021,0.0032,0.0,-31.8,-30.96,-8.22,,adl
9.81608,-0.0171,0.0333,0.1674,0.0021,0.0032,0.0,-31.8,-30.96,-8.22,,adl
9.817672,-0.0223,-0.0204,0.1461,0.0021,0.0032,0.0,-31.8,-30.96,-8.22,,adl
9.818827,-0.0223,-0.0204,0.1461,-0.0091,0.0011,0.0011,-31.8,-30.96,-8.22,,adl
9.84025,-0.0223,-0.0204,0.1461,-0.0117,-0.0069,0.0027,-31.8,-30.96,-8.22,,adl
9.861064,-0.0223,-0.0204,0.1461,-0.0117,-0.0069,0.0027,-32.52,-31.56,-8.58,,adl
9.862675,-0.0223,-0.0204,0.1461,0.0011,-0.0085,0.0027,-32.52,-31.56,-8.58,,adl
9.878743,-0.0223,-0.0204,0.1461,0.0011,-0.0085,0.0027,-32.52,-31.56,-8.58,,adl
9.880621,-0.0437,0.026,0.1722,0.0011,-0.0085,0.0027,-32.52,-31.56,-8.58,,adl
9.88177,-0.0437,0.026,0.1722,0.0112,0.0053,0.0021,-32.52,-31.56,-8.58,,adl
9.901848,-0.0437,0.026,0.1722,0.0037,0.0123,0.0032,-32.52,-31.56,-8.58,,adl
9.922925,-0.0437,0.026,0.1722,0.0037,0.0123,0.0032,-32.28,-31.74,-8.76,,adl
9.924745,-0.0437,0.026,0.1722,-0.0075,0.0005,0.0,-32.28,-31.74,-8.76,,adl
9.938826,-0.0437,0.026,0.1722,-0.0075,0.0005,0.0,-32.28,-31.74,-8.76,,adl
9.939775,-0.0089,0.0028,0.1558,-0.0075,0.0005,0.0,-32.28,-31.74,-8.76,,adl
9.944135,-0.0089,0.0028,0.1558,-0.0085,-0.0075,-0.0005,-32.28,-31.74,-8.76,,adl
9.962899,-0.0089,0.0028,0.1558,-0.0016,-0.0059,-0.0011,-32.28,-31.74,-8.76,,adl
9.983356,-0.0089,0.0028,0.1558,-0.0016,-0.0059,-0.0011,-32.28,-31.86,-9.12,,adl
9.984917,-0.0089,0.0028,0.1558,0.0059,0.0005,0.0,-32.28,-31.86,-9.12,,adl
10.000183,-0.0089,0.0028,0.1558,0.0059,0.0005,0.0,-32.28,-31.86,-9.12,,adl
10.001616,-0.0186,0.0131,0.1531,0.0059,0.0005,0.0,-32.28,-31.86,-9.12,,adl
10.003436,-0.0186,0.0131,0.1531,0.0032,0.0107,0.0021,-32.28,-31.86,-9.12,,adl
10.023819,-0.0186,0.0131,0.1531,-0.0021,0.0048,0.0021,-32.28,-31.86,-9.12,,adl
10.04558,-0.0186,0.0131,0.1531,-0.0021,0.0048,0.0021,-31.98,-31.5,-9.36,,adl
10.047184,-0.0186,0.0131,0.1531,-0.0005,-0.0107,0.0011,-31.98,-31.5,-9.36,,adl
10.061157,-0.0186,0.0131,0.1531,-0.0005,-0.0107,0.0011,-31.98,-31.5,-9.36,,adl
10.062492,-0.02,-0.011,0.1676,-0.0005,-0.0107,0.0011,-31.98,-31.5,-9.36,,adl
10.064235,-0.02,-0.011,0.1676,0.0064,-0.008,0.0011,-31.98,-31.5,-9.36,,adl
10.08639,-0.02,-0.011,0.1676,0.0053,0.0059,-0.0011,-31.98,-31.5,-9.36,,adl
10.107558,-0.02,-0.011,0.1676,0.0053,0.0059,-0.0011,-31.5,-31.02,-9.12,,adl
10.109268,-0.02,-0.011,0.1676,-0.0043,0.0043,0.0005,-31.5,-31.02,-9.12,,adl
10.123649,-0.02,-0.011,0.1676,-0.0043,0.0043,0.0005,-31.5,-31.02,-9.12,,adl
10.124829,-0.0196,0.0162,0.1677,-0.0043,0.0043,0.0005,-31.5,-31.02,-9.12,,adl
10.129087,-0.0196,0.0162,0.1677,-0.008,-0.008,0.0005,-31.5,-31.02,-9.12,,adl
10.147794,-0.0196,0.0162,0.1677,-0.0005,-0.0027,0.0011,-31.5,-31.02,-9.12,,adl
10.168415,-0.0196,0.0162,0.1677,-0.0005,-0.0027,0.0011,-31.5,-30.84,-8.22,,adl
10.169688,-0.0196,0.0162,0.1677,0.0048,0.0059,0.0016,-31.5,-30.84,-8.22,,adl
10.184908,-0.0196,0.0162,0.1677,0.0048,0.0059,0.0016,-31.5,-30.84,-8.22,,adl
10.186511,-0.0157,0.026,0.1484,0.0048,0.0059,0.0016,-31.5,-30.84,-8.22,,adl
10.187372,-0.0157,0.026,0.1484,-0.0005,0.0016,0.0037,-31.5,-30.84,-8.22,,adl
10.209982,-0.0157,0.026,0.1484,-0.0043,-0.0032,0.0021,-31.5,-30.84,-8.22,,adl
10.230238,-0.0157,0.026,0.1484,-0.0043,-0.0032,0.0021,-31.44,-30.6,-8.04,,adl
10.23167,-0.0157,0.026,0.1484,0.0,-0.0021,-0.0005,-31.44,-30.6,-8.04,,adl
10.245838,-0.0157,0.026,0.1484,0.0,-0.0021,-0.0005,-31.44,-30.6,-8.04,,adl
10.247263,0.0003,-0.0042,0.1531,0.0,-0.0021,-0.0005,-31.44,-30.6,-8.04,,adl
10.249599,0.0003,-0.0042,0.1531,0.0037,0.0027,-0.0021,-31.44,-30.6,-8.04,,adl
10.271012,0.0003,-0.0042,0.1531,0.0,0.0016,-0.0016,-31.44,-30.6,-8.04,,adl
10.292452,0.0003,-0.0042,0.1531,0.0,0.0016,-0.0016,-31.68,-31.2,-8.22,,adl
10.294264,0.0003,-0.0042,0.1531,-0.0053,-0.0048,0.0,-31.68,-31.2,-8.22,,adl
10.309631,0.0003,-0.0042,0.1531,-0.0053,-0.0048,0.0,-31.68,-31.2,-8.22,,adl
10.311105,-0.0309,-0.0086,0.1818,-0.0053,-0.0048,0.0,-31.68,-31.2,-8.22,,adl
10.312351,-0.0309,-0.0086,0.1818,-0.0011,-0.0011,0.0027,-31.68,-31.2,-8.22,,adl
10.333105,-0.0309,-0.0086,0.1818,0.0043,0.0032,0.0032,-31.68,-31.2,-8.22,,adl
10.353867,-0.0309,-0.0086,0.1818,0.0043,0.0032,0.0032,-31.62,-31.14,-8.4,,adl
10.355472,-0.0309,-0.0086,0.1818,0.0027,0.0,0.0021,-31.62,-31.14,-8.4,,adl
10.369642,-0.0309,-0.0086,0.1818,0.0027,0.0,0.0021,-31.62,-31.14,-8.4,,adl
10.371113,-0.0089,0.0258,0.1388,0.0027,0.0,0.0021,-31.62,-31.14,-8.4,,adl
10.372907,-0.0089,0.0258,0.1388,-0.0011,-0.0005,0.0016,-31.62,-31.14,-8.4,,adl
10.393799,-0.0089,0.0258,0.1388,-0.0037,-0.0005,0.0011,-31.62,-31.14,-8.4,,adl
10.415619,-0.0089,0.0258,0.1388,-0.0037,-0.0005,0.0011,-31.74,-31.2,-8.58,,adl
10.417251,-0.0089,0.0258,0.1388,-0.0059,0.0005,0.0,-31.74,-31.2,-8.58,,adl
10.431592,-0.0089,0.0258,0.1388,-0.0059,0.0005,0.0,-31.74,-31.2,-8.58,,adl
10.433233,-0.0042,0.004,0.1771,-0.0059,0.0005,0.0,-31.74,-31.2,-8.58,,adl
10.434332,-0.0042,0.004,0.1771,-0.0016,0.0,0.0011,-31.74,-31.2,-8.58,,adl
10.456098,-0.0042,0.004,0.1771,0.0,0.0016,-0.0005,-31.74,-31.2,-8.58,,adl
10.476291,-0.0042,0.004,0.1771,0.0,0.0016,-0.0005,-31.44,-31.44,-8.52,,adl
10.47783,-0.0042,0.004,0.1771,0.0,0.0,0.0016,-31.44,-31.44,-8.52,,adl
10.493212,-0.0042,0.004,0.1771,0.0,0.0,0.0016,-31.44,-31.44,-8.52,,adl
10.494634,-0.0231,0.0114,0.1747,0.0,0.0,0.0016,-31.44,-31.44,-8.52,,adl
10.495511,-0.0231,0.0114,0.1747,0.0032,-0.0005,0.0021,-31.44,-31.44,-8.52,,adl
10.516213,-0.0231,0.0114,0.1747,0.0027,-0.0021,0.0011,-31.44,-31.44,-8.52,,adl
10.53854,-0.0231,0.0114,0.1747,0.0027,-0.0021,0.0011,-31.08,-31.26,-8.16,,adl
10.540165,-0.0231,0.0114,0.1747,0.0021,-0.0011,0.0016,-31.08,-31.26,-8.16,,adl
10.553863,-0.0231,0.0114,0.1747,0.0021,-0.0011,0.0016,-31.08,-31.26,-8.16,,adl
10.554725,-0.0237,0.0167,0.1507,0.0021,-0.0011,0.0016,-31.08,-31.26,-8.16,,adl
10.558452,-0.0237,0.0167,0.1507,-0.0032,0.0005,0.0021,-31.08,-31.26,-8.16,,adl
10.578648,-0.0237,0.0167,0.1507,-0.0037,0.0011,0.0016,-31.08,-31.26,-8.16,,adl
10.599558,-0.0237,0.0167,0.1507,-0.0037,0.0011,0.0016,-31.44,-31.02,-8.7,,adl
10.601221,-0.0237,0.0167,0.1507,-0.0011,-0.0027,0.0011,-31.44,-31.02,-8.7,,adl
10.615387,-0.0237,0.0167,0.1507,-0.0011,-0.0027,0.0011,-31.44,-31.02,-8.7,,adl
10.617048,-0.0167,0.0062,0.1675,-0.0011,-0.0027,0.0011,-31.44,-31.02,-8.7,,adl
10.619444,-0.0167,0.0062,0.1675,0.0016,-0.0021,0.0,-31.44,-31.02,-8.7,,adl
10.640586,-0.0167,0.0062,0.1675,0.0032,0.0011,0.0,-31.44,-31.02,-8.7,,adl
10.661838,-0.0167,0.0062,0.1675,0.0032,0.0011,0.0,-31.5,-31.02,-8.94,,adl
10.663337,-0.0167,0.0062,0.1675,-0.0011,0.0,0.0016,-31.5,-31.02,-8.94,,adl
10.67703,-0.0167,0.0062,0.1675,-0.0011,0.0,0.0016,-31.5,-31.02,-8.94,,adl
10.678429,-0.0288,0.0077,0.1579,-0.0011,0.0,0.0016,-31.5,-31.02,-8.94,,adl
10.680341,-0.0288,0.0077,0.1579,-0.0043,-0.0027,0.0005,-31.5,-31.02,-8.94,,adl
10.702574,-0.0288,0.0077,0.1579,-0.0043,0.0027,0.0027,-31.5,-31.02,-8.94,,adl
10.723587,-0.0288,0.0077,0.1579,-0.0043,0.0027,0.0027,-31.86,-30.48,-9.36,,adl
10.725355,-0.0288,0.0077,0.1579,0.0016,0.0037,0.0016,-31.86,-30.48,-9.36,,adl
10.739061,-0.0288,0.0077,0.1579,0.0016,0.0037,0.0016,-31.86,-30.48,-9.36,,adl
10.740177,-0.0065,0.0018,0.1819,0.0016,0.0037,0.0016,-31.86,-30.48,-9.36,,adl
10.743827,-0.0065,0.0018,0.1819,0.0027,-0.0016,0.0027,-31.86,-30.48,-9.36,,adl
10.763667,-0.0065,0.0018,0.1819,0.0037,-0.0069,0.0,-31.86,-30.48,-9.36,,adl
10.784311,-0.0065,0.0018,0.1819,0.0037,-0.0069,0.0,-32.16,-30.84,-9.6,,adl
10.785857,-0.0065,0.0018,0.1819,0.0016,-0.0011,0.0016,-32.16,-30.84,-9.6,,adl
10.800179,-0.0065,0.0018,0.1819,0.0016,-0.0011,0.0016,-32.16,-30.84,-9.6,,adl
10.801845,-0.0179,0.0285,0.1554,0.0016,-0.0011,0.0016,-32.16,-30.84,-9.6,,adl
10.803996,-0.0179,0.0285,0.1554,0.0037,0.0053,0.0011,-32.16,-30.84,-9.6,,adl
10.825062,-0.0179,0.0285,0.1554,0.0011,0.0032,0.0005,-32.16,-30.84,-9.6,,adl
10.844752,-0.0179,0.0285,0.1554,0.0011,0.0032,0.0005,-31.62,-30.9,-9.18,,adl
10.846044,-0.0179,0.0285,0.1554,-0.0096,-0.0016,-0.0005,-31.62,-30.9,-9.18,,adl
10.861361,-0.0179,0.0285,0.1554,-0.0096,-0.0016,-0.0005,-31.62,-30.9,-9.18,,adl
10.862662,-0.0141,0.0031,0.1866,-0.0096,-0.0016,-0.0005,-31.62,-30.9,-9.18,,adl
10.865688,-0.0141,0.0031,0.1866,-0.0059,-0.008,0.0005,-31.62,-30.9,-9.18,,adl
10.885138,-0.0141,0.0031,0.1866,0.0037,0.0011,0.0011,-31.62,-30.9,-9.18,,adl
10.907805,-0.0141,0.0031,0.1866,0.0037,0.0011,0.0011,-31.8,-31.02,-9.24,,adl
10.909617,-0.0141,0.0031,0.1866,0.0064,0.008,0.0011,-31.8,-31.02,-9.24,,adl
10.923415,-0.0141,0.0031,0.1866,0.0064,0.008,0.0011,-31.8,-31.02,-9.24,,adl
10.924647,-0.0139,0.0069,0.1388,0.0064,0.008,0.0011,-31.8,-31.02,-9.24,,adl
10.929418,-0.0139,0.0069,0.1388,-0.0016,0.0,0.0005,-31.8,-31.02,-9.24,,adl
10.947526,-0.0139,0.0069,0.1388,-0.0048,-0.0037,0.0005,-31.8,-31.02,-9.24,,adl
10.969251,-0.0139,0.0069,0.1388,-0.0048,-0.0037,0.0005,-31.56,-31.08,-9.06,,adl
10.970738,-0.0139,0.0069,0.1388,-0.0021,0.0005,-0.0005,-31.56,-31.08,-9.06,,adl
10.985427,-0.0139,0.0069,0.1388,-0.0021,0.0005,-0.0005,-31.56,-31.08,-9.06,,adl
10.987072,-0.0242,0.0086,0.1674,-0.0021,0.0005,-0.0005,-31.56,-31.08,-9.06,,adl
10.988472,-0.0242,0.0086,0.1674,0.0048,0.0011,0.0,-31.56,-31.08,-9.06,,adl
11.009973,-0.0242,0.0086,0.1674,-0.0016,-0.0016,0.0016,-31.56,-31.08,-9.06,,adl
11.031104,-0.0242,0.0086,0.1674,-0.0016,-0.0016,0.0016,-31.32,-30.6,-9.36,,adl
11.032835,-0.0242,0.0086,0.1674,-0.0011,0.0011,0.0021,-31.32,-30.6,-9.36,,adl
11.047375,-0.0242,0.0086,0.1674,-0.0011,0.0011,0.0021,-31.32,-30.6,-9.36,,adl
11.048983,-0.0073,0.0034,0.189,-0.0011,0.0011,0.0021,-31.32,-30.6,-9.36,,adl
11.050253,-0.0073,0.0034,0.189,0.0011,-0.0021,0.0011,-31.32,-30.6,-9.36,,adl
11.071724,-0.0073,0.0034,0.189,0.0064,-0.0021,0.0011,-31.32,-30.6,-9.36,,adl
11.091692,-0.0073,0.0034,0.189,0.0064,-0.0021,0.0011,-31.62,-30.66,-9.24,,adl
11.093114,-0.0073,0.0034,0.189,0.0053,0.0048,0.0005,-31.62,-30.66,-9.24,,adl
11.10997,-0.0073,0.0034,0.189,0.0053,0.0048,0.0005,-31.62,-30.66,-9.24,,adl
11.111617,-0.012,0.0055,0.1364,0.0053,0.0048,0.0005,-31.62,-30.66,-9.24,,adl
11.112725,-0.012,0.0055,0.1364,0.0011,0.0037,-0.0011,-31.62,-30.66,-9.24,,adl
11.132944,-0.012,0.0055,0.1364,-0.0043,-0.0053,-0.0021,-31.62,-30.66,-9.24,,adl
11.154364,-0.012,0.0055,0.1364,-0.0043,-0.0053,-0.0021,-31.14,-30.36,-9.06,,adl
11.156097,-0.012,0.0055,0.1364,0.0011,-0.0069,-0.0016,-31.14,-30.36,-9.06,,adl
11.170311,-0.012,0.0055,0.1364,0.0011,-0.0069,-0.0016,-31.14,-30.36,-9.06,,adl
11.171271,-0.0467,0.0153,0.1722,0.0011,-0.0069,-0.0016,-31.14,-30.36,-9.06,,adl
11.173919,-0.0467,0.0153,0.1722,0.0075,0.0021,0.0011,-31.14,-30.36,-9.06,,adl
11.194118,-0.0467,0.0153,0.1722,0.0048,0.0064,0.0021,-31.14,-30.36,-9.06,,adl
11.215305,-0.0467,0.0153,0.1722,0.0048,0.0064,0.0021,-30.96,-30.42,-9.3,,adl
11.216818,-0.0467,0.0153,0.1722,-0.0011,0.0011,0.0016,-30.96,-30.42,-9.3,,adl
11.231943,-0.0467,0.0153,0.1722,-0.0011,0.0011,0.0016,-30.96,-30.42,-9.3,,adl
11.233549,-0.0041,-0.0014,0.1652,-0.0011,0.0011,0.0016,-30.96,-30.42,-9.3,,adl
11.234623,-0.0041,-0.0014,0.1652,-0.0053,-0.0016,0.0021,-30.96,-30.42,-9.3,,adl
11.255529,-0.0041,-0.0014,0.1652,-0.0016,-0.0021,0.0005,-30.96,-30.42,-9.3,,adl
11.276485,-0.0041,-0.0014,0.1652,-0.0016,-0.0021,0.0005,-31.56,-30.48,-9.12,,adl
11.27799,-0.0041,-0.0014,0.1652,-0.0005,-0.0037,-0.0016,-31.56,-30.48,-9.12,,adl
11.293221,-0.0041,-0.0014,0.1652,-0.0005,-0.0037,-0.0016,-31.56,-30.48,-9.12,,adl
11.294817,-0.0247,0.0001,0.1722,-0.0005,-0.0037,-0.0016,-31.56,-30.48,-9.12,,adl
11.298601,-0.0247,0.0001,0.1722,-0.0005,-0.0011,0.0,-31.56,-30.48,-9.12,,adl
11.317827,-0.0247,0.0001,0.1722,0.0011,0.0011,0.0016,-31.56,-30.48,-9.12,,adl
11.338715,-0.0247,0.0001,0.1722,0.0011,0.0011,0.0016,-31.74,-30.66,-9.12,,adl
11.340604,-0.0247,0.0001,0.1722,0.0048,0.0005,-0.0005,-31.74,-30.66,-9.12,,adl
11.354825,-0.0247,0.0001,0.1722,0.0048,0.0005,-0.0005,-31.74,-30.66,-9.12,,adl
11.355957,-0.015,0.0205,0.1387,0.0048,0.0005,-0.0005,-31.74,-30.66,-9.12,,adl
11.360416,-0.015,0.0205,0.1387,0.0021,0.0,-0.0005,-31.74,-30.66,-9.12,,adl
11.379406,-0.015,0.0205,0.1387,-0.0048,-0.0011,0.0005,-31.74,-30.66,-9.12,,adl
11.399666,-0.015,0.0205,0.1387,-0.0048,-0.0011,0.0005,-31.56,-30.72,-9.36,,adl
11.40127,-0.015,0.0205,0.1387,-0.0027,0.0,0.0011,-31.56,-30.72,-9.36,,adl
11.416565,-0.015,0.0205,0.1387,-0.0027,0.0,0.0011,-31.56,-30.72,-9.36,,adl
11.418119,-0.0081,0.0164,0.1722,-0.0027,0.0,0.0011,-31.56,-30.72,-9.36,,adl
11.418956,-0.0081,0.0164,0.1722,-0.0032,-0.0011,0.0,-31.56,-30.72,-9.36,,adl
11.441055,-0.0081,0.0164,0.1722,0.0027,0.0011,-0.0005,-31.56,-30.72,-9.36,,adl
11.460786,-0.0081,0.0164,0.1722,0.0027,0.0011,-0.0005,-31.86,-31.02,-9.18,,adl
11.462237,-0.0081,0.0164,0.1722,0.0011,-0.0011,0.0,-31.86,-31.02,-9.18,,adl
11.479086,-0.0081,0.0164,0.1722,0.0011,-0.0011,0.0,-31.86,-31.02,-9.18,,adl
11.480942,-0.0107,0.0137,0.1554,0.0011,-0.0011,0.0,-31.86,-31.02,-9.18,,adl
11.483389,-0.0107,0.0137,0.1554,0.0016,-0.0021,0.0011,-31.86,-31.02,-9.18,,adl
11.502083,-0.0107,0.0137,0.1554,0.0021,-0.0005,-0.0016,-31.86,-31.02,-9.18,,adl
11.524283,-0.0107,0.0137,0.1554,0.0021,-0.0005,-0.0016,-31.68,-31.38,-9.0,,adl
11.526095,-0.0107,0.0137,0.1554,0.0011,-0.0005,-0.0011,-31.68,-31.38,-9.0,,adl
11.539657,-0.0107,0.0137,0.1554,0.0011,-0.0005,-0.0011,-31.68,-31.38,-9.0,,adl
11.540978,-0.0233,0.0125,0.1578,0.0011,-0.0005,-0.0011,-31.68,-31.38,-9.0,,adl
11.542073,-0.0233,0.0125,0.1578,-0.0011,-0.0005,-0.0005,-31.68,-31.38,-9.0,,adl
11.564094,-0.0233,0.0125,0.1578,-0.0016,0.0005,0.0011,-31.68,-31.38,-9.0,,adl
11.583275,-0.0233,0.0125,0.1578,-0.0005,0.0016,0.0,-31.68,-31.38,-9.0,,adl
11.583755,-0.0233,0.0125,0.1578,-0.0005,0.0016,0.0,-31.38,-31.32,-9.12,,adl
11.600824,-0.0233,0.0125,0.1578,-0.0005,0.0016,0.0,-31.38,-31.32,-9.12,,adl
11.602113,-0.0157,0.0106,0.1602,-0.0005,0.0016,0.0,-31.38,-31.32,-9.12,,adl
11.603374,-0.0157,0.0106,0.1602,0.0011,0.0,0.0005,-31.38,-31.32,-9.12,,adl
11.623784,-0.0157,0.0106,0.1602,0.0048,-0.0005,-0.0011,-31.38,-31.32,-9.12,,adl
11.645644,-0.0157,0.0106,0.1602,0.0048,-0.0005,-0.0011,-31.56,-31.56,-9.12,,adl
11.646521,-0.0157,0.0106,0.1602,-0.0016,0.0027,0.0,-31.56,-31.56,-9.12,,adl
11.661983,-0.0157,0.0106,0.1602,-0.0016,0.0027,0.0,-31.56,-31.56,-9.12,,adl
11.663013,-0.0271,0.0213,0.1603,-0.0016,0.0027,0.0,-31.56,-31.56,-9.12,,adl
11.666075,-0.0271,0.0213,0.1603,-0.0059,0.0021,-0.0011,-31.56,-31.56,-9.12,,adl
11.686431,-0.0271,0.0213,0.1603,-0.0032,-0.0016,-0.0011,-31.56,-31.56,-9.12,,adl
11.707218,-0.0271,0.0213,0.1603,-0.0032,-0.0016,-0.0011,-31.5,-31.68,-9.0,,adl
11.708205,-0.0271,0.0213,0.1603,0.0011,0.0005,-0.0011,-31.5,-31.68,-9.0,,adl
11.723039,-0.0271,0.0213,0.1603,0.0011,0.0005,-0.0011,-31.5,-31.68,-9.0,,adl
11.723541,-0.0219,0.0106,0.1555,0.0011,0.0005,-0.0011,-31.5,-31.68,-9.0,,adl
11.726864,-0.0219,0.0106,0.1555,0.0027,0.0,0.0005,-31.5,-31.68,-9.0,,adl
11.747158,-0.0219,0.0106,0.1555,0.0021,-0.0011,0.0,-31.5,-31.68,-9.0,,adl
11.770449,-0.0219,0.0106,0.1555,0.0021,-0.0011,0.0,-31.2,-31.5,-8.82,,adl
11.772228,-0.0219,0.0106,0.1555,0.0021,-0.0027,-0.0021,-31.2,-31.5,-8.82,,adl
11.785006,-0.0219,0.0106,0.1555,0.0021,-0.0027,-0.0021,-31.2,-31.5,-8.82,,adl
11.786593,-0.0178,0.0045,0.1483,0.0021,-0.0027,-0.0021,-31.2,-31.5,-8.82,,adl
11.78837,-0.0178,0.0045,0.1483,-0.0011,0.0021,-0.0011,-31.2,-31.5,-8.82,,adl
11.809483,-0.0178,0.0045,0.1483,-0.0075,0.0043,0.0,-31.2,-31.5,-8.82,,adl
11.829256,-0.0178,0.0045,0.1483,-0.0075,0.0043,0.0,-31.32,-31.38,-9.36,,adl
11.829965,-0.0178,0.0045,0.1483,-0.0096,-0.0069,0.0005,-31.32,-31.38,-9.36,,adl
11.845575,-0.0178,0.0045,0.1483,-0.0096,-0.0069,0.0005,-31.32,-31.38,-9.36,,adl
11.846049,-0.025,0.0104,0.2057,-0.0096,-0.0069,0.0005,-31.32,-31.38,-9.36,,adl
11.849671,-0.025,0.0104,0.2057,0.0,-0.0085,0.0,-31.32,-31.38,-9.36,,adl
11.869804,-0.025,0.0104,0.2057,0.0085,0.0069,-0.0005,-31.32,-31.38,-9.36,,adl
11.891164,-0.025,0.0104,0.2057,0.0085,0.0069,-0.0005,-31.74,-31.74,-10.2,,adl
11.891636,-0.025,0.0104,0.2057,0.0032,0.0075,-0.0027,-31.74,-31.74,-10.2,,adl
11.907144,-0.025,0.0104,0.2057,0.0032,0.0075,-0.0027,-31.74,-31.74,-10.2,,adl
11.907513,-0.0233,0.0631,0.1412,0.0032,0.0075,-0.0027,-31.74,-31.74,-10.2,,adl
11.910615,-0.0233,0.0631,0.1412,-0.0059,-0.0037,-0.0021,-31.74,-31.74,-10.2,,adl
11.931834,-0.0233,0.0631,0.1412,-0.0059,-0.0032,-0.0032,-31.74,-31.74,-10.2,,adl
11.953262,-0.0233,0.0631,0.1412,-0.0059,-0.0032,-0.0032,-31.5,-31.68,-10.38,,adl
11.953986,-0.0233,0.0631,0.1412,-0.0005,0.0043,-0.0027,-31.5,-31.68,-10.38,,adl
11.969213,-0.0233,0.0631,0.1412,-0.0005,0.0043,-0.0027,-31.5,-31.68,-10.38,,adl
11.970014,-0.0259,-0.0089,0.1484,-0.0005,0.0043,-0.0027,-31.5,-31.68,-10.38,,adl
11.973627,-0.0259,-0.0089,0.1484,0.0,0.0027,-0.0011,-31.5,-31.68,-10.38,,adl
11.993818,-0.0259,-0.0089,0.1484,-0.0048,0.0,0.0011,-31.5,-31.68,-10.38,,adl
12.014603,-0.0259,-0.0089,0.1484,-0.0048,0.0,0.0011,-32.1,-31.8,-10.56,,adl
12.015394,-0.0259,-0.0089,0.1484,-0.0043,-0.0037,0.0027,-32.1,-31.8,-10.56,,adl
12.031255,-0.0259,-0.0089,0.1484,-0.0043,-0.0037,0.0027,-32.1,-31.8,-10.56,,adl
12.032653,0.0002,-0.0239,0.2082,-0.0043,-0.0037,0.0027,-32.1,-31.8,-10.56,,adl
12.034657,0.0002,-0.0239,0.2082,0.0085,-0.0032,0.0016,-32.1,-31.8,-10.56,,adl
12.056221,0.0002,-0.0239,0.2082,0.0144,0.0021,0.0,-32.1,-31.8,-10.56,,adl
12.076979,0.0002,-0.0239,0.2082,0.0144,0.0021,0.0,-31.92,-31.92,-10.02,,adl
12.078312,0.0002,-0.0239,0.2082,0.0048,0.0032,-0.0027,-31.92,-31.92,-10.02,,adl
12.092517,0.0002,-0.0239,0.2082,0.0048,0.0032,-0.0027,-31.92,-31.92,-10.02,,adl
12.093829,-0.0279,0.042,0.1173,0.0048,0.0032,-0.0027,-31.92,-31.92,-10.02,,adl
12.097154,-0.0279,0.042,0.1173,-0.0107,-0.0016,-0.0011,-31.92,-31.92,-10.02,,adl
12.1177,-0.0279,0.042,0.1173,-0.0069,-0.0053,-0.0021,-31.92,-31.92,-10.02,,adl
12.13876,-0.0279,0.042,0.1173,-0.0069,-0.0053,-0.0021,-31.68,-31.68,-9.48,,adl
12.140823,-0.0279,0.042,0.1173,0.0043,0.0011,0.0,-31.68,-31.68,-9.48,,adl
12.155536,-0.0279,0.042,0.1173,0.0043,0.0011,0.0,-31.68,-31.68,-9.48,,adl
12.15686,-0.0241,0.0201,0.1675,0.0043,0.0011,0.0,-31.68,-31.68,-9.48,,adl
12.15768,-0.0241,0.0201,0.1675,0.0043,0.0037,0.0005,-31.68,-31.68,-9.48,,adl
12.179672,-0.0241,0.0201,0.1675,-0.0021,0.0048,-0.0005,-31.68,-31.68,-9.48,,adl
12.200125,-0.0241,0.0201,0.1675,-0.0021,0.0048,-0.0005,-31.8,-31.8,-9.36,,adl
12.201521,-0.0241,0.0201,0.1675,-0.0064,0.0032,-0.0005,-31.8,-31.8,-9.36,,adl
12.215953,-0.0241,0.0201,0.1675,-0.0064,0.0032,-0.0005,-31.8,-31.8,-9.36,,adl
12.217369,-0.0026,-0.0125,0.1749,-0.0064,0.0032,-0.0005,-31.8,-31.8,-9.36,,adl
12.220243,-0.0026,-0.0125,0.1749,-0.0027,-0.0027,-0.0011,-31.8,-31.8,-9.36,,adl
12.240892,-0.0026,-0.0125,0.1749,-0.0005,-0.0021,-0.0021,-31.8,-31.8,-9.36,,adl
12.261737,-0.0026,-0.0125,0.1749,-0.0005,-0.0021,-0.0021,-31.74,-31.62,-9.06,,adl
12.263152,-0.0026,-0.0125,0.1749,0.0048,-0.0027,-0.0005,-31.74,-31.62,-9.06,,adl
12.279954,-0.0026,-0.0125,0.1749,0.0048,-0.0027,-0.0005,-31.74,-31.62,-9.06,,adl
12.281556,-0.016,0.0345,0.1436,0.0048,-0.0027,-0.0005,-31.74,-31.62,-9.06,,adl
12.282622,-0.016,0.0345,0.1436,-0.0016,-0.0011,-0.0005,-31.74,-31.62,-9.06,,adl
12.302728,-0.016,0.0345,0.1436,0.0,0.0027,0.0011,-31.74,-31.62,-9.06,,adl
12.32344,-0.016,0.0345,0.1436,0.0,0.0027,0.0011,-31.26,-31.44,-9.12,,adl
12.325179,-0.016,0.0345,0.1436,-0.0016,0.0016,0.0,-31.26,-31.44,-9.12,,adl
12.340049,-0.016,0.0345,0.1436,-0.0016,0.0016,0.0,-31.26,-31.44,-9.12,,adl
12.341189,-0.0012,0.0132,0.1628,-0.0016,0.0016,0.0,-31.26,-31.44,-9.12,,adl
12.344768,-0.0012,0.0132,0.1628,0.0021,-0.0016,0.0005,-31.26,-31.44,-9.12,,adl
12.363793,-0.0012,0.0132,0.1628,0.0005,0.0,-0.0011,-31.26,-31.44,-9.12,,adl
12.384652,-0.0012,0.0132,0.1628,0.0005,0.0,-0.0011,-31.14,-31.08,-8.58,,adl
12.38615,-0.0012,0.0132,0.1628,-0.0048,-0.0011,-0.0016,-31.14,-31.08,-8.58,,adl
12.401817,-0.0012,0.0132,0.1628,-0.0048,-0.0011,-0.0016,-31.14,-31.08,-8.58,,adl
12.403297,-0.0233,0.0041,0.1963,-0.0048,-0.0011,-0.0016,-31.14,-31.08,-8.58,,adl
12.404638,-0.0233,0.0041,0.1963,-0.0064,0.0011,-0.0021,-31.14,-31.08,-8.58,,adl
12.425597,-0.0233,0.0041,0.1963,0.0005,0.0011,-0.0011,-31.14,-31.08,-8.58,,adl
12.445732,-0.0233,0.0041,0.1963,0.0005,0.0011,-0.0011,-31.38,-30.9,-8.46,,adl
12.447205,-0.0233,0.0041,0.1963,0.0027,0.0011,-0.0005,-31.38,-30.9,-8.46,,adl
12.462879,-0.0233,0.0041,0.1963,0.0027,0.0011,-0.0005,-31.38,-30.9,-8.46,,adl
12.464685,-0.0202,0.0165,0.1509,0.0027,0.0011,-0.0005,-31.38,-30.9,-8.46,,adl
12.465836,-0.0202,0.0165,0.1509,-0.0016,-0.0016,0.0005,-31.38,-30.9,-8.46,,adl
12.486688,-0.0202,0.0165,0.1509,-0.0032,-0.0016,0.0021,-31.38,-30.9,-8.46,,adl
12.508963,-0.0202,0.0165,0.1509,-0.0032,-0.0016,0.0021,-30.9,-30.84,-9.0,,adl
12.510606,-0.0202,0.0165,0.1509,0.0,0.0032,0.0011,-30.9,-30.84,-9.0,,adl
12.524793,-0.0202,0.0165,0.1509,0.0,0.0032,0.0011,-30.9,-30.84,-9.0,,adl
12.525987,0.0036,-0.0018,0.1724,0.0,0.0032,0.0011,-30.9,-30.84,-9.0,,adl
12.526975,0.0036,-0.0018,0.1724,-0.0027,0.0027,0.0005,-30.9,-30.84,-9.0,,adl
12.55056,0.0036,-0.0018,0.1724,-0.0011,-0.0032,0.0005,-30.9,-30.84,-9.0,,adl
12.5699,0.0036,-0.0018,0.1724,-0.0011,-0.0032,0.0005,-31.68,-30.96,-8.94,,adl
12.571499,0.0036,-0.0018,0.1724,0.0027,-0.0027,0.0005,-31.68,-30.96,-8.94,,adl
12.586526,0.0036,-0.0018,0.1724,0.0027,-0.0027,0.0005,-31.68,-30.96,-8.94,,adl
12.588177,-0.0091,0.0197,0.1628,0.0027,-0.0027,0.0005,-31.68,-30.96,-8.94,,adl
12.591774,-0.0091,0.0197,0.1628,0.0037,0.0037,0.0021,-31.68,-30.96,-8.94,,adl
12.610604,-0.0091,0.0197,0.1628,-0.0011,0.0037,0.0016,-31.68,-30.96,-8.94,,adl
12.631816,-0.0091,0.0197,0.1628,-0.0011,0.0037,0.0016,-31.56,-30.9,-8.94,,adl
12.633464,-0.0091,0.0197,0.1628,-0.0011,-0.0027,-0.0011,-31.56,-30.9,-8.94,,adl
12.647027,-0.0091,0.0197,0.1628,-0.0011,-0.0027,-0.0011,-31.56,-30.9,-8.94,,adl
12.648734,-0.0389,0.0373,0.1749,-0.0011,-0.0027,-0.0011,-31.56,-30.9,-8.94,,adl
12.650558,-0.0389,0.0373,0.1749,0.0,-0.0059,0.0,-31.56,-30.9,-8.94,,adl
12.671792,-0.0389,0.0373,0.1749,-0.0032,0.0075,-0.0011,-31.56,-30.9,-8.94,,adl
12.6929,-0.0389,0.0373,0.1749,-0.0032,0.0075,-0.0011,-31.44,-30.84,-8.76,,adl
12.694341,-0.0389,0.0373,0.1749,-0.0101,0.0096,-0.0016,-31.44,-30.84,-8.76,,adl
12.709603,-0.0389,0.0373,0.1749,-0.0101,0.0096,-0.0016,-31.44,-30.84,-8.76,,adl
12.711073,-0.0079,-0.0198,0.1942,-0.0101,0.0096,-0.0016,-31.44,-30.84,-8.76,,adl
12.712679,-0.0079,-0.0198,0.1942,-0.0112,-0.0048,0.0011,-31.44,-30.84,-8.76,,adl
12.732548,-0.0079,-0.0198,0.1942,0.0027,-0.0075,0.0011,-31.44,-30.84,-8.76,,adl
12.755161,-0.0079,-0.0198,0.1942,0.0027,-0.0075,0.0011,-31.62,-31.02,-8.22,,adl
12.756891,-0.0079,-0.0198,0.1942,0.0085,0.0069,0.0005,-31.62,-31.02,-8.22,,adl
12.770706,-0.0079,-0.0198,0.1942,0.0085,0.0069,0.0005,-31.62,-31.02,-8.22,,adl
12.771762,-0.0114,0.0184,0.1342,0.0085,0.0069,0.0005,-31.62,-31.02,-8.22,,adl
12.775841,-0.0114,0.0184,0.1342,-0.0021,0.0048,-0.0011,-31.62,-31.02,-8.22,,adl
12.794913,-0.0114,0.0184,0.1342,-0.0064,-0.0027,-0.0005,-31.62,-31.02,-8.22,,adl
12.816238,-0.0114,0.0184,0.1342,-0.0064,-0.0027,-0.0005,-31.68,-30.96,-8.16,,adl
12.817943,-0.0114,0.0184,0.1342,0.0,-0.0016,-0.0011,-31.68,-30.96,-8.16,,adl
12.832001,-0.0114,0.0184,0.1342,0.0,-0.0016,-0.0011,-31.68,-30.96,-8.16,,adl
12.833514,-0.0184,0.0519,0.1606,0.0,-0.0016,-0.0011,-31.68,-30.96,-8.16,,adl
12.836041,-0.0184,0.0519,0.1606,0.0064,0.0021,-0.0005,-31.68,-30.96,-8.16,,adl
12.8574,-0.0184,0.0519,0.1606,0.0011,0.0021,0.0011,-31.68,-30.96,-8.16,,adl
12.877725,-0.0184,0.0519,0.1606,0.0011,0.0021,0.0011,-32.28,-31.32,-8.76,,adl
12.879264,-0.0184,0.0519,0.1606,-0.0059,0.0048,0.0016,-32.28,-31.32,-8.76,,adl
12.893979,-0.0184,0.0519,0.1606,-0.0059,0.0048,0.0016,-32.28,-31.32,-8.76,,adl
12.895499,-0.0047,0.0009,0.1847,-0.0059,0.0048,0.0016,-32.28,-31.32,-8.76,,adl
12.89697,-0.0047,0.0009,0.1847,-0.0048,0.0016,-0.0005,-32.28,-31.32,-8.76,,adl
12.918435,-0.0047,0.0009,0.1847,0.0032,-0.0064,-0.0016,-32.28,-31.32,-8.76,,adl
12.93907,-0.0047,0.0009,0.1847,0.0032,-0.0064,-0.0016,-32.28,-31.26,-8.64,,adl
12.940935,-0.0047,0.0009,0.1847,0.0059,-0.0016,-0.0011,-32.28,-31.26,-8.64,,adl
12.956016,-0.0047,0.0009,0.1847,0.0059,-0.0016,-0.0011,-32.28,-31.26,-8.64,,adl
12.957121,-0.0108,-0.0094,0.1247,0.0059,-0.0016,-0.0011,-32.28,-31.26,-8.64,,adl
12.958112,-0.0108,-0.0094,0.1247,0.0005,0.0059,-0.0005,-32.28,-31.26,-8.64,,adl
12.979477,-0.0108,-0.0094,0.1247,-0.0043,0.0037,0.0005,-32.28,-31.26,-8.64,,adl
13.001085,-0.0108,-0.0094,0.1247,-0.0043,0.0037,0.0005,-32.16,-31.26,-9.12,,adl
13.002725,-0.0108,-0.0094,0.1247,-0.0005,-0.008,-0.0011,-32.16,-31.26,-9.12,,adl
13.016965,-0.0108,-0.0094,0.1247,-0.0005,-0.008,-0.0011,-32.16,-31.26,-9.12,,adl
13.018549,-0.0177,0.034,0.1942,-0.0005,-0.008,-0.0011,-32.16,-31.26,-9.12,,adl
13.01968,-0.0177,0.034,0.1942,0.0048,-0.0059,-0.0016,-32.16,-31.26,-9.12,,adl
13.039819,-0.0177,0.034,0.1942,0.0064,0.0048,0.0011,-32.16,-31.26,-9.12,,adl
13.06133,-0.0177,0.034,0.1942,0.0064,0.0048,0.0011,-32.04,-31.44,-9.36,,adl
13.062784,-0.0177,0.034,0.1942,-0.0048,0.0064,0.0005,-32.04,-31.44,-9.36,,adl
13.078214,-0.0177,0.034,0.1942,-0.0048,0.0064,0.0005,-32.04,-31.44,-9.36,,adl
13.07966,-0.0072,0.0202,0.1464,-0.0048,0.0064,0.0005,-32.04,-31.44,-9.36,,adl
13.08149,-0.0072,0.0202,0.1464,-0.0107,0.0005,0.0032,-32.04,-31.44,-9.36,,adl
13.101448,-0.0072,0.0202,0.1464,-0.0048,-0.0043,0.0016,-32.04,-31.44,-9.36,,adl
13.124027,-0.0072,0.0202,0.1464,-0.0048,-0.0043,0.0016,-31.92,-31.5,-8.82,,adl
13.125648,-0.0072,0.0202,0.1464,0.0021,-0.0016,-0.0005,-31.92,-31.5,-8.82,,adl
13.140164,-0.0072,0.0202,0.1464,0.0021,-0.0016,-0.0005,-31.92,-31.5,-8.82,,adl
13.141202,0.0149,0.0172,0.163,0.0021,-0.0016,-0.0005,-31.92,-31.5,-8.82,,adl
13.142267,0.0149,0.0172,0.163,0.008,0.0032,-0.0043,-31.92,-31.5,-8.82,,adl
13.164733,0.0149,0.0172,0.163,0.0043,0.0005,-0.0027,-31.92,-31.5,-8.82,,adl
13.185727,0.0149,0.0172,0.163,0.0043,0.0005,-0.0027,-31.62,-31.44,-9.3,,adl
13.187312,0.0149,0.0172,0.163,-0.0021,-0.0048,0.0,-31.62,-31.44,-9.3,,adl
13.201902,0.0149,0.0172,0.163,-0.0021,-0.0048,0.0,-31.62,-31.44,-9.3,,adl
13.203617,-0.0308,0.015,0.1582,-0.0021,-0.0048,0.0,-31.62,-31.44,-9.3,,adl
13.204875,-0.0308,0.015,0.1582,-0.0043,0.0,0.0005,-31.62,-31.44,-9.3,,adl
13.225109,-0.0308,0.015,0.1582,-0.0037,0.0037,0.0027,-31.62,-31.44,-9.3,,adl
13.247459,-0.0308,0.015,0.1582,-0.0037,0.0037,0.0027,-31.56,-31.2,-9.3,,adl
13.249245,-0.0308,0.015,0.1582,-0.0016,0.0011,0.0005,-31.56,-31.2,-9.3,,adl
13.263287,-0.0308,0.015,0.1582,-0.0016,0.0011,0.0005,-31.56,-31.2,-9.3,,adl
13.264973,-0.0131,0.0094,0.1846,-0.0016,0.0011,0.0005,-31.56,-31.2,-9.3,,adl
13.266082,-0.0131,0.0094,0.1846,0.0043,-0.0016,0.0,-31.56,-31.2,-9.3,,adl
13.286802,-0.0131,0.0094,0.1846,0.0048,-0.0016,-0.0027,-31.56,-31.2,-9.3,,adl
13.308227,-0.0131,0.0094,0.1846,0.0048,-0.0016,-0.0027,-31.14,-30.72,-8.82,,adl
13.309914,-0.0131,0.0094,0.1846,0.0016,0.0027,-0.0016,-31.14,-30.72,-8.82,,adl
13.32639,-0.0131,0.0094,0.1846,0.0016,0.0027,-0.0016,-31.14,-30.72,-8.82,,adl
13.327823,-0.0108,0.0143,0.12,0.0016,0.0027,-0.0016,-31.14,-30.72,-8.82,,adl
13.328863,-0.0108,0.0143,0.12,-0.0037,0.0032,-0.0016,-31.14,-30.72,-8.82,,adl
13.348579,-0.0108,0.0143,0.12,-0.0064,-0.0011,0.0,-31.14,-30.72,-8.82,,adl
13.370654,-0.0108,0.0143,0.12,-0.0064,-0.0011,0.0,-30.84,-30.48,-9.0,,adl
13.372822,-0.0108,0.0143,0.12,-0.0064,-0.0016,0.0011,-30.84,-30.48,-9.0,,adl
13.38648,-0.0108,0.0143,0.12,-0.0064,-0.0016,0.0011,-30.84,-30.48,-9.0,,adl
13.388168,-0.0107,-0.0015,0.187,-0.0064,-0.0016,0.0011,-30.84,-30.48,-9.0,,adl
13.389074,-0.0107,-0.0015,0.187,0.0005,0.0016,-0.0005,-30.84,-30.48,-9.0,,adl
13.41076,-0.0107,-0.0015,0.187,0.0048,0.0021,0.0,-30.84,-30.48,-9.0,,adl
13.432057,-0.0107,-0.0015,0.187,0.0048,0.0021,0.0,-31.08,-30.36,-8.58,,adl
13.433542,-0.0107,-0.0015,0.187,0.0048,-0.0005,0.0011,-31.08,-30.36,-8.58,,adl
13.447221,-0.0107,-0.0015,0.187,0.0048,-0.0005,0.0011,-31.08,-30.36,-8.58,,adl
13.448694,-0.0149,0.0225,0.1224,0.0048,-0.0005,0.0011,-31.08,-30.36,-8.58,,adl
13.45134,-0.0149,0.0225,0.1224,0.0021,0.0,-0.0005,-31.08,-30.36,-8.58,,adl
13.472031,-0.0149,0.0225,0.1224,-0.0032,0.0011,0.0021,-31.08,-30.36,-8.58,,adl
13.49331,-0.0149,0.0225,0.1224,-0.0032,0.0011,0.0021,-31.14,-30.42,-8.7,,adl
13.494763,-0.0149,0.0225,0.1224,-0.0032,0.0037,-0.0005,-31.14,-30.42,-8.7,,adl
13.509449,-0.0149,0.0225,0.1224,-0.0032,0.0037,-0.0005,-31.14,-30.42,-8.7,,adl
13.510855,0.0069,0.041,0.1703,-0.0032,0.0037,-0.0005,-31.14,-30.42,-8.7,,adl
13.512142,0.0069,0.041,0.1703,0.0027,0.0011,-0.0032,-31.14,-30.42,-8.7,,adl
13.534306,0.0069,0.041,0.1703,-0.0021,-0.0037,-0.0059,-31.14,-30.42,-8.7,,adl
13.554078,0.0069,0.041,0.1703,-0.0021,-0.0037,-0.0059,-31.26,-30.9,-8.64,,adl
13.555468,0.0069,0.041,0.1703,-0.0021,-0.0053,-0.0091,-31.26,-30.9,-8.64,,adl
13.569782,0.0069,0.041,0.1703,-0.0021,-0.0053,-0.0091,-31.26,-30.9,-8.64,,adl
13.571118,-0.0327,0.0145,0.1175,-0.0021,-0.0053,-0.0091,-31.26,-30.9,-8.64,,adl
13.574819,-0.0327,0.0145,0.1175,-0.0021,0.017,-0.0112,-31.26,-30.9,-8.64,,adl
13.595438,-0.0327,0.0145,0.1175,-0.0218,0.0021,-0.0043,-31.26,-30.9,-8.64,,adl
13.615956,-0.0327,0.0145,0.1175,-0.0218,0.0021,-0.0043,-31.86,-31.08,-8.76,,adl
13.617506,-0.0327,0.0145,0.1175,-0.0144,-0.0176,0.0016,-31.86,-31.08,-8.76,,adl
13.632489,-0.0327,0.0145,0.1175,-0.0144,-0.0176,0.0016,-31.86,-31.08,-8.76,,adl
13.633923,-0.1003,-0.016,0.302,-0.0144,-0.0176,0.0016,-31.86,-31.08,-8.76,,adl
13.634867,-0.1003,-0.016,0.302,0.017,-0.0176,0.0064,-31.86,-31.08,-8.76,,adl
13.657243,-0.1003,-0.016,0.302,0.0266,0.0048,0.0107,-31.86,-31.08,-8.76,,adl
13.677472,-0.1003,-0.016,0.302,0.0266,0.0048,0.0107,-31.98,-31.2,-9.06,,adl
13.678898,-0.1003,-0.016,0.302,-0.0048,0.0176,0.0091,-31.98,-31.2,-9.06,,adl
13.693639,-0.1003,-0.016,0.302,-0.0048,0.0176,0.0091,-31.98,-31.2,-9.06,,adl
13.695019,0.0039,0.0518,0.046,-0.0048,0.0176,0.0091,-31.98,-31.2,-9.06,,adl
13.697877,0.0039,0.0518,0.046,-0.0341,0.0154,0.0043,-31.98,-31.2,-9.06,,adl
13.718197,0.0039,0.0518,0.046,-0.0154,0.0138,-0.0101,-31.98,-31.2,-9.06,,adl
13.73911,0.0039,0.0518,0.046,-0.0154,0.0138,-0.0101,-31.68,-31.2,-9.12,,adl
13.740894,0.0039,0.0518,0.046,0.0069,-0.0224,-0.0138,-31.68,-31.2,-9.12,,adl
13.75513,0.0039,0.0518,0.046,0.0069,-0.0224,-0.0138,-31.68,-31.2,-9.12,,adl
13.756135,-0.0162,-0.0112,0.2017,0.0069,-0.0224,-0.0138,-31.68,-31.2,-9.12,,adl
13.75919,-0.0162,-0.0112,0.2017,0.0101,-0.0453,-0.0048,-31.68,-31.2,-9.12,,adl
13.780411,-0.0162,-0.0112,0.2017,-0.0011,0.0101,0.0032,-31.68,-31.2,-9.12,,adl
13.800366,-0.0162,-0.0112,0.2017,-0.0011,0.0101,0.0032,-31.86,-31.14,-9.48,,adl
13.80176,-0.0162,-0.0112,0.2017,0.0059,0.0522,0.0075,-31.86,-31.14,-9.48,,adl
13.817121,-0.0162,-0.0112,0.2017,0.0059,0.0522,0.0075,-31.86,-31.14,-9.48,,adl
13.818742,-0.0366,0.0262,0.2164,0.0059,0.0522,0.0075,-31.86,-31.14,-9.48,,adl
13.820049,-0.0366,0.0262,0.2164,0.0112,0.016,0.0043,-31.86,-31.14,-9.48,,adl
13.841666,-0.0366,0.0262,0.2164,-0.0016,-0.0357,-0.0016,-31.86,-31.14,-9.48,,adl
13.862649,-0.0366,0.0262,0.2164,-0.0016,-0.0357,-0.0016,-31.38,-31.14,-9.54,,adl
13.864272,-0.0366,0.0262,0.2164,-0.0181,-0.0218,-0.0021,-31.38,-31.14,-9.54,,adl
13.878787,-0.0366,0.0262,0.2164,-0.0181,-0.0218,-0.0021,-31.38,-31.14,-9.54,,adl
13.880852,0.0077,0.0086,0.1845,-0.0181,-0.0218,-0.0021,-31.38,-31.14,-9.54,,adl
13.88194,0.0077,0.0086,0.1845,-0.0075,0.0133,-0.0021,-31.38,-31.14,-9.54,,adl
13.903412,0.0077,0.0086,0.1845,0.016,0.0192,0.0,-31.38,-31.14,-9.54,,adl
13.924172,0.0077,0.0086,0.1845,0.016,0.0192,0.0,-31.2,-31.26,-9.12,,adl
13.925779,0.0077,0.0086,0.1845,0.0107,0.0005,0.0027,-31.2,-31.26,-9.12,,adl
13.940137,0.0077,0.0086,0.1845,0.0107,0.0005,0.0027,-31.2,-31.26,-9.12,,adl
13.941088,-0.0192,0.0166,0.087,0.0107,0.0005,0.0027,-31.2,-31.26,-9.12,,adl
13.945162,-0.0192,0.0166,0.087,-0.0075,-0.0059,0.0016,-31.2,-31.26,-9.12,,adl
13.963661,-0.0192,0.0166,0.087,-0.0133,-0.0064,0.0,-31.2,-31.26,-9.12,,adl
13.985948,-0.0192,0.0166,0.087,-0.0133,-0.0064,0.0,-31.32,-31.02,-8.76,,adl
13.987425,-0.0192,0.0166,0.087,0.0027,0.0,-0.0027,-31.32,-31.02,-8.76,,adl
14.00192,-0.0192,0.0166,0.087,0.0027,0.0,-0.0027,-31.32,-31.02,-8.76,,adl
14.00302,0.009,0.0242,0.1705,0.0027,0.0,-0.0027,-31.32,-31.02,-8.76,,adl
14.004153,0.009,0.0242,0.1705,0.0107,0.0021,-0.0032,-31.32,-31.02,-8.76,,adl
14.025952,0.009,0.0242,0.1705,-0.0032,0.0005,-0.0005,-31.32,-31.02,-8.76,,adl
14.047095,0.009,0.0242,0.1705,-0.0032,0.0005,-0.0005,-31.56,-31.02,-8.46,,adl
14.048876,0.009,0.0242,0.1705,-0.0101,0.0005,0.0027,-31.56,-31.02,-8.46,,adl
14.062872,0.009,0.0242,0.1705,-0.0101,0.0005,0.0027,-31.56,-31.02,-8.46,,adl
14.06447,-0.0097,-0.0254,0.2064,-0.0101,0.0005,0.0027,-31.56,-31.02,-8.46,,adl
14.066965,-0.0097,-0.0254,0.2064,0.0016,0.0021,0.0021,-31.56,-31.02,-8.46,,adl
14.087592,-0.0097,-0.0254,0.2064,0.0069,-0.0005,0.0005,-31.56,-31.02,-8.46,,adl
14.108875,-0.0097,-0.0254,0.2064,0.0069,-0.0005,0.0005,-31.56,-30.48,-7.98,,adl
14.110538,-0.0097,-0.0254,0.2064,0.008,-0.0037,-0.0027,-31.56,-30.48,-7.98,,adl
14.125556,-0.0097,-0.0254,0.2064,0.008,-0.0037,-0.0027,-31.56,-30.48,-7.98,,adl
14.126871,-0.0197,0.0285,0.113,0.008,-0.0037,-0.0027,-31.56,-30.48,-7.98,,adl
14.128042,-0.0197,0.0285,0.113,-0.0027,-0.0005,-0.0021,-31.56,-30.48,-7.98,,adl
14.149443,-0.0197,0.0285,0.113,-0.0085,-0.0027,-0.0005,-31.56,-30.48,-7.98,,adl
14.170472,-0.0197,0.0285,0.113,-0.0085,-0.0027,-0.0005,-31.68,-30.42,-7.86,,adl
14.172326,-0.0197,0.0285,0.113,-0.0059,-0.0005,0.0,-31.68,-30.42,-7.86,,adl
14.186767,-0.0197,0.0285,0.113,-0.0059,-0.0005,0.0,-31.68,-30.42,-7.86,,adl
14.188549,-0.0038,0.0102,0.1919,-0.0059,-0.0005,0.0,-31.68,-30.42,-7.86,,adl
14.18965,-0.0038,0.0102,0.1919,-0.0021,0.0037,-0.0011,-31.68,-30.42,-7.86,,adl
14.210486,-0.0038,0.0102,0.1919,0.0016,0.0016,0.0,-31.68,-30.42,-7.86,,adl
14.232689,-0.0038,0.0102,0.1919,0.0016,0.0016,0.0,-31.98,-30.66,-7.92,,adl
14.234153,-0.0038,0.0102,0.1919,0.0027,0.0005,-0.0005,-31.98,-30.66,-7.92,,adl
14.248449,-0.0038,0.0102,0.1919,0.0027,0.0005,-0.0005,-31.98,-30.66,-7.92,,adl
14.250037,-0.0007,0.0258,0.1537,0.0027,0.0005,-0.0005,-31.98,-30.66,-7.92,,adl
14.251097,-0.0007,0.0258,0.1537,-0.0011,-0.0053,0.0,-31.98,-30.66,-7.92,,adl
14.272325,-0.0007,0.0258,0.1537,-0.0032,-0.0027,-0.0021,-31.98,-30.66,-7.92,,adl
14.29283,-0.0007,0.0258,0.1537,-0.0032,-0.0027,-0.0021,-31.8,-30.78,-8.22,,adl
14.294224,-0.0007,0.0258,0.1537,0.0075,0.0048,-0.0016,-31.8,-30.78,-8.22,,adl
14.309866,-0.0007,0.0258,0.1537,0.0075,0.0048,-0.0016,-31.8,-30.78,-8.22,,adl
14.311304,0.0031,-0.0083,0.1608,0.0075,0.0048,-0.0016,-31.8,-30.78,-8.22,,adl
14.312278,0.0031,-0.0083,0.1608,0.0224,0.0085,-0.0037,-31.8,-30.78,-8.22,,adl
14.333962,0.0031,-0.0083,0.1608,0.0165,0.0011,-0.0053,-31.8,-30.78,-8.22,,adl
14.355368,0.0031,-0.0083,0.1608,0.0165,0.0011,-0.0053,-31.8,-31.38,-8.46,,adl
14.357285,0.0031,-0.0083,0.1608,-0.0123,-0.008,-0.0032,-31.8,-31.38,-8.46,,adl
14.37079,0.0031,-0.0083,0.1608,-0.0123,-0.008,-0.0032,-31.8,-31.38,-8.46,,adl
14.371747,-0.0206,-0.0252,0.2447,-0.0123,-0.008,-0.0032,-31.8,-31.38,-8.46,,adl
14.375777,-0.0206,-0.0252,0.2447,-0.0181,-0.0197,-0.0059,-31.8,-31.38,-8.46,,adl
14.395647,-0.0206,-0.0252,0.2447,0.0123,-0.0085,-0.0059,-31.8,-31.38,-8.46,,adl
14.416623,-0.0206,-0.0252,0.2447,0.0123,-0.0085,-0.0059,-31.92,-31.56,-8.58,,adl
14.418152,-0.0206,-0.0252,0.2447,0.0266,0.0123,0.0005,-31.92,-31.56,-8.58,,adl
14.432802,-0.0206,-0.0252,0.2447,0.0266,0.0123,0.0005,-31.92,-31.56,-8.58,,adl
14.434289,-0.0328,0.0915,0.0122,0.0266,0.0123,0.0005,-31.92,-31.56,-8.58,,adl
14.435355,-0.0328,0.0915,0.0122,0.0037,0.0138,0.0037,-31.92,-31.56,-8.58,,adl
14.457781,-0.0328,0.0915,0.0122,-0.0309,0.0107,0.0053,-31.92,-31.56,-8.58,,adl
14.478179,-0.0328,0.0915,0.0122,-0.0309,0.0107,0.0053,-31.68,-31.62,-8.22,,adl
14.479812,-0.0328,0.0915,0.0122,-0.0304,-0.0027,0.0016,-31.68,-31.62,-8.22,,adl
14.493804,-0.0328,0.0915,0.0122,-0.0304,-0.0027,0.0016,-31.68,-31.62,-8.22,,adl
14.495304,0.054,-0.055,0.3356,-0.0304,-0.0027,0.0016,-31.68,-31.62,-8.22,,adl
14.49706,0.054,-0.055,0.3356,-0.0005,-0.0202,-0.0037,-31.68,-31.62,-8.22,,adl
14.518613,0.054,-0.055,0.3356,0.0234,-0.0085,-0.0016,-31.68,-31.62,-8.22,,adl
14.539777,0.054,-0.055,0.3356,0.0234,-0.0085,-0.0016,-31.44,-31.68,-7.68,,adl
14.541709,0.054,-0.055,0.3356,0.0138,0.0218,0.0016,-31.44,-31.68,-7.68,,adl
14.556287,0.054,-0.055,0.3356,0.0138,0.0218,0.0016,-31.44,-31.68,-7.68,,adl
14.557265,-0.0289,0.0523,0.0722,0.0138,0.0218,0.0016,-31.44,-31.68,-7.68,,adl
14.561059,-0.0289,0.0523,0.0722,-0.0123,0.0213,-0.0021,-31.44,-31.68,-7.68,,adl
14.579593,-0.0289,0.0523,0.0722,-0.0165,-0.0144,-0.0005,-31.44,-31.68,-7.68,,adl
14.601353,-0.0289,0.0523,0.0722,-0.0165,-0.0144,-0.0005,-31.5,-31.2,-7.86,,adl
14.603167,-0.0289,0.0523,0.0722,-0.0037,-0.0245,-0.0016,-31.5,-31.2,-7.86,,adl
14.616696,-0.0289,0.0523,0.0722,-0.0037,-0.0245,-0.0016,-31.5,-31.2,-7.86,,adl
14.618092,-0.018,0.0224,0.1532,-0.0037,-0.0245,-0.0016,-31.5,-31.2,-7.86,,adl
14.620564,-0.018,0.0224,0.1532,0.0091,0.0043,0.0032,-31.5,-31.2,-7.86,,adl
14.642793,-0.018,0.0224,0.1532,0.0048,0.0186,0.0043,-31.5,-31.2,-7.86,,adl
14.662931,-0.018,0.0224,0.1532,0.0048,0.0186,0.0043,-31.68,-31.32,-7.86,,adl
14.664698,-0.018,0.0224,0.1532,-0.0107,0.0091,0.0048,-31.68,-31.32,-7.86,,adl
14.679432,-0.018,0.0224,0.1532,-0.0107,0.0091,0.0048,-31.68,-31.32,-7.86,,adl
14.681106,0.0097,-0.0096,0.2089,-0.0107,0.0091,0.0048,-31.68,-31.32,-7.86,,adl
14.683668,0.0097,-0.0096,0.2089,-0.0101,-0.0085,0.0037,-31.68,-31.32,-7.86,,adl
14.703123,0.0097,-0.0096,0.2089,0.0027,-0.0075,-0.0011,-31.68,-31.32,-7.86,,adl
14.724053,0.0097,-0.0096,0.2089,0.0027,-0.0075,-0.0011,-31.5,-30.84,-8.1,,adl
14.72546,0.0097,-0.0096,0.2089,0.0107,0.0043,-0.0037,-31.5,-30.84,-8.1,,adl
14.740121,0.0097,-0.0096,0.2089,0.0107,0.0043,-0.0037,-31.5,-30.84,-8.1,,adl
14.741015,0.0228,-0.0147,0.1487,0.0107,0.0043,-0.0037,-31.5,-30.84,-8.1,,adl
14.745168,0.0228,-0.0147,0.1487,0.0027,0.008,-0.0064,-31.5,-30.84,-8.1,,adl
14.765195,0.0228,-0.0147,0.1487,-0.008,-0.0064,-0.0101,-31.5,-30.84,-8.1,,adl
14.784682,0.0228,-0.0147,0.1487,-0.008,-0.0064,-0.0101,-32.1,-30.9,-8.52,,adl
14.785799,0.0228,-0.0147,0.1487,-0.0123,-0.0224,-0.0138,-32.1,-30.9,-8.52,,adl
14.802413,0.0228,-0.0147,0.1487,-0.0123,-0.0224,-0.0138,-32.1,-30.9,-8.52,,adl
14.803846,-0.0926,0.0483,0.1388,-0.0123,-0.0224,-0.0138,-32.1,-30.9,-8.52,,adl
14.804987,-0.0926,0.0483,0.1388,-0.0123,-0.0202,-0.0154,-32.1,-30.9,-8.52,,adl
14.826466,-0.0926,0.0483,0.1388,0.0011,0.0048,-0.0096,-32.1,-30.9,-8.52,,adl
14.848018,-0.0926,0.0483,0.1388,0.0011,0.0048,-0.0096,-32.1,-31.2,-8.7,,adl
14.849473,-0.0926,0.0483,0.1388,0.0154,0.024,0.0053,-32.1,-31.2,-8.7,,adl
14.863772,-0.0926,0.0483,0.1388,0.0154,0.024,0.0053,-32.1,-31.2,-8.7,,adl
14.865419,0.0933,0.0873,0.0837,0.0154,0.024,0.0053,-32.1,-31.2,-8.7,,adl
14.866496,0.0933,0.0873,0.0837,-0.0048,0.0266,0.017,-32.1,-31.2,-8.7,,adl
14.888365,0.0933,0.0873,0.0837,-0.0474,0.0011,0.0117,-32.1,-31.2,-8.7,,adl
14.908909,0.0933,0.0873,0.0837,-0.0474,0.0011,0.0117,-31.56,-31.26,-9.48,,adl
14.910912,0.0933,0.0873,0.0837,-0.0426,-0.0272,0.0,-31.56,-31.26,-9.48,,adl
14.92654,0.0933,0.0873,0.0837,-0.0426,-0.0272,0.0,-31.56,-31.26,-9.48,,adl
14.928342,0.0066,-0.2183,0.3802,-0.0426,-0.0272,0.0,-31.56,-31.26,-9.48,,adl
14.929626,0.0066,-0.2183,0.3802,0.0123,-0.0256,-0.0123,-31.56,-31.26,-9.48,,adl
14.949454,0.0066,-0.2183,0.3802,0.0506,0.0011,-0.0186,-31.56,-31.26,-9.48,,adl
14.970402,0.0066,-0.2183,0.3802,0.0506,0.0011,-0.0186,-31.86,-31.56,-9.24,,adl
14.972249,0.0066,-0.2183,0.3802,0.0208,0.0016,-0.0213,-31.86,-31.56,-9.24,,adl
14.986876,0.0066,-0.2183,0.3802,0.0208,0.0016,-0.0213,-31.86,-31.56,-9.24,,adl
14.988804,-0.111,0.1101,-0.0294,0.0208,0.0016,-0.0213,-31.86,-31.56,-9.24,,adl
14.989748,-0.111,0.1101,-0.0294,-0.0261,0.0016,-0.0123,-31.86,-31.56,-9.24,,adl
15.011487,-0.111,0.1101,-0.0294,-0.0192,-0.0037,0.0059,-31.86,-31.56,-9.24,,adl
15.031703,-0.111,0.1101,-0.0294,-0.0192,-0.0037,0.0059,-31.5,-31.26,-9.36,,adl
15.033301,-0.111,0.1101,-0.0294,0.0218,0.0011,0.0213,-31.5,-31.26,-9.36,,adl
15.04887,-0.111,0.1101,-0.0294,0.0218,0.0011,0.0213,-31.5,-31.26,-9.36,,adl
15.050438,0.1097,0.1671,0.0732,0.0218,0.0011,0.0213,-31.5,-31.26,-9.36,,adl
15.05152,0.1097,0.1671,0.0732,0.0053,0.0309,0.0218,-31.5,-31.26,-9.36,,adl
15.072751,0.1097,0.1671,0.0732,-0.0405,0.0309,0.0112,-31.5,-31.26,-9.36,,adl
15.093721,0.1097,0.1671,0.0732,-0.0405,0.0309,0.0112,-31.08,-31.02,-9.0,,adl
15.095261,0.1097,0.1671,0.0732,-0.0511,-0.0117,-0.008,-31.08,-31.02,-9.0,,adl
15.110615,0.1097,0.1671,0.0732,-0.0511,-0.0117,-0.008,-31.08,-31.02,-9.0,,adl
15.112319,-0.049,-0.2419,0.4378,-0.0511,-0.0117,-0.008,-31.08,-31.02,-9.0,,adl
15.113439,-0.049,-0.2419,0.4378,0.0032,-0.0458,-0.0261,-31.08,-31.02,-9.0,,adl
15.134261,-0.049,-0.2419,0.4378,0.0352,-0.0458,-0.0426,-31.08,-31.02,-9.0,,adl
15.155268,-0.049,-0.2419,0.4378,0.0352,-0.0458,-0.0426,-31.08,-30.9,-8.64,,adl
15.156994,-0.049,-0.2419,0.4378,0.0123,0.0016,-0.0378,-31.08,-30.9,-8.64,,adl
15.171338,-0.049,-0.2419,0.4378,0.0123,0.0016,-0.0378,-31.08,-30.9,-8.64,,adl
15.172528,-0.2295,0.0731,0.0185,0.0123,0.0016,-0.0378,-31.08,-30.9,-8.64,,adl
15.176741,-0.2295,0.0731,0.0185,-0.0011,0.0378,-0.0053,-31.08,-30.9,-8.64,,adl
15.196635,-0.2295,0.0731,0.0185,0.0101,0.0165,0.0261,-31.08,-30.9,-8.64,,adl
15.217165,-0.2295,0.0731,0.0185,0.0101,0.0165,0.0261,-30.54,-31.14,-9.24,,adl
15.218805,-0.2295,0.0731,0.0185,-0.0075,-0.0016,0.041,-30.54,-31.14,-9.24,,adl
15.233182,-0.2295,0.0731,0.0185,-0.0075,-0.0016,0.041,-30.54,-31.14,-9.24,,adl
15.234731,0.2928,0.1387,0.0972,-0.0075,-0.0016,0.041,-30.54,-31.14,-9.24,,adl
15.23605,0.2928,0.1387,0.0972,-0.0469,0.0101,0.0282,-30.54,-31.14,-9.24,,adl
15.257872,0.2928,0.1387,0.0972,-0.0399,0.017,0.0048,-30.54,-31.14,-9.24,,adl
15.278735,0.2928,0.1387,0.0972,-0.0399,0.017,0.0048,-30.42,-31.38,-9.12,,adl
15.280253,0.2928,0.1387,0.0972,0.0144,-0.0048,-0.008,-30.42,-31.38,-9.12,,adl
15.295956,0.2928,0.1387,0.0972,0.0144,-0.0048,-0.008,-30.42,-31.38,-9.12,,adl
15.297451,-0.0237,-0.2474,0.2694,0.0144,-0.0048,-0.008,-30.42,-31.38,-9.12,,adl
15.298633,-0.0237,-0.2474,0.2694,0.0501,-0.0208,-0.0186,-30.42,-31.38,-9.12,,adl
15.318887,-0.0237,-0.2474,0.2694,0.0186,-0.0117,-0.0277,-30.42,-31.38,-9.12,,adl
15.340461,-0.0237,-0.2474,0.2694,0.0186,-0.0117,-0.0277,-31.02,-31.5,-8.82,,adl
15.342248,-0.0237,-0.2474,0.2694,-0.0527,-0.0176,-0.032,-31.02,-31.5,-8.82,,adl
15.356505,-0.0237,-0.2474,0.2694,-0.0527,-0.0176,-0.032,-31.02,-31.5,-8.82,,adl
15.357447,-0.327,-0.137,0.3064,-0.0527,-0.0176,-0.032,-31.02,-31.5,-8.82,,adl
15.358686,-0.327,-0.137,0.3064,-0.0607,-0.0501,-0.032,-31.02,-31.5,-8.82,,adl
15.381019,-0.327,-0.137,0.3064,0.0506,-0.0016,-0.0069,-31.02,-31.5,-8.82,,adl
15.401116,-0.327,-0.137,0.3064,0.0506,-0.0016,-0.0069,-31.26,-31.5,-8.76,,adl
15.402688,-0.327,-0.137,0.3064,0.1337,0.0671,0.041,-31.26,-31.5,-8.76,,adl
15.417101,-0.327,-0.137,0.3064,0.1337,0.0671,0.041,-31.26,-31.5,-8.76,,adl
15.418839,0.3237,0.6249,-0.3318,0.1337,0.0671,0.041,-31.26,-31.5,-8.76,,adl
15.420856,0.3237,0.6249,-0.3318,0.0762,0.0842,0.0554,-31.26,-31.5,-8.76,,adl
15.441572,0.3237,0.6249,-0.3318,-0.0985,0.0421,0.0362,-31.26,-31.5,-8.76,,adl
15.464066,0.3237,0.6249,-0.3318,-0.0985,0.0421,0.0362,-31.44,-31.26,-8.22,,adl
15.465715,0.3237,0.6249,-0.3318,-0.1864,-0.0309,0.0016,-31.44,-31.26,-8.22,,adl
15.478909,0.3237,0.6249,-0.3318,-0.1864,-0.0309,0.0016,-31.44,-31.26,-8.22,,adl
15.480538,0.198,-0.4307,0.6505,-0.1864,-0.0309,0.0016,-31.44,-31.26,-8.22,,adl
15.481816,0.198,-0.4307,0.6505,-0.1108,-0.0969,-0.033,-31.44,-31.26,-8.22,,adl
15.503928,0.198,-0.4307,0.6505,0.032,-0.0836,-0.0676,-31.44,-31.26,-8.22,,adl
15.524877,0.198,-0.4307,0.6505,0.032,-0.0836,-0.0676,-31.44,-31.02,-8.4,,adl
15.526548,0.198,-0.4307,0.6505,0.0836,0.0128,-0.0905,-31.44,-31.02,-8.4,,adl
15.543441,0.198,-0.4307,0.6505,0.0836,0.0128,-0.0905,-31.44,-31.02,-8.4,,adl
15.545093,-0.5081,-0.4564,0.0308,0.0836,0.0128,-0.0905,-31.44,-31.02,-8.4,,adl
15.546287,-0.5081,-0.4564,0.0308,0.0389,0.0676,-0.0623,-31.44,-31.02,-8.4,,adl
15.565298,-0.5081,-0.4564,0.0308,0.0415,0.0442,0.0,-31.44,-31.02,-8.4,,adl
15.586631,-0.5081,-0.4564,0.0308,0.0415,0.0442,0.0,-31.2,-30.9,-8.94,,adl
15.588687,-0.5081,-0.4564,0.0308,0.0985,-0.0133,0.057,-31.2,-30.9,-8.94,,adl
15.601993,-0.5081,-0.4564,0.0308,0.0985,-0.0133,0.057,-31.2,-30.9,-8.94,,adl
15.603353,0.2212,0.5103,-0.2546,0.0985,-0.0133,0.057,-31.2,-30.9,-8.94,,adl
15.604621,0.2212,0.5103,-0.2546,0.0746,0.0133,0.0538,-31.2,-30.9,-8.94,,adl
15.626965,0.2212,0.5103,-0.2546,-0.0549,0.0852,0.0234,-31.2,-30.9,-8.94,,adl
15.64808,0.2212,0.5103,-0.2546,-0.0549,0.0852,0.0234,-31.08,-30.9,-8.88,,adl
15.649538,0.2212,0.5103,-0.2546,-0.1683,0.0405,-0.0117,-31.08,-30.9,-8.88,,adl
15.664159,0.2212,0.5103,-0.2546,-0.1683,0.0405,-0.0117,-31.08,-30.9,-8.88,,adl
15.665716,0.0395,-0.6109,0.6413,-0.1683,0.0405,-0.0117,-31.08,-30.9,-8.88,,adl
15.66681,0.0395,-0.6109,0.6413,-0.13,-0.0953,-0.0314,-31.08,-30.9,-8.88,,adl
15.688155,0.0395,-0.6109,0.6413,-0.0037,-0.1326,-0.0511,-31.08,-30.9,-8.88,,adl
15.709016,0.0395,-0.6109,0.6413,-0.0037,-0.1326,-0.0511,-30.84,-31.14,-9.0,,adl
15.71042,0.0395,-0.6109,0.6413,0.0692,-0.0261,-0.0714,-30.84,-31.14,-9.0,,adl
15.726725,0.0395,-0.6109,0.6413,0.0692,-0.0261,-0.0714,-30.84,-31.14,-9.0,,adl
15.728214,-0.2716,-0.1984,0.1021,0.0692,-0.0261,-0.0714,-30.84,-31.14,-9.0,,adl
15.729341,-0.2716,-0.1984,0.1021,0.0485,0.0842,-0.0554,-30.84,-31.14,-9.0,,adl
15.748844,-0.2716,-0.1984,0.1021,0.0517,0.0692,-0.0032,-30.84,-31.14,-9.0,,adl
15.770938,-0.2716,-0.1984,0.1021,0.0517,0.0692,-0.0032,-30.72,-31.02,-8.76,,adl
15.772777,-0.2716,-0.1984,0.1021,0.0889,0.0069,0.0469,-30.72,-31.02,-8.76,,adl
15.78692,-0.2716,-0.1984,0.1021,0.0889,0.0069,0.0469,-30.72,-31.02,-8.76,,adl
15.788073,0.5414,0.8653,-0.2096,0.0889,0.0069,0.0469,-30.72,-31.02,-8.76,,adl
15.792067,0.5414,0.8653,-0.2096,0.0581,-0.0064,0.0538,-30.72,-31.02,-8.76,,adl
15.810979,0.5414,0.8653,-0.2096,-0.0634,0.0506,0.0282,-30.72,-31.02,-8.76,,adl
15.832613,0.5414,0.8653,-0.2096,-0.0634,0.0506,0.0282,-30.36,-31.26,-8.34,,adl
15.834203,0.5414,0.8653,-0.2096,-0.1593,0.0426,-0.0075,-30.36,-31.26,-8.34,,adl
15.848624,0.5414,0.8653,-0.2096,-0.1593,0.0426,-0.0075,-30.36,-31.26,-8.34,,adl
15.850234,0.1813,-0.2341,0.5135,-0.1593,0.0426,-0.0075,-30.36,-31.26,-8.34,,adl
15.851372,0.1813,-0.2341,0.5135,-0.1188,-0.0559,-0.0357,-30.36,-31.26,-8.34,,adl
15.873363,0.1813,-0.2341,0.5135,0.0325,-0.0927,-0.0533,-30.36,-31.26,-8.34,,adl
15.893496,0.1813,-0.2341,0.5135,0.0325,-0.0927,-0.0533,-30.36,-31.14,-8.22,,adl
15.895078,0.1813,-0.2341,0.5135,0.0905,0.0202,-0.049,-30.36,-31.14,-8.22,,adl
15.910184,0.1813,-0.2341,0.5135,0.0905,0.0202,-0.049,-30.36,-31.14,-8.22,,adl
15.911622,-0.3646,-0.2256,0.2358,0.0905,0.0202,-0.049,-30.36,-31.14,-8.22,,adl
15.91298,-0.3646,-0.2256,0.2358,0.0346,0.0815,-0.024,-30.36,-31.14,-8.22,,adl
