time,ax,ay,az,wx,wy,wz,Bx,By,Bz,Unnamed: 10,label
0.026489,0.0,0.0,0.0,0.0,0.0,0.0,-34.08,22.2,-12.66,,adl
0.027012,0.0,0.0,0.0,0.0485,0.0213,0.0059,-34.08,22.2,-12.66,,adl
0.042341,0.0,0.0,0.0,0.0485,0.0213,0.0059,-34.08,22.2,-12.66,,adl
0.045829,0.0,0.0,0.0,0.0485,0.0213,0.0059,-34.08,22.2,-12.66,,adl
0.066639,0.0,0.0,0.0,0.0405,0.033,0.0181,-34.08,22.2,-12.66,,adl
0.087547,0.0,0.0,0.0,0.0405,0.033,0.0181,-31.2,27.42,-2.34,,adl
0.088158,0.0,0.0,0.0,0.049,0.0304,0.0378,-31.2,27.42,-2.34,,adl
0.103859,0.0,0.0,0.0,0.049,0.0304,0.0378,-31.2,27.42,-2.34,,adl
0.104351,-0.0907,-0.1026,0.0054,0.049,0.0304,0.0378,-31.2,27.42,-2.34,,adl
0.107625,-0.0907,-0.1026,0.0054,0.0352,0.0101,0.0154,-31.2,27.42,-2.34,,adl
0.127931,-0.0907,-0.1026,0.0054,0.0378,0.0336,0.0032,-31.2,27.42,-2.34,,adl
0.149574,-0.0907,-0.1026,0.0054,0.0378,0.0336,0.0032,-29.76,30.6,1.86,,adl
0.150295,-0.0907,-0.1026,0.0054,0.0543,0.0863,-0.0059,-29.76,30.6,1.86,,adl
0.166155,-0.0907,-0.1026,0.0054,0.0543,0.0863,-0.0059,-29.76,30.6,1.86,,adl
0.166753,-0.0182,0.0318,-0.0011,0.0543,0.0863,-0.0059,-29.76,30.6,1.86,,adl
0.169371,-0.0182,0.0318,-0.0011,0.0426,0.0383,0.0138,-29.76,30.6,1.86,,adl
0.191101,-0.0182,0.0318,-0.0011,0.033,0.049,-0.0069,-29.76,30.6,1.86,,adl
0.211368,-0.0182,0.0318,-0.0011,0.033,0.049,-0.0069,-28.14,33.84,6.12,,adl
0.212128,-0.0182,0.0318,-0.0011,0.0602,0.0836,-0.0165,-28.14,33.84,6.12,,adl
0.228091,-0.0182,0.0318,-0.0011,0.0602,0.0836,-0.0165,-28.14,33.84,6.12,,adl
0.228774,-0.1022,0.0555,0.038,0.0602,0.0836,-0.0165,-28.14,33.84,6.12,,adl
0.231363,-0.1022,0.0555,0.038,0.1065,0.0064,-0.0511,-28.14,33.84,6.12,,adl
0.251583,-0.1022,0.0555,0.038,0.1513,-0.0069,-0.0847,-28.14,33.84,6.12,,adl
0.273449,-0.1022,0.0555,0.038,0.1513,-0.0069,-0.0847,-27.84,33.66,5.52,,adl
0.274282,-0.1022,0.0555,0.038,0.4932,-0.1513,-0.3031,-27.84,33.66,5.52,,adl
0.289081,-0.1022,0.0555,0.038,0.4932,-0.1513,-0.3031,-27.84,33.66,5.52,,adl
0.289677,1.247,1.1276,-0.2546,0.4932,-0.1513,-0.3031,-27.84,33.66,5.52,,adl
0.292819,1.247,1.1276,-0.2546,0.7382,0.3675,-0.6722,-27.84,33.66,5.52,,adl
0.313566,1.247,1.1276,-0.2546,0.8607,0.7899,-0.8464,-27.84,33.66,5.52,,adl
0.33468,1.247,1.1276,-0.2546,0.8607,0.7899,-0.8464,-27.84,34.02,5.1,,adl
0.335691,1.247,1.1276,-0.2546,0.8964,1.0466,-0.9832,-27.84,34.02,5.1,,adl
0.3508,1.247,1.1276,-0.2546,0.8964,1.0466,-0.9832,-27.84,34.02,5.1,,adl
0.351487,0.9192,1.796,0.3244,0.8964,1.0466,-0.9832,-27.84,34.02,5.1,,adl
0.354451,0.9192,1.796,0.3244,0.6786,1.0866,-0.9545,-27.84,34.02,5.1,,adl
0.374825,0.9192,1.796,0.3244,0.2077,0.6594,-1.2123,-27.84,34.02,5.1,,adl
0.396743,0.9192,1.796,0.3244,0.2077,0.6594,-1.2123,-28.2,33.54,4.14,,adl
0.397463,0.9192,1.796,0.3244,-0.3984,0.1513,-1.9526,-28.2,33.54,4.14,,adl
0.412228,0.9192,1.796,0.3244,-0.3984,0.1513,-1.9526,-28.2,33.54,4.14,,adl
0.412968,2.6347,2.325,0.6372,-0.3984,0.1513,-1.9526,-28.2,33.54,4.14,,adl
0.416637,2.6347,2.325,0.6372,-0.5827,-0.3925,-2.6935,-28.2,33.54,4.14,,adl
0.43705,2.6347,2.325,0.6372,-0.5071,-0.073,-3.2262,-28.2,33.54,4.14,,adl
0.457766,2.6347,2.325,0.6372,-0.5071,-0.073,-3.2262,-29.22,32.52,3.3,,adl
0.458663,2.6347,2.325,0.6372,-0.3638,0.4394,-3.3348,-29.22,32.52,3.3,,adl
0.474071,2.6347,2.325,0.6372,-0.3638,0.4394,-3.3348,-29.22,32.52,3.3,,adl
0.474668,-4.7579,-4.3215,-1.384,-0.3638,0.4394,-3.3348,-29.22,32.52,3.3,,adl
0.477929,-4.7579,-4.3215,-1.384,-0.3579,0.5385,-2.3425,-29.22,32.52,3.3,,adl
0.498186,-4.7579,-4.3215,-1.384,-0.4197,0.4405,-0.9683,-29.22,32.52,3.3,,adl
0.52045,-4.7579,-4.3215,-1.384,-0.4197,0.4405,-0.9683,-32.16,30.42,2.22,,adl
0.521555,-4.7579,-4.3215,-1.384,-0.2573,0.1055,0.0533,-32.16,30.42,2.22,,adl
0.53559,-4.7579,-4.3215,-1.384,-0.2573,0.1055,0.0533,-32.16,30.42,2.22,,adl
0.536835,1.0453,-0.516,2.965,-0.2573,0.1055,0.0533,-32.16,30.42,2.22,,adl
0.539218,1.0453,-0.516,2.965,0.09,-0.4096,0.2333,-32.16,30.42,2.22,,adl
0.559881,1.0453,-0.516,2.965,0.318,-0.3878,0.1907,-32.16,30.42,2.22,,adl
0.581577,1.0453,-0.516,2.965,0.318,-0.3878,0.1907,-35.16,27.0,0.84,,adl
0.582697,1.0453,-0.516,2.965,0.1715,-0.0091,0.0202,-35.16,27.0,0.84,,adl
0.5978,1.0453,-0.516,2.965,0.1715,-0.0091,0.0202,-35.16,27.0,0.84,,adl
0.598764,-0.1351,-0.3927,-0.7489,0.1715,-0.0091,0.0202,-35.16,27.0,0.84,,adl
0.60125,-0.1351,-0.3927,-0.7489,-0.049,0.1699,-0.1246,-35.16,27.0,0.84,,adl
0.621404,-0.1351,-0.3927,-0.7489,-0.017,0.0431,-0.066,-35.16,27.0,0.84,,adl
0.642906,-0.1351,-0.3927,-0.7489,-0.017,0.0431,-0.066,-37.38,24.24,1.32,,adl
0.644039,-0.1351,-0.3927,-0.7489,0.0565,-0.1108,0.0016,-37.38,24.24,1.32,,adl
0.658674,-0.1351,-0.3927,-0.7489,0.0565,-0.1108,0.0016,-37.38,24.24,1.32,,adl
0.659698,-0.2312,0.1121,-0.1384,0.0565,-0.1108,0.0016,-37.38,24.24,1.32,,adl
0.662334,-0.2312,0.1121,-0.1384,-0.0362,-0.0298,0.0123,-37.38,24.24,1.32,,adl
0.683281,-0.2312,0.1121,-0.1384,-0.0815,0.0522,0.0016,-37.38,24.24,1.32,,adl
0.704325,-0.2312,0.1121,-0.1384,-0.0815,0.0522,0.0016,-38.88,22.02,1.2,,adl
0.705596,-0.2312,0.1121,-0.1384,0.0091,-0.0213,0.0149,-38.88,22.02,1.2,,adl
0.720648,-0.2312,0.1121,-0.1384,0.0091,-0.0213,0.0149,-38.88,22.02,1.2,,adl
0.721663,0.0519,-0.0701,0.0772,0.0091,-0.0213,0.0149,-38.88,22.02,1.2,,adl
0.725529,0.0519,-0.0701,0.0772,0.0309,-0.0458,0.0144,-38.88,22.02,1.2,,adl
0.745107,0.0519,-0.0701,0.0772,-0.0064,0.0048,0.0123,-38.88,22.02,1.2,,adl
0.765944,0.0519,-0.0701,0.0772,-0.0064,0.0048,0.0123,-38.88,21.48,0.84,,adl
0.766947,0.0519,-0.0701,0.0772,0.0037,0.0059,0.0096,-38.88,21.48,0.84,,adl
0.781677,0.0519,-0.0701,0.0772,0.0037,0.0059,0.0096,-38.88,21.48,0.84,,adl
0.782068,0.4454,-0.2655,0.2308,0.0037,0.0059,0.0096,-38.88,21.48,0.84,,adl
0.785153,0.4454,-0.2655,0.2308,0.008,-0.0059,-0.0059,-38.88,21.48,0.84,,adl
0.806493,0.4454,-0.2655,0.2308,0.0011,-0.0197,-0.0224,-38.88,21.48,0.84,,adl
0.827833,0.4454,-0.2655,0.2308,0.0011,-0.0197,-0.0224,-38.7,21.48,1.44,,adl
0.829166,0.4454,-0.2655,0.2308,0.0202,-0.0069,-0.008,-38.7,21.48,1.44,,adl
0.843717,0.4454,-0.2655,0.2308,0.0202,-0.0069,-0.008,-38.7,21.48,1.44,,adl
0.844879,-0.1675,0.0436,-0.0338,0.0202,-0.0069,-0.008,-38.7,21.48,1.44,,adl
0.847447,-0.1675,0.0436,-0.0338,0.0341,0.0144,0.0064,-38.7,21.48,1.44,,adl
0.867676,-0.1675,0.0436,-0.0338,0.0256,0.0186,0.008,-38.7,21.48,1.44,,adl
0.889592,-0.1675,0.0436,-0.0338,0.0256,0.0186,0.008,-38.76,21.18,0.78,,adl
0.890725,-0.1675,0.0436,-0.0338,-0.0021,-0.0069,0.0,-38.76,21.18,0.78,,adl
0.905738,-0.1675,0.0436,-0.0338,-0.0021,-0.0069,0.0,-38.76,21.18,0.78,,adl
0.906341,0.1788,-0.0564,0.0198,-0.0021,-0.0069,0.0,-38.76,21.18,0.78,,adl
0.908894,0.1788,-0.0564,0.0198,-0.0431,-0.0234,-0.0027,-38.76,21.18,0.78,,adl
0.929649,0.1788,-0.0564,0.0198,-0.0559,-0.0005,0.0213,-38.76,21.18,0.78,,adl
0.951758,0.1788,-0.0564,0.0198,-0.0559,-0.0005,0.0213,-38.52,21.06,0.9,,adl
0.952833,0.1788,-0.0564,0.0198,0.0011,-0.0037,0.0165,-38.52,21.06,0.9,,adl
0.966668,0.1788,-0.0564,0.0198,0.0011,-0.0037,0.0165,-38.52,21.06,0.9,,adl
0.967436,-0.1002,-0.3202,0.1852,0.0011,-0.0037,0.0165,-38.52,21.06,0.9,,adl
0.970788,-0.1002,-0.3202,0.1852,0.0708,-0.016,0.0037,-38.52,21.06,0.9,,adl
0.991071,-0.1002,-0.3202,0.1852,0.0527,0.0117,-0.0005,-38.52,21.06,0.9,,adl
1.012067,-0.1002,-0.3202,0.1852,0.0527,0.0117,-0.0005,-38.58,20.58,1.38,,adl
1.012947,-0.1002,-0.3202,0.1852,0.0064,0.0282,-0.0027,-38.58,20.58,1.38,,adl
1.028155,-0.1002,-0.3202,0.1852,0.0064,0.0282,-0.0027,-38.58,20.58,1.38,,adl
1.029224,0.2493,-0.0257,0.0867,0.0064,0.0282,-0.0027,-38.58,20.58,1.38,,adl
1.031792,0.2493,-0.0257,0.0867,-0.0133,0.0128,-0.0181,-38.58,20.58,1.38,,adl
1.052775,0.2493,-0.0257,0.0867,0.0016,-0.0085,-0.0245,-38.58,20.58,1.38,,adl
1.073878,0.2493,-0.0257,0.0867,0.0016,-0.0085,-0.0245,-38.34,20.76,1.38,,adl
1.075019,0.2493,-0.0257,0.0867,0.0085,-0.0069,-0.0053,-38.34,20.76,1.38,,adl
1.089936,0.2493,-0.0257,0.0867,0.0085,-0.0069,-0.0053,-38.34,20.76,1.38,,adl
1.090864,-0.2654,0.0494,0.0206,0.0085,-0.0069,-0.0053,-38.34,20.76,1.38,,adl
1.093983,-0.2654,0.0494,0.0206,-0.0059,0.0043,0.0213,-38.34,20.76,1.38,,adl
1.114133,-0.2654,0.0494,0.0206,0.0059,-0.0037,0.025,-38.34,20.76,1.38,,adl
1.135647,-0.2654,0.0494,0.0206,0.0059,-0.0037,0.025,-38.52,21.12,1.68,,adl
1.136791,-0.2654,0.0494,0.0206,0.0117,-0.0112,0.0154,-38.52,21.12,1.68,,adl
1.151625,-0.2654,0.0494,0.0206,0.0117,-0.0112,0.0154,-38.52,21.12,1.68,,adl
1.152667,0.1405,0.0296,0.1334,0.0117,-0.0112,0.0154,-38.52,21.12,1.68,,adl
1.154955,0.1405,0.0296,0.1334,0.0032,0.0053,0.0043,-38.52,21.12,1.68,,adl
1.175764,0.1405,0.0296,0.1334,-0.0021,0.0037,-0.0085,-38.52,21.12,1.68,,adl
1.197082,0.1405,0.0296,0.1334,-0.0021,0.0037,-0.0085,-39.0,21.06,1.8,,adl
1.198066,0.1405,0.0296,0.1334,0.0011,-0.0032,-0.016,-39.0,21.06,1.8,,adl
1.213351,0.1405,0.0296,0.1334,0.0011,-0.0032,-0.016,-39.0,21.06,1.8,,adl
1.214162,-0.1577,-0.0307,0.0532,0.0011,-0.0032,-0.016,-39.0,21.06,1.8,,adl
1.217121,-0.1577,-0.0307,0.0532,-0.0043,-0.0075,-0.0064,-39.0,21.06,1.8,,adl
1.237514,-0.1577,-0.0307,0.0532,-0.0048,-0.0059,0.0096,-39.0,21.06,1.8,,adl
1.261366,-0.1577,-0.0307,0.0532,-0.0048,-0.0059,0.0096,-38.94,21.6,1.74,,adl
1.262698,-0.1577,-0.0307,0.0532,-0.0069,-0.0005,0.0144,-38.94,21.6,1.74,,adl
1.274645,-0.1577,-0.0307,0.0532,-0.0069,-0.0005,0.0144,-38.94,21.6,1.74,,adl
1.275736,0.0138,-0.0608,0.0967,-0.0069,-0.0005,0.0144,-38.94,21.6,1.74,,adl
1.278384,0.0138,-0.0608,0.0967,-0.0032,0.0101,0.0101,-38.94,21.6,1.74,,adl
1.299506,0.0138,-0.0608,0.0967,0.0048,0.0048,0.0069,-38.94,21.6,1.74,,adl
1.320157,0.0138,-0.0608,0.0967,0.0048,0.0048,0.0069,-39.48,21.6,1.86,,adl
1.321304,0.0138,-0.0608,0.0967,0.0053,0.0,0.008,-39.48,21.6,1.86,,adl
1.336239,0.0138,-0.0608,0.0967,0.0053,0.0,0.008,-39.48,21.6,1.86,,adl
1.337347,-0.0202,-0.0767,0.0793,0.0053,0.0,0.008,-39.48,21.6,1.86,,adl
1.340753,-0.0202,-0.0767,0.0793,-0.0037,0.0059,0.008,-39.48,21.6,1.86,,adl
1.361628,-0.0202,-0.0767,0.0793,-0.0021,0.0101,0.0107,-39.48,21.6,1.86,,adl
1.381459,-0.0202,-0.0767,0.0793,-0.0021,0.0101,0.0107,-39.06,21.84,2.4,,adl
1.382302,-0.0202,-0.0767,0.0793,0.0075,0.0085,0.0064,-39.06,21.84,2.4,,adl
1.397383,-0.0202,-0.0767,0.0793,0.0075,0.0085,0.0064,-39.06,21.84,2.4,,adl
1.398284,0.0414,-0.0263,0.0974,0.0075,0.0085,0.0064,-39.06,21.84,2.4,,adl
1.401202,0.0414,-0.0263,0.0974,0.0064,0.0037,-0.0005,-39.06,21.84,2.4,,adl
1.421861,0.0414,-0.0263,0.0974,0.0027,0.0016,-0.0005,-39.06,21.84,2.4,,adl
1.443103,0.0414,-0.0263,0.0974,0.0027,0.0016,-0.0005,-38.76,21.66,2.1,,adl
1.443854,0.0414,-0.0263,0.0974,0.0064,-0.0005,0.0053,-38.76,21.66,2.1,,adl
1.45928,0.0414,-0.0263,0.0974,0.0064,-0.0005,0.0053,-38.76,21.66,2.1,,adl
1.460141,-0.0499,-0.0199,0.0676,0.0064,-0.0005,0.0053,-38.76,21.66,2.1,,adl
1.46341,-0.0499,-0.0199,0.0676,0.0027,-0.0112,0.0096,-38.76,21.66,2.1,,adl
1.483234,-0.0499,-0.0199,0.0676,-0.0069,-0.0165,0.0096,-38.76,21.66,2.1,,adl
1.504731,-0.0499,-0.0199,0.0676,-0.0069,-0.0165,0.0096,-38.76,21.66,1.68,,adl
1.505206,-0.0499,-0.0199,0.0676,-0.0117,-0.0197,0.0043,-38.76,21.66,1.68,,adl
1.520798,-0.0499,-0.0199,0.0676,-0.0117,-0.0197,0.0043,-38.76,21.66,1.68,,adl
1.52144,-0.0253,-0.046,0.1203,-0.0117,-0.0197,0.0043,-38.76,21.66,1.68,,adl
1.524436,-0.0253,-0.046,0.1203,-0.0043,-0.0272,0.0069,-38.76,21.66,1.68,,adl
1.545359,-0.0253,-0.046,0.1203,0.0016,-0.0325,0.0123,-38.76,21.66,1.68,,adl
1.566687,-0.0253,-0.046,0.1203,0.0016,-0.0325,0.0123,-38.52,21.66,1.74,,adl
1.567523,-0.0253,-0.046,0.1203,0.0064,-0.0368,0.0149,-38.52,21.66,1.74,,adl
1.582612,-0.0253,-0.046,0.1203,0.0064,-0.0368,0.0149,-38.52,21.66,1.74,,adl
1.583228,0.0083,-0.0735,0.124,0.0064,-0.0368,0.0149,-38.52,21.66,1.74,,adl
1.586081,0.0083,-0.0735,0.124,0.0128,-0.0479,0.017,-38.52,21.66,1.74,,adl
1.606914,0.0083,-0.0735,0.124,0.0069,-0.0575,0.0138,-38.52,21.66,1.74,,adl
1.627745,0.0083,-0.0735,0.124,0.0069,-0.0575,0.0138,-38.52,21.24,1.44,,adl
1.628264,0.0083,-0.0735,0.124,-0.0021,-0.057,0.0075,-38.52,21.24,1.44,,adl
1.64388,0.0083,-0.0735,0.124,-0.0021,-0.057,0.0075,-38.52,21.24,1.44,,adl
1.644406,-0.0229,0.0291,-0.0277,-0.0021,-0.057,0.0075,-38.52,21.24,1.44,,adl
1.64747,-0.0229,0.0291,-0.0277,-0.0112,-0.0469,0.0043,-38.52,21.24,1.44,,adl
1.669094,-0.0229,0.0291,-0.0277,-0.0197,-0.0501,0.0021,-38.52,21.24,1.44,,adl
1.689685,-0.0229,0.0291,-0.0277,-0.0197,-0.0501,0.0021,-38.58,21.6,2.04,,adl
1.690458,-0.0229,0.0291,-0.0277,-0.0383,-0.0613,0.0037,-38.58,21.6,2.04,,adl
1.705806,-0.0229,0.0291,-0.0277,-0.0383,-0.0613,0.0037,-38.58,21.6,2.04,,adl
1.706513,-0.0095,-0.06,0.0267,-0.0383,-0.0613,0.0037,-38.58,21.6,2.04,,adl
1.709755,-0.0095,-0.06,0.0267,-0.0575,-0.0575,0.008,-38.58,21.6,2.04,,adl
1.730118,-0.0095,-0.06,0.0267,-0.0463,-0.0373,0.0149,-38.58,21.6,2.04,,adl
1.751781,-0.0095,-0.06,0.0267,-0.0463,-0.0373,0.0149,-38.4,21.6,2.64,,adl
1.753117,-0.0095,-0.06,0.0267,-0.024,-0.017,0.025,-38.4,21.6,2.64,,adl
1.767447,-0.0095,-0.06,0.0267,-0.024,-0.017,0.025,-38.4,21.6,2.64,,adl
1.7686,0.0491,-0.1433,0.0201,-0.024,-0.017,0.025,-38.4,21.6,2.64,,adl
1.771484,0.0491,-0.1433,0.0201,-0.0096,-0.0133,0.0314,-38.4,21.6,2.64,,adl
1.791822,0.0491,-0.1433,0.0201,-0.0154,-0.0197,0.0336,-38.4,21.6,2.64,,adl
1.813518,0.0491,-0.1433,0.0201,-0.0154,-0.0197,0.0336,-38.22,22.02,2.1,,adl
1.814519,0.0491,-0.1433,0.0201,-0.0282,-0.0208,0.0309,-38.22,22.02,2.1,,adl
1.829338,0.0491,-0.1433,0.0201,-0.0282,-0.0208,0.0309,-38.22,22.02,2.1,,adl
1.830348,0.165,0.0101,-0.0869,-0.0282,-0.0208,0.0309,-38.22,22.02,2.1,,adl
1.834327,0.165,0.0101,-0.0869,-0.0469,0.0021,0.0192,-38.22,22.02,2.1,,adl
1.853357,0.165,0.0101,-0.0869,-0.0575,0.0144,0.0064,-38.22,22.02,2.1,,adl
1.875209,0.165,0.0101,-0.0869,-0.0575,0.0144,0.0064,-38.7,21.78,2.22,,adl
1.876224,0.165,0.0101,-0.0869,-0.0543,-0.0032,0.0037,-38.7,21.78,2.22,,adl
1.891974,0.165,0.0101,-0.0869,-0.0543,-0.0032,0.0037,-38.7,21.78,2.22,,adl
1.893134,-0.0206,-0.0388,0.0295,-0.0543,-0.0032,0.0037,-38.7,21.78,2.22,,adl
1.894247,-0.0206,-0.0388,0.0295,-0.0586,-0.0181,0.008,-38.7,21.78,2.22,,adl
1.91556,-0.0206,-0.0388,0.0295,-0.0676,-0.0165,0.0117,-38.7,21.78,2.22,,adl
1.936068,-0.0206,-0.0388,0.0295,-0.0676,-0.0165,0.0117,-38.7,21.78,2.46,,adl
1.937427,-0.0206,-0.0388,0.0295,-0.0751,-0.0197,0.0218,-38.7,21.78,2.46,,adl
1.952062,-0.0206,-0.0388,0.0295,-0.0751,-0.0197,0.0218,-38.7,21.78,2.46,,adl
1.953227,-0.1814,-0.0632,0.156,-0.0751,-0.0197,0.0218,-38.7,21.78,2.46,,adl
1.955899,-0.1814,-0.0632,0.156,-0.074,-0.0389,0.0304,-38.7,21.78,2.46,,adl
1.976188,-0.1814,-0.0632,0.156,-0.0724,-0.0772,0.0357,-38.7,21.78,2.46,,adl
1.997691,-0.1814,-0.0632,0.156,-0.0724,-0.0772,0.0357,-39.06,21.66,2.4,,adl
1.998611,-0.1814,-0.0632,0.156,-0.0762,-0.1193,0.0378,-39.06,21.66,2.4,,adl
2.013969,-0.1814,-0.0632,0.156,-0.0762,-0.1193,0.0378,-39.06,21.66,2.4,,adl
2.014961,-0.2014,0.0884,0.0101,-0.0762,-0.1193,0.0378,-39.06,21.66,2.4,,adl
2.017688,-0.2014,0.0884,0.0101,-0.0826,-0.1486,0.0368,-39.06,21.66,2.4,,adl
2.038233,-0.2014,0.0884,0.0101,-0.0921,-0.1619,0.0346,-39.06,21.66,2.4,,adl
2.059502,-0.2014,0.0884,0.0101,-0.0921,-0.1619,0.0346,-38.88,21.42,2.88,,adl
2.060566,-0.2014,0.0884,0.0101,-0.123,-0.1736,0.0186,-38.88,21.42,2.88,,adl
2.075236,-0.2014,0.0884,0.0101,-0.123,-0.1736,0.0186,-38.88,21.42,2.88,,adl
2.076393,0.1471,0.18,-0.4204,-0.123,-0.1736,0.0186,-38.88,21.42,2.88,,adl
2.078936,0.1471,0.18,-0.4204,-0.1555,-0.1912,-0.0085,-38.88,21.42,2.88,,adl
2.099665,0.1471,0.18,-0.4204,-0.1774,-0.2152,-0.0378,-38.88,21.42,2.88,,adl
2.121341,0.1471,0.18,-0.4204,-0.1774,-0.2152,-0.0378,-38.58,21.84,3.0,,adl
2.122445,0.1471,0.18,-0.4204,-0.1694,-0.2578,-0.0591,-38.58,21.84,3.0,,adl
2.136979,0.1471,0.18,-0.4204,-0.1694,-0.2578,-0.0591,-38.58,21.84,3.0,,adl
2.137941,-0.2318,0.1527,-0.2978,-0.1694,-0.2578,-0.0591,-38.58,21.84,3.0,,adl
2.141985,-0.2318,0.1527,-0.2978,-0.1598,-0.3233,-0.0634,-38.58,21.84,3.0,,adl
2.161589,-0.2318,0.1527,-0.2978,-0.179,-0.3931,-0.0543,-38.58,21.84,3.0,,adl
2.182782,-0.2318,0.1527,-0.2978,-0.179,-0.3931,-0.0543,-38.4,21.84,2.58,,adl
2.183779,-0.2318,0.1527,-0.2978,-0.2099,-0.4304,-0.0453,-38.4,21.84,2.58,,adl
2.199466,-0.2318,0.1527,-0.2978,-0.2099,-0.4304,-0.0453,-38.4,21.84,2.58,,adl
2.200425,-0.6966,0.3122,-0.7655,-0.2099,-0.4304,-0.0453,-38.4,21.84,2.58,,adl
2.202417,-0.6966,0.3122,-0.7655,-0.245,-0.4543,-0.0245,-38.4,21.84,2.58,,adl
2.223224,-0.6966,0.3122,-0.7655,-0.2892,-0.4858,-0.0091,-38.4,21.84,2.58,,adl
2.244347,-0.6966,0.3122,-0.7655,-0.2892,-0.4858,-0.0091,-38.28,21.9,3.18,,adl
2.245755,-0.6966,0.3122,-0.7655,-0.3388,-0.5151,-0.0208,-38.28,21.9,3.18,,adl
2.259977,-0.6966,0.3122,-0.7655,-0.3388,-0.5151,-0.0208,-38.28,21.9,3.18,,adl
2.26113,-0.4853,0.0635,-0.2807,-0.3388,-0.5151,-0.0208,-38.28,21.9,3.18,,adl
2.263781,-0.4853,0.0635,-0.2807,-0.3627,-0.5385,-0.0522,-38.28,21.9,3.18,,adl
2.28428,-0.4853,0.0635,-0.2807,-0.3457,-0.5401,-0.081,-38.28,21.9,3.18,,adl
2.305888,-0.4853,0.0635,-0.2807,-0.3457,-0.5401,-0.081,-38.88,21.42,4.26,,adl
2.307052,-0.4853,0.0635,-0.2807,-0.3164,-0.4985,-0.098,-38.88,21.42,4.26,,adl
2.32206,-0.4853,0.0635,-0.2807,-0.3164,-0.4985,-0.098,-38.88,21.42,4.26,,adl
2.323104,0.3338,-0.4026,0.4158,-0.3164,-0.4985,-0.098,-38.88,21.42,4.26,,adl
2.326357,0.3338,-0.4026,0.4158,-0.2919,-0.4645,-0.1188,-38.88,21.42,4.26,,adl
2.346026,0.3338,-0.4026,0.4158,-0.269,-0.4852,-0.1385,-38.88,21.42,4.26,,adl
2.36753,0.3338,-0.4026,0.4158,-0.269,-0.4852,-0.1385,-39.06,21.18,5.04,,adl
2.368829,0.3338,-0.4026,0.4158,-0.22,-0.5065,-0.1454,-39.06,21.18,5.04,,adl
2.383316,0.3338,-0.4026,0.4158,-0.22,-0.5065,-0.1454,-39.06,21.18,5.04,,adl
2.384333,-0.4392,-0.3149,0.8325,-0.22,-0.5065,-0.1454,-39.06,21.18,5.04,,adl
2.38727,-0.4392,-0.3149,0.8325,-0.1438,-0.5246,-0.123,-39.06,21.18,5.04,,adl
2.408381,-0.4392,-0.3149,0.8325,-0.0831,-0.5396,-0.0852,-39.06,21.18,5.04,,adl
2.429091,-0.4392,-0.3149,0.8325,-0.0831,-0.5396,-0.0852,-39.06,20.94,6.84,,adl
2.430191,-0.4392,-0.3149,0.8325,-0.0559,-0.5465,-0.0554,-39.06,20.94,6.84,,adl
2.445473,-0.4392,-0.3149,0.8325,-0.0559,-0.5465,-0.0554,-39.06,20.94,6.84,,adl
2.44651,-0.3649,0.1031,-0.1437,-0.0559,-0.5465,-0.0554,-39.06,20.94,6.84,,adl
2.450022,-0.3649,0.1031,-0.1437,-0.065,-0.5172,-0.0559,-39.06,20.94,6.84,,adl
2.469286,-0.3649,0.1031,-0.1437,-0.1044,-0.5001,-0.081,-39.06,20.94,6.84,,adl
2.491328,-0.3649,0.1031,-0.1437,-0.1044,-0.5001,-0.081,-39.0,20.88,8.82,,adl
2.492723,-0.3649,0.1031,-0.1437,-0.1427,-0.5113,-0.1358,-39.0,20.88,8.82,,adl
2.506903,-0.3649,0.1031,-0.1437,-0.1427,-0.5113,-0.1358,-39.0,20.88,8.82,,adl
2.508469,-0.1096,0.1044,-0.1728,-0.1427,-0.5113,-0.1358,-39.0,20.88,8.82,,adl
2.510079,-0.1096,0.1044,-0.1728,-0.1555,-0.5667,-0.1912,-39.0,20.88,8.82,,adl
2.531132,-0.1096,0.1044,-0.1728,-0.1364,-0.628,-0.229,-39.0,20.88,8.82,,adl
2.552626,-0.1096,0.1044,-0.1728,-0.1364,-0.628,-0.229,-38.88,20.76,10.62,,adl
2.554635,-0.1096,0.1044,-0.1728,-0.1145,-0.629,-0.2365,-38.88,20.76,10.62,,adl
2.56834,-0.1096,0.1044,-0.1728,-0.1145,-0.629,-0.2365,-38.88,20.76,10.62,,adl
2.569758,-0.4257,-0.0698,-0.1079,-0.1145,-0.629,-0.2365,-38.88,20.76,10.62,,adl
2.571662,-0.4257,-0.0698,-0.1079,-0.1124,-0.6088,-0.2232,-38.88,20.76,10.62,,adl
2.592775,-0.4257,-0.0698,-0.1079,-0.1135,-0.5976,-0.2024,-38.88,20.76,10.62,,adl
2.614469,-0.4257,-0.0698,-0.1079,-0.1135,-0.5976,-0.2024,-38.28,20.46,12.24,,adl
2.615628,-0.4257,-0.0698,-0.1079,-0.1193,-0.6099,-0.2029,-38.28,20.46,12.24,,adl
2.629931,-0.4257,-0.0698,-0.1079,-0.1193,-0.6099,-0.2029,-38.28,20.46,12.24,,adl
2.630938,-0.3016,0.0575,0.0672,-0.1193,-0.6099,-0.2029,-38.28,20.46,12.24,,adl
2.633788,-0.3016,0.0575,0.0672,-0.1076,-0.6061,-0.2317,-38.28,20.46,12.24,,adl
2.654791,-0.3016,0.0575,0.0672,-0.0746,-0.6072,-0.2583,-38.28,20.46,12.24,,adl
2.675274,-0.3016,0.0575,0.0672,-0.0746,-0.6072,-0.2583,-38.52,20.04,13.26,,adl
2.676384,-0.3016,0.0575,0.0672,-0.0229,-0.6099,-0.2626,-38.52,20.04,13.26,,adl
2.691084,-0.3016,0.0575,0.0672,-0.0229,-0.6099,-0.2626,-38.52,20.04,13.26,,adl
2.692021,-0.8301,-0.0754,0.0947,-0.0229,-0.6099,-0.2626,-38.52,20.04,13.26,,adl
2.695578,-0.8301,-0.0754,0.0947,0.0218,-0.6429,-0.2125,-38.52,20.04,13.26,,adl
2.717166,-0.8301,-0.0754,0.0947,0.0288,-0.7521,-0.1055,-38.52,20.04,13.26,,adl
2.737315,-0.8301,-0.0754,0.0947,0.0288,-0.7521,-0.1055,-38.28,19.32,14.64,,adl
2.738552,-0.8301,-0.0754,0.0947,-0.0607,-0.7542,0.0176,-38.28,19.32,14.64,,adl
2.753427,-0.8301,-0.0754,0.0947,-0.0607,-0.7542,0.0176,-38.28,19.32,14.64,,adl
2.75452,-0.8227,0.2001,-1.0157,-0.0607,-0.7542,0.0176,-38.28,19.32,14.64,,adl
2.756635,-0.8227,0.2001,-1.0157,-0.2067,-0.4874,0.0932,-38.28,19.32,14.64,,adl
2.777821,-0.8227,0.2001,-1.0157,-0.2929,-0.1491,0.1348,-38.28,19.32,14.64,,adl
2.798873,-0.8227,0.2001,-1.0157,-0.2929,-0.1491,0.1348,-38.22,18.54,15.42,,adl
2.800137,-0.8227,0.2001,-1.0157,-0.2035,-0.0378,0.1449,-38.22,18.54,15.42,,adl
2.815159,-0.8227,0.2001,-1.0157,-0.2035,-0.0378,0.1449,-38.22,18.54,15.42,,adl
2.81624,1.9656,-1.2254,2.2579,-0.2035,-0.0378,0.1449,-38.22,18.54,15.42,,adl
2.819795,1.9656,-1.2254,2.2579,0.0117,-0.261,0.106,-38.22,18.54,15.42,,adl
2.839064,1.9656,-1.2254,2.2579,0.2871,-0.6322,0.0325,-38.22,18.54,15.42,,adl
2.860309,1.9656,-1.2254,2.2579,0.2871,-0.6322,0.0325,-38.22,18.3,16.98,,adl
2.861601,1.9656,-1.2254,2.2579,0.4847,-0.9023,-0.024,-38.22,18.3,16.98,,adl
2.876258,1.9656,-1.2254,2.2579,0.4847,-0.9023,-0.024,-38.22,18.3,16.98,,adl
2.877533,0.3053,-0.8698,0.7584,0.4847,-0.9023,-0.024,-38.22,18.3,16.98,,adl
2.879607,0.3053,-0.8698,0.7584,0.5444,-0.9848,-0.0362,-38.22,18.3,16.98,,adl
2.90078,0.3053,-0.8698,0.7584,0.5358,-1.2735,-0.0501,-38.22,18.3,16.98,,adl
2.921726,0.3053,-0.8698,0.7584,0.5358,-1.2735,-0.0501,-37.74,18.18,18.18,,adl
2.922752,0.3053,-0.8698,0.7584,0.4453,-1.4429,-0.0746,-37.74,18.18,18.18,,adl
2.938586,0.3053,-0.8698,0.7584,0.4453,-1.4429,-0.0746,-37.74,18.18,18.18,,adl
2.939613,0.1712,-0.4196,-1.6722,0.4453,-1.4429,-0.0746,-37.74,18.18,18.18,,adl
2.942776,0.1712,-0.4196,-1.6722,0.2647,-1.2224,-0.0511,-37.74,18.18,18.18,,adl
2.962034,0.1712,-0.4196,-1.6722,0.1997,-1.093,0.0181,-37.74,18.18,18.18,,adl
2.983838,0.1712,-0.4196,-1.6722,0.1997,-1.093,0.0181,-36.6,18.72,19.5,,adl
2.985139,0.1712,-0.4196,-1.6722,0.139,-1.1537,0.0868,-36.6,18.72,19.5,,adl
3.000014,0.1712,-0.4196,-1.6722,0.139,-1.1537,0.0868,-36.6,18.72,19.5,,adl
3.001224,-1.2167,0.8046,-0.5221,0.139,-1.1537,0.0868,-36.6,18.72,19.5,,adl
3.002932,-1.2167,0.8046,-0.5221,0.0234,-1.0786,0.2988,-36.6,18.72,19.5,,adl
3.024382,-1.2167,0.8046,-0.5221,-0.0815,-1.086,0.4948,-36.6,18.72,19.5,,adl
3.044844,-1.2167,0.8046,-0.5221,-0.2056,-1.3039,0.6093,-36.6,18.72,19.5,,adl
3.045889,-1.2167,0.8046,-0.5221,-0.2056,-1.3039,0.6093,-35.1,19.44,20.82,,adl
3.06095,-1.2167,0.8046,-0.5221,-0.2056,-1.3039,0.6093,-35.1,19.44,20.82,,adl
3.06199,-0.8186,-0.1584,-0.7884,-0.2056,-1.3039,0.6093,-35.1,19.44,20.82,,adl
3.06564,-0.8186,-0.1584,-0.7884,-0.3206,-1.6144,0.6956,-35.1,19.44,20.82,,adl
3.085153,-0.8186,-0.1584,-0.7884,-0.4543,-1.9585,0.7963,-35.1,19.44,20.82,,adl
3.106536,-0.8186,-0.1584,-0.7884,-0.4543,-1.9585,0.7963,-33.72,19.86,22.74,,adl
3.107702,-0.8186,-0.1584,-0.7884,-0.5449,-2.0389,0.881,-33.72,19.86,22.74,,adl
3.122611,-0.8186,-0.1584,-0.7884,-0.5449,-2.0389,0.881,-33.72,19.86,22.74,,adl
3.12363,0.2841,-1.1023,-0.9183,-0.5449,-2.0389,0.881,-33.72,19.86,22.74,,adl
3.126597,0.2841,-1.1023,-0.9183,-0.4996,-1.9191,0.9401,-33.72,19.86,22.74,,adl
3.147124,0.2841,-1.1023,-0.9183,-0.3867,-1.8067,0.9199,-33.72,19.86,22.74,,adl
3.168041,0.2841,-1.1023,-0.9183,-0.3867,-1.8067,0.9199,-31.74,20.46,25.44,,adl
3.169242,0.2841,-1.1023,-0.9183,-0.3936,-1.8184,0.8469,-31.74,20.46,25.44,,adl
3.184114,0.2841,-1.1023,-0.9183,-0.3936,-1.8184,0.8469,-31.74,20.46,25.44,,adl
3.185314,0.7764,-1.2207,0.4847,-0.3936,-1.8184,0.8469,-31.74,20.46,25.44,,adl
3.187998,0.7764,-1.2207,0.4847,-0.4277,-1.902,0.7942,-31.74,20.46,25.44,,adl
3.208181,0.7764,-1.2207,0.4847,-0.3627,-1.9915,0.7286,-31.74,20.46,25.44,,adl
3.229767,0.7764,-1.2207,0.4847,-0.3627,-1.9915,0.7286,-28.8,21.12,28.38,,adl
3.231033,0.7764,-1.2207,0.4847,-0.2615,-1.9979,0.6306,-28.8,21.12,28.38,,adl
3.245783,0.7764,-1.2207,0.4847,-0.2615,-1.9979,0.6306,-28.8,21.12,28.38,,adl
3.24675,0.2991,0.5367,-0.5015,-0.2615,-1.9979,0.6306,-28.8,21.12,28.38,,adl
3.250188,0.2991,0.5367,-0.5015,-0.2381,-1.8855,0.5758,-28.8,21.12,28.38,,adl
3.270235,0.2991,0.5367,-0.5015,-0.2764,-1.648,0.5747,-28.8,21.12,28.38,,adl
3.291916,0.2991,0.5367,-0.5015,-0.2764,-1.648,0.5747,-25.14,22.02,31.98,,adl
3.293215,0.2991,0.5367,-0.5015,-0.285,-1.4642,0.5822,-25.14,22.02,31.98,,adl
3.307904,0.2991,0.5367,-0.5015,-0.285,-1.4642,0.5822,-25.14,22.02,31.98,,adl
3.309441,0.5005,0.4838,-0.1019,-0.285,-1.4642,0.5822,-25.14,22.02,31.98,,adl
3.310815,0.5005,0.4838,-0.1019,-0.327,-1.5175,0.5342,-25.14,22.02,31.98,,adl
3.33147,0.5005,0.4838,-0.1019,-0.4133,-1.5675,0.4778,-25.14,22.02,31.98,,adl
3.35318,0.5005,0.4838,-0.1019,-0.4133,-1.5675,0.4778,-20.88,22.32,35.1,,adl
3.354844,0.5005,0.4838,-0.1019,-0.4671,-1.4892,0.4176,-20.88,22.32,35.1,,adl
3.369297,0.5005,0.4838,-0.1019,-0.4671,-1.4892,0.4176,-20.88,22.32,35.1,,adl
3.370793,-0.2535,1.1525,0.258,-0.4671,-1.4892,0.4176,-20.88,22.32,35.1,,adl
3.372821,-0.2535,1.1525,0.258,-0.5039,-1.4349,0.3787,-20.88,22.32,35.1,,adl
3.394228,-0.2535,1.1525,0.258,-0.6397,-1.4024,0.3324,-20.88,22.32,35.1,,adl
3.414472,-0.2535,1.1525,0.258,-0.6397,-1.4024,0.3324,-16.5,22.86,37.74,,adl
3.416083,-0.2535,1.1525,0.258,-0.9081,-1.363,0.2993,-16.5,22.86,37.74,,adl
3.431122,-0.2535,1.1525,0.258,-0.9081,-1.363,0.2993,-16.5,22.86,37.74,,adl
3.432637,-0.5375,1.8586,-0.7781,-0.9081,-1.363,0.2993,-16.5,22.86,37.74,,adl
3.434584,-0.5375,1.8586,-0.7781,-1.1015,-1.2235,0.2887,-16.5,22.86,37.74,,adl
3.45551,-0.5375,1.8586,-0.7781,-1.1888,-0.8927,0.2216,-16.5,22.86,37.74,,adl
3.477982,-0.5375,1.8586,-0.7781,-1.1888,-0.8927,0.2216,-12.72,22.44,39.72,,adl
3.479692,-0.5375,1.8586,-0.7781,-1.1441,-0.7244,0.1497,-12.72,22.44,39.72,,adl
3.491423,-0.5375,1.8586,-0.7781,-1.1441,-0.7244,0.1497,-12.72,22.44,39.72,,adl
3.491884,1.0791,0.66,1.6249,-1.1441,-0.7244,0.1497,-12.72,22.44,39.72,,adl
3.496908,1.0791,0.66,1.6249,-1.0733,-0.7361,0.0703,-12.72,22.44,39.72,,adl
3.517193,1.0791,0.66,1.6249,-1.0163,-0.865,-0.0644,-12.72,22.44,39.72,,adl
3.538914,1.0791,0.66,1.6249,-1.0163,-0.865,-0.0644,-9.18,21.3,41.22,,adl
3.540898,1.0791,0.66,1.6249,-0.9374,-1.0706,-0.1886,-9.18,21.3,41.22,,adl
3.554716,1.0791,0.66,1.6249,-0.9374,-1.0706,-0.1886,-9.18,21.3,41.22,,adl
3.556394,0.2462,-1.8039,2.3798,-0.9374,-1.0706,-0.1886,-9.18,21.3,41.22,,adl
3.557932,0.2462,-1.8039,2.3798,-0.7313,-1.1878,-0.3537,-9.18,21.3,41.22,,adl
3.579133,0.2462,-1.8039,2.3798,-0.6035,-0.9651,-0.5433,-9.18,21.3,41.22,,adl
3.600857,0.2462,-1.8039,2.3798,-0.6035,-0.9651,-0.5433,-6.24,20.04,42.18,,adl
3.602819,0.2462,-1.8039,2.3798,-0.5374,-0.6274,-0.2828,-6.24,20.04,42.18,,adl
3.615985,0.2462,-1.8039,2.3798,-0.5374,-0.6274,-0.2828,-6.24,20.04,42.18,,adl
3.618227,2.6961,-0.451,-0.6458,-0.5374,-0.6274,-0.2828,-6.24,20.04,42.18,,adl
3.619415,2.6961,-0.451,-0.6458,-0.1784,0.2828,-0.1268,-6.24,20.04,42.18,,adl
3.64085,2.6961,-0.451,-0.6458,-0.1923,0.694,-0.2935,-6.24,20.04,42.18,,adl
3.661618,2.6961,-0.451,-0.6458,-0.1923,0.694,-0.2935,-3.6,17.88,43.56,,adl
3.663567,2.6961,-0.451,-0.6458,-0.4256,0.1348,-0.4655,-3.6,17.88,43.56,,adl
3.678349,2.6961,-0.451,-0.6458,-0.4256,0.1348,-0.4655,-3.6,17.88,43.56,,adl
3.679914,-1.1112,0.364,2.6706,-0.4256,0.1348,-0.4655,-3.6,17.88,43.56,,adl
3.681303,-1.1112,0.364,2.6706,-0.2413,-0.6216,-0.3297,-3.6,17.88,43.56,,adl
3.701908,-1.1112,0.364,2.6706,-0.0655,-0.653,-0.0447,-3.6,17.88,43.56,,adl
3.723514,-1.1112,0.364,2.6706,-0.0655,-0.653,-0.0447,-1.68,16.5,44.4,,adl
3.725468,-1.1112,0.364,2.6706,-0.0511,-0.5992,0.0112,-1.68,16.5,44.4,,adl
3.739453,-1.1112,0.364,2.6706,-0.0511,-0.5992,0.0112,-1.68,16.5,44.4,,adl
3.741112,-0.8825,0.8371,-4.3428,-0.0511,-0.5992,0.0112,-1.68,16.5,44.4,,adl
3.742323,-0.8825,0.8371,-4.3428,-0.2786,-0.5752,-0.0469,-1.68,16.5,44.4,,adl
3.763929,-0.8825,0.8371,-4.3428,-0.6573,-0.3872,-0.1454,-1.68,16.5,44.4,,adl
3.783788,-0.8825,0.8371,-4.3428,-0.6573,-0.3872,-0.1454,-0.3,15.54,44.52,,adl
3.785792,-0.8825,0.8371,-4.3428,-0.9875,0.2099,-0.1246,-0.3,15.54,44.52,,adl
3.801023,-0.8825,0.8371,-4.3428,-0.9875,0.2099,-0.1246,-0.3,15.54,44.52,,adl
3.802698,-1.1732,-0.2902,2.2266,-0.9875,0.2099,-0.1246,-0.3,15.54,44.52,,adl
3.804093,-1.1732,-0.2902,2.2266,-0.9731,0.5598,-0.0485,-0.3,15.54,44.52,,adl
3.825037,-1.1732,-0.2902,2.2266,-0.5944,-0.5657,0.0506,-0.3,15.54,44.52,,adl
3.847085,-1.1732,-0.2902,2.2266,-0.5944,-0.5657,0.0506,0.66,14.76,44.58,,adl
3.848905,-1.1732,-0.2902,2.2266,-0.1965,-0.9326,0.2141,0.66,14.76,44.58,,adl
3.862474,-1.1732,-0.2902,2.2266,-0.1965,-0.9326,0.2141,0.66,14.76,44.58,,adl
3.863941,0.2714,0.2471,-2.0292,-0.1965,-0.9326,0.2141,0.66,14.76,44.58,,adl
3.866829,0.2714,0.2471,-2.0292,-0.0746,-0.1838,0.3153,0.66,14.76,44.58,,adl
3.887138,0.2714,0.2471,-2.0292,-0.2743,0.4543,0.229,0.66,14.76,44.58,,adl
3.907873,0.2714,0.2471,-2.0292,-0.2743,0.4543,0.229,0.84,13.98,44.64,,adl
3.909806,0.2714,0.2471,-2.0292,-0.4517,0.4511,0.0874,0.84,13.98,44.64,,adl
3.923279,0.2714,0.2471,-2.0292,-0.4517,0.4511,0.0874,0.84,13.98,44.64,,adl
3.924848,0.8166,-0.4127,1.0624,-0.4517,0.4511,0.0874,0.84,13.98,44.64,,adl
3.92797,0.8166,-0.4127,1.0624,-0.4463,-0.0314,-0.1262,0.84,13.98,44.64,,adl
3.948399,0.8166,-0.4127,1.0624,-0.318,-0.3846,-0.2296,0.84,13.98,44.64,,adl
3.969682,0.8166,-0.4127,1.0624,-0.318,-0.3846,-0.2296,1.2,12.66,44.7,,adl
3.971439,0.8166,-0.4127,1.0624,-0.1928,-0.3585,-0.2051,1.2,12.66,44.7,,adl
3.985444,0.8166,-0.4127,1.0624,-0.1928,-0.3585,-0.2051,1.2,12.66,44.7,,adl
3.987169,-0.1399,0.1947,-0.0327,-0.1928,-0.3585,-0.2051,1.2,12.66,44.7,,adl
3.988434,-0.1399,0.1947,-0.0327,-0.1747,-0.3441,-0.204,1.2,12.66,44.7,,adl
4.010859,-0.1399,0.1947,-0.0327,-0.2072,-0.3377,-0.2248,1.2,12.66,44.7,,adl
4.031503,-0.1399,0.1947,-0.0327,-0.2072,-0.3377,-0.2248,1.74,11.4,45.0,,adl
4.033735,-0.1399,0.1947,-0.0327,-0.2866,-0.1939,-0.2088,1.74,11.4,45.0,,adl
4.047621,-0.1399,0.1947,-0.0327,-0.2866,-0.1939,-0.2088,1.74,11.4,45.0,,adl
4.049328,-0.6012,-0.1653,-0.5401,-0.2866,-0.1939,-0.2088,1.74,11.4,45.0,,adl
4.050537,-0.6012,-0.1653,-0.5401,-0.3617,0.0197,-0.123,1.74,11.4,45.0,,adl
4.071893,-0.6012,-0.1653,-0.5401,-0.3766,0.2205,-0.0112,1.74,11.4,45.0,,adl
4.092289,-0.6012,-0.1653,-0.5401,-0.3766,0.2205,-0.0112,2.4,10.2,45.42,,adl
4.094259,-0.6012,-0.1653,-0.5401,-0.2972,0.2024,0.0069,2.4,10.2,45.42,,adl
4.10835,-0.6012,-0.1653,-0.5401,-0.2972,0.2024,0.0069,2.4,10.2,45.42,,adl
4.110297,0.0341,-0.1646,1.8253,-0.2972,0.2024,0.0069,2.4,10.2,45.42,,adl
4.11305,0.0341,-0.1646,1.8253,-0.1454,0.0613,-0.033,2.4,10.2,45.42,,adl
4.133303,0.0341,-0.1646,1.8253,0.0133,0.1172,-0.0826,2.4,10.2,45.42,,adl
4.153786,0.0341,-0.1646,1.8253,0.0133,0.1172,-0.0826,2.76,9.3,45.48,,adl
4.155539,0.0341,-0.1646,1.8253,0.1374,0.2967,-0.1204,2.76,9.3,45.48,,adl
4.17034,0.0341,-0.1646,1.8253,0.1374,0.2967,-0.1204,2.76,9.3,45.48,,adl
4.171968,0.2004,-0.1896,0.7982,0.1374,0.2967,-0.1204,2.76,9.3,45.48,,adl
4.174048,0.2004,-0.1896,0.7982,0.212,0.3084,-0.1529,2.76,9.3,45.48,,adl
4.194918,0.2004,-0.1896,0.7982,0.2306,0.1726,-0.2099,2.76,9.3,45.48,,adl
4.215588,0.2004,-0.1896,0.7982,0.2306,0.1726,-0.2099,2.82,8.64,45.66,,adl
4.21769,0.2004,-0.1896,0.7982,0.1827,0.0501,-0.2514,2.82,8.64,45.66,,adl
4.231298,0.2004,-0.1896,0.7982,0.1827,0.0501,-0.2514,2.82,8.64,45.66,,adl
4.232759,-0.7251,0.2293,-0.3724,0.1827,0.0501,-0.2514,2.82,8.64,45.66,,adl
4.235283,-0.7251,0.2293,-0.3724,0.0527,-0.0703,-0.269,2.82,8.64,45.66,,adl
4.256828,-0.7251,0.2293,-0.3724,-0.0751,-0.1417,-0.27,2.82,8.64,45.66,,adl
4.27695,-0.7251,0.2293,-0.3724,-0.0751,-0.1417,-0.27,2.64,8.82,45.66,,adl
4.278385,-0.7251,0.2293,-0.3724,-0.1827,-0.1752,-0.3004,2.64,8.82,45.66,,adl
4.293104,-0.7251,0.2293,-0.3724,-0.1827,-0.1752,-0.3004,2.64,8.82,45.66,,adl
4.294495,-1.2579,0.189,-0.3958,-0.1827,-0.1752,-0.3004,2.64,8.82,45.66,,adl
4.296986,-1.2579,0.189,-0.3958,-0.2344,-0.0959,-0.3132,2.64,8.82,45.66,,adl
4.317754,-1.2579,0.189,-0.3958,-0.2093,0.1177,-0.2892,2.64,8.82,45.66,,adl
4.339233,-1.2579,0.189,-0.3958,-0.2093,0.1177,-0.2892,2.04,8.76,45.72,,adl
4.341255,-1.2579,0.189,-0.3958,-0.1593,0.2924,-0.269,2.04,8.76,45.72,,adl
4.355218,-1.2579,0.189,-0.3958,-0.1593,0.2924,-0.269,2.04,8.76,45.72,,adl
4.356954,-1.4462,-0.9684,0.6894,-0.1593,0.2924,-0.269,2.04,8.76,45.72,,adl
4.358209,-1.4462,-0.9684,0.6894,-0.1097,0.2535,-0.2775,2.04,8.76,45.72,,adl
4.379332,-1.4462,-0.9684,0.6894,-0.1001,-0.0064,-0.2487,2.04,8.76,45.72,,adl
4.399816,-1.4462,-0.9684,0.6894,-0.1001,-0.0064,-0.2487,1.86,8.94,45.78,,adl
4.401934,-1.4462,-0.9684,0.6894,-0.0479,-0.2498,-0.1257,1.86,8.94,45.78,,adl
4.420049,-1.4462,-0.9684,0.6894,-0.0479,-0.2498,-0.1257,1.86,8.94,45.78,,adl
4.421992,-2.1553,-0.1154,0.4445,-0.0479,-0.2498,-0.1257,1.86,8.94,45.78,,adl
4.423259,-2.1553,-0.1154,0.4445,0.0229,-0.2919,0.0368,1.86,8.94,45.78,,adl
4.440227,-2.1553,-0.1154,0.4445,0.0245,-0.2147,0.1406,1.86,8.94,45.78,,adl
4.462538,-2.1553,-0.1154,0.4445,0.0245,-0.2147,0.1406,1.68,9.24,45.84,,adl
4.464456,-2.1553,-0.1154,0.4445,0.0378,-0.2407,0.0975,1.68,9.24,45.84,,adl
4.478305,-2.1553,-0.1154,0.4445,0.0378,-0.2407,0.0975,1.68,9.24,45.84,,adl
4.47985,1.1928,-0.5605,2.298,0.0378,-0.2407,0.0975,1.68,9.24,45.84,,adl
4.481177,1.1928,-0.5605,2.298,0.2189,-0.3292,0.0405,1.68,9.24,45.84,,adl
4.503035,1.1928,-0.5605,2.298,0.5103,-0.58,0.0842,1.68,9.24,45.84,,adl
4.523954,1.1928,-0.5605,2.298,0.734,-0.6727,0.2013,1.68,9.24,45.84,,adl
4.526087,1.1928,-0.5605,2.298,0.734,-0.6727,0.2013,1.62,8.82,45.84,,adl
4.539882,1.1928,-0.5605,2.298,0.734,-0.6727,0.2013,1.62,8.82,45.84,,adl
4.541483,0.0567,-0.9006,1.5984,0.734,-0.6727,0.2013,1.62,8.82,45.84,,adl
4.542678,0.0567,-0.9006,1.5984,0.8767,-0.595,0.3792,1.62,8.82,45.84,,adl
4.564671,0.0567,-0.9006,1.5984,0.947,-0.6493,0.5864,1.62,8.82,45.84,,adl
4.586175,0.0567,-0.9006,1.5984,0.947,-0.6493,0.5864,2.52,9.3,45.6,,adl
4.588062,0.0567,-0.9006,1.5984,0.8954,-0.9129,0.7329,2.52,9.3,45.6,,adl
4.602728,0.0567,-0.9006,1.5984,0.8954,-0.9129,0.7329,2.52,9.3,45.6,,adl
4.604346,0.5508,0.0194,-0.1209,0.8954,-0.9129,0.7329,2.52,9.3,45.6,,adl
4.605633,0.5508,0.0194,-0.1209,0.71,-1.3678,0.7787,2.52,9.3,45.6,,adl
4.625347,0.5508,0.0194,-0.1209,0.5246,-1.6576,0.824,2.52,9.3,45.6,,adl
4.646688,0.5508,0.0194,-0.1209,0.5246,-1.6576,0.824,3.54,9.9,45.42,,adl
4.649451,0.5508,0.0194,-0.1209,0.3073,-1.7273,0.8735,3.54,9.9,45.42,,adl
4.662798,0.5508,0.0194,-0.1209,0.3073,-1.7273,0.8735,3.54,9.9,45.42,,adl
4.663733,0.656,-1.4098,-2.1716,0.3073,-1.7273,0.8735,3.54,9.9,45.42,,adl
4.667734,0.656,-1.4098,-2.1716,0.0506,-1.6192,0.8991,3.54,9.9,45.42,,adl
4.686618,0.656,-1.4098,-2.1716,-0.2104,-1.3955,0.9454,3.54,9.9,45.42,,adl
4.708753,0.656,-1.4098,-2.1716,-0.2104,-1.3955,0.9454,5.94,10.86,44.94,,adl
4.710545,0.656,-1.4098,-2.1716,-0.359,-0.9699,0.9934,5.94,10.86,44.94,,adl
4.723578,0.656,-1.4098,-2.1716,-0.359,-0.9699,0.9934,5.94,10.86,44.94,,adl
4.725077,1.6208,-0.1313,-0.2117,-0.359,-0.9699,0.9934,5.94,10.86,44.94,,adl
4.728032,1.6208,-0.1313,-0.2117,-0.3206,-0.6748,0.9822,5.94,10.86,44.94,,adl
4.749468,1.6208,-0.1313,-0.2117,-0.2232,-0.6727,0.9236,5.94,10.86,44.94,,adl
4.77019,1.6208,-0.1313,-0.2117,-0.2232,-0.6727,0.9236,9.3,12.24,44.22,,adl
4.771737,1.6208,-0.1313,-0.2117,-0.18,-0.7814,0.6578,9.3,12.24,44.22,,adl
4.78674,1.6208,-0.1313,-0.2117,-0.18,-0.7814,0.6578,9.3,12.24,44.22,,adl
4.788282,4.6364,-1.5298,0.3435,-0.18,-0.7814,0.6578,9.3,12.24,44.22,,adl
4.789689,4.6364,-1.5298,0.3435,-0.22,-1.037,0.2754,9.3,12.24,44.22,,adl
4.810552,4.6364,-1.5298,0.3435,-0.1603,-1.1318,0.0703,9.3,12.24,44.22,,adl
4.833275,4.6364,-1.5298,0.3435,-0.1603,-1.1318,0.0703,12.9,12.54,43.02,,adl
4.835632,4.6364,-1.5298,0.3435,-0.0277,-1.0381,-0.0027,12.9,12.54,43.02,,adl
4.847965,4.6364,-1.5298,0.3435,-0.0277,-1.0381,-0.0027,12.9,12.54,43.02,,adl
4.849331,1.9076,0.1065,0.6094,-0.0277,-1.0381,-0.0027,12.9,12.54,43.02,,adl
4.850597,1.9076,0.1065,0.6094,0.0447,-0.9465,-0.0165,12.9,12.54,43.02,,adl
4.872141,1.9076,0.1065,0.6094,-0.0533,-0.824,0.0272,12.9,12.54,43.02,,adl
4.892796,1.9076,0.1065,0.6094,-0.0533,-0.824,0.0272,17.22,12.54,41.64,,adl
4.89455,1.9076,0.1065,0.6094,-0.2354,-0.5667,0.1289,17.22,12.54,41.64,,adl
4.90986,1.9076,0.1065,0.6094,-0.2354,-0.5667,0.1289,17.22,12.54,41.64,,adl
4.911611,0.404,0.5366,-0.1203,-0.2354,-0.5667,0.1289,17.22,12.54,41.64,,adl
4.912928,0.404,0.5366,-0.1203,-0.253,-0.3318,0.2418,17.22,12.54,41.64,,adl
4.933737,0.404,0.5366,-0.1203,-0.1987,-0.1854,0.2903,17.22,12.54,41.64,,adl
4.953913,0.404,0.5366,-0.1203,-0.1987,-0.1854,0.2903,20.46,12.6,40.74,,adl
4.954442,0.404,0.5366,-0.1203,-0.1912,0.0218,0.2759,20.46,12.6,40.74,,adl
4.969441,0.404,0.5366,-0.1203,-0.1912,0.0218,0.2759,20.46,12.6,40.74,,adl
4.969943,2.0458,1.0336,-0.2217,-0.1912,0.0218,0.2759,20.46,12.6,40.74,,adl
4.973706,2.0458,1.0336,-0.2217,-0.2248,0.1886,0.1939,20.46,12.6,40.74,,adl
4.994245,2.0458,1.0336,-0.2217,-0.229,0.2791,0.114,20.46,12.6,40.74,,adl
5.015169,2.0458,1.0336,-0.2217,-0.229,0.2791,0.114,22.26,11.82,40.08,,adl
5.015921,2.0458,1.0336,-0.2217,-0.2376,0.2328,0.065,22.26,11.82,40.08,,adl
5.031751,2.0458,1.0336,-0.2217,-0.2376,0.2328,0.065,22.26,11.82,40.08,,adl
5.032271,-0.6151,0.2111,0.2227,-0.2376,0.2328,0.065,22.26,11.82,40.08,,adl
5.035138,-0.6151,0.2111,0.2227,-0.3174,0.1395,-0.0027,22.26,11.82,40.08,,adl
5.055555,-0.6151,0.2111,0.2227,-0.3404,0.1161,-0.0069,22.26,11.82,40.08,,adl
5.076846,-0.6151,0.2111,0.2227,-0.3404,0.1161,-0.0069,23.46,11.64,40.14,,adl
5.077697,-0.6151,0.2111,0.2227,-0.2487,0.2125,0.0133,23.46,11.64,40.14,,adl
5.092635,-0.6151,0.2111,0.2227,-0.2487,0.2125,0.0133,23.46,11.64,40.14,,adl
5.093198,-0.3949,-0.637,1.0824,-0.2487,0.2125,0.0133,23.46,11.64,40.14,,adl
5.105013,-0.3949,-0.637,1.0824,-0.1715,0.3803,0.0288,23.46,11.64,40.14,,adl
5.117475,-0.3949,-0.637,1.0824,-0.1625,0.3931,0.0064,23.46,11.64,40.14,,adl
5.138115,-0.3949,-0.637,1.0824,-0.1625,0.3931,0.0064,23.52,11.04,40.32,,adl
5.139084,-0.3949,-0.637,1.0824,-0.1539,0.3531,-0.0394,23.52,11.04,40.32,,adl
5.154277,-0.3949,-0.637,1.0824,-0.1539,0.3531,-0.0394,23.52,11.04,40.32,,adl
5.15531,0.5033,0.0594,-0.3805,-0.1539,0.3531,-0.0394,23.52,11.04,40.32,,adl
5.158247,0.5033,0.0594,-0.3805,-0.122,0.3936,-0.1342,23.52,11.04,40.32,,adl
5.178299,0.5033,0.0594,-0.3805,-0.1182,0.62,-0.376,23.52,11.04,40.32,,adl
5.199902,0.5033,0.0594,-0.3805,-0.1182,0.62,-0.376,23.1,10.2,40.32,,adl
5.201194,0.5033,0.0594,-0.3805,-0.1635,0.7878,-0.5662,23.1,10.2,40.32,,adl
5.216735,0.5033,0.0594,-0.3805,-0.1635,0.7878,-0.5662,23.1,10.2,40.32,,adl
5.217546,-0.6097,-3.1156,-0.8096,-0.1635,0.7878,-0.5662,23.1,10.2,40.32,,adl
5.220618,-0.6097,-3.1156,-0.8096,-0.1039,0.8618,-0.4107,23.1,10.2,40.32,,adl
5.240721,-0.6097,-3.1156,-0.8096,0.0543,1.0168,-0.2716,23.1,10.2,40.32,,adl
5.261242,-0.6097,-3.1156,-0.8096,0.1262,1.1974,-0.2727,23.1,10.2,40.32,,adl
5.263194,-0.6097,-3.1156,-0.8096,0.1262,1.1974,-0.2727,22.62,9.72,40.62,,adl
5.277153,-0.6097,-3.1156,-0.8096,0.1262,1.1974,-0.2727,22.62,9.72,40.62,,adl
5.277767,1.2212,0.96,-0.7676,0.1262,1.1974,-0.2727,22.62,9.72,40.62,,adl
5.281576,1.2212,0.96,-0.7676,0.1625,1.0221,-0.2461,22.62,9.72,40.62,,adl
5.301662,1.2212,0.96,-0.7676,0.2402,0.7707,-0.2317,22.62,9.72,40.62,,adl
5.322997,1.2212,0.96,-0.7676,0.2402,0.7707,-0.2317,21.66,9.42,41.22,,adl
5.323869,1.2212,0.96,-0.7676,0.3398,0.6029,-0.2716,21.66,9.42,41.22,,adl
5.33896,1.2212,0.96,-0.7676,0.3398,0.6029,-0.2716,21.66,9.42,41.22,,adl
5.339898,1.1905,0.7321,-4.4332,0.3398,0.6029,-0.2716,21.66,9.42,41.22,,adl
5.342622,1.1905,0.7321,-4.4332,0.3404,0.5433,-0.3148,21.66,9.42,41.22,,adl
5.363571,1.1905,0.7321,-4.4332,0.1955,0.6828,-0.4011,21.66,9.42,41.22,,adl
5.384414,1.1905,0.7321,-4.4332,0.1955,0.6828,-0.4011,20.1,9.54,41.58,,adl
5.385524,1.1905,0.7321,-4.4332,-0.0831,0.947,-0.4234,20.1,9.54,41.58,,adl
5.400473,1.1905,0.7321,-4.4332,-0.0831,0.947,-0.4234,20.1,9.54,41.58,,adl
5.401118,-1.3862,-1.762,-2.2754,-0.0831,0.947,-0.4234,20.1,9.54,41.58,,adl
5.404313,-1.3862,-1.762,-2.2754,-0.3143,1.3103,-0.2876,20.1,9.54,41.58,,adl
5.424741,-1.3862,-1.762,-2.2754,-0.2514,1.0211,-0.0687,20.1,9.54,41.58,,adl
5.446596,-1.3862,-1.762,-2.2754,-0.2514,1.0211,-0.0687,17.82,9.72,42.06,,adl
5.44768,-1.3862,-1.762,-2.2754,-0.0261,0.4831,0.0959,17.82,9.72,42.06,,adl
5.462424,-1.3862,-1.762,-2.2754,-0.0261,0.4831,0.0959,17.82,9.72,42.06,,adl
5.463478,-0.4192,0.3299,-1.9506,-0.0261,0.4831,0.0959,17.82,9.72,42.06,,adl
5.466182,-0.4192,0.3299,-1.9506,0.1875,0.5726,0.0895,17.82,9.72,42.06,,adl
5.487369,-0.4192,0.3299,-1.9506,0.2099,1.29,0.1071,17.82,9.72,42.06,,adl
5.508423,-0.4192,0.3299,-1.9506,0.2099,1.29,0.1071,15.42,10.26,43.2,,adl
5.51009,-0.4192,0.3299,-1.9506,0.2264,1.7454,0.1795,15.42,10.26,43.2,,adl
5.524277,-0.4192,0.3299,-1.9506,0.2264,1.7454,0.1795,15.42,10.26,43.2,,adl
5.525769,0.8618,-0.4572,-0.505,0.2264,1.7454,0.1795,15.42,10.26,43.2,,adl
5.527931,0.8618,-0.4572,-0.505,0.4091,1.7177,0.1539,15.42,10.26,43.2,,adl
5.548887,0.8618,-0.4572,-0.505,0.5923,1.4797,0.0373,15.42,10.26,43.2,,adl
5.569814,0.8618,-0.4572,-0.505,0.5923,1.4797,0.0373,12.72,10.62,43.86,,adl
5.571416,0.8618,-0.4572,-0.505,0.5928,1.2123,-0.123,12.72,10.62,43.86,,adl
5.5864,0.8618,-0.4572,-0.505,0.5928,1.2123,-0.123,12.72,10.62,43.86,,adl
5.588075,0.8856,-0.6805,-2.1889,0.5928,1.2123,-0.123,12.72,10.62,43.86,,adl
5.589643,0.8856,-0.6805,-2.1889,0.4107,0.9966,-0.2812,12.72,10.62,43.86,,adl
5.611285,0.8856,-0.6805,-2.1889,0.1779,0.5704,-0.3388,12.72,10.62,43.86,,adl
5.632177,0.8856,-0.6805,-2.1889,0.1779,0.5704,-0.3388,9.96,11.1,45.12,,adl
5.634095,0.8856,-0.6805,-2.1889,0.1007,0.3004,-0.3244,9.96,11.1,45.12,,adl
5.647669,0.8856,-0.6805,-2.1889,0.1007,0.3004,-0.3244,9.96,11.1,45.12,,adl
5.648628,-1.436,0.2211,-1.8585,0.1007,0.3004,-0.3244,9.96,11.1,45.12,,adl
5.651999,-1.436,0.2211,-1.8585,0.1241,0.4368,-0.2407,9.96,11.1,45.12,,adl
5.672682,-1.436,0.2211,-1.8585,0.18,0.8123,-0.122,9.96,11.1,45.12,,adl
5.694143,-1.436,0.2211,-1.8585,0.18,0.8123,-0.122,7.68,12.0,46.26,,adl
5.695821,-1.436,0.2211,-1.8585,0.3041,1.1302,-0.0186,7.68,12.0,46.26,,adl
5.709471,-1.436,0.2211,-1.8585,0.3041,1.1302,-0.0186,7.68,12.0,46.26,,adl
5.710924,-1.0088,-0.124,-1.1286,0.3041,1.1302,-0.0186,7.68,12.0,46.26,,adl
5.712381,-1.0088,-0.124,-1.1286,0.4479,1.3763,0.0362,7.68,12.0,46.26,,adl
5.734644,-1.0088,-0.124,-1.1286,0.5172,1.656,0.0692,7.68,12.0,46.26,,adl
5.755436,-1.0088,-0.124,-1.1286,0.5172,1.656,0.0692,5.16,12.78,46.32,,adl
5.757447,-1.0088,-0.124,-1.1286,0.5374,1.7875,-0.0426,5.16,12.78,46.32,,adl
5.771791,-1.0088,-0.124,-1.1286,0.5374,1.7875,-0.0426,5.16,12.78,46.32,,adl
5.773409,2.1233,-0.7729,0.084,0.5374,1.7875,-0.0426,5.16,12.78,46.32,,adl
5.774689,2.1233,-0.7729,0.084,0.5859,1.5846,-0.2184,5.16,12.78,46.32,,adl
5.795677,2.1233,-0.7729,0.084,0.7159,1.2565,-0.3771,5.16,12.78,46.32,,adl
5.817387,2.1233,-0.7729,0.084,0.7159,1.2565,-0.3771,1.98,13.74,46.5,,adl
5.819189,2.1233,-0.7729,0.084,0.8266,1.085,-0.4895,1.98,13.74,46.5,,adl
5.83565,2.1233,-0.7729,0.084,0.8266,1.085,-0.4895,1.98,13.74,46.5,,adl
5.837342,0.5091,-0.0482,-1.987,0.8266,1.085,-0.4895,1.98,13.74,46.5,,adl
5.838523,0.5091,-0.0482,-1.987,0.8112,1.1489,-0.5374,1.98,13.74,46.5,,adl
5.857396,0.5091,-0.0482,-1.987,0.6418,1.0418,-0.5241,1.98,13.74,46.5,,adl
5.877742,0.5091,-0.0482,-1.987,0.6418,1.0418,-0.5241,-1.2,14.64,45.66,,adl
5.879252,0.5091,-0.0482,-1.987,0.3249,0.7531,-0.4485,-1.2,14.64,45.66,,adl
5.894755,0.5091,-0.0482,-1.987,0.3249,0.7531,-0.4485,-1.2,14.64,45.66,,adl
5.896228,-2.295,1.296,-2.7427,0.3249,0.7531,-0.4485,-1.2,14.64,45.66,,adl
5.897669,-2.295,1.296,-2.7427,0.0186,0.6413,-0.327,-1.2,14.64,45.66,,adl
5.919128,-2.295,1.296,-2.7427,-0.2104,0.7633,-0.1465,-1.2,14.64,45.66,,adl
5.940721,-2.295,1.296,-2.7427,-0.2104,0.7633,-0.1465,-4.62,15.48,44.52,,adl
5.942583,-2.295,1.296,-2.7427,-0.2519,0.9768,0.0415,-4.62,15.48,44.52,,adl
5.956367,-2.295,1.296,-2.7427,-0.2519,0.9768,0.0415,-4.62,15.48,44.52,,adl
5.958054,-4.3121,0.0233,0.1048,-0.2519,0.9768,0.0415,-4.62,15.48,44.52,,adl
5.959252,-4.3121,0.0233,0.1048,-0.0234,1.1569,0.2093,-4.62,15.48,44.52,,adl
5.981153,-4.3121,0.0233,0.1048,0.22,1.0466,0.1278,-4.62,15.48,44.52,,adl
6.002499,-4.3121,0.0233,0.1048,0.22,1.0466,0.1278,-8.22,16.44,44.04,,adl
6.004333,-4.3121,0.0233,0.1048,0.3894,0.5747,0.0368,-8.22,16.44,44.04,,adl
6.021083,-4.3121,0.0233,0.1048,0.3894,0.5747,0.0368,-8.22,16.44,44.04,,adl
6.022623,-0.542,-0.1598,1.836,0.3894,0.5747,0.0368,-8.22,16.44,44.04,,adl
6.023852,-0.542,-0.1598,1.836,0.5955,0.1736,-0.0666,-8.22,16.44,44.04,,adl
6.04151,-0.542,-0.1598,1.836,0.7233,0.0879,-0.1497,-8.22,16.44,44.04,,adl
6.065437,-0.542,-0.1598,1.836,0.7233,0.0879,-0.1497,-10.8,17.46,43.02,,adl
6.066229,-0.542,-0.1598,1.836,0.718,-0.0474,-0.1864,-10.8,17.46,43.02,,adl
6.078797,-0.542,-0.1598,1.836,0.718,-0.0474,-0.1864,-10.8,17.46,43.02,,adl
6.079745,-2.4762,-0.1282,-1.8209,0.718,-0.0474,-0.1864,-10.8,17.46,43.02,,adl
6.081929,-2.4762,-0.1282,-1.8209,0.6546,-0.2439,-0.1332,-10.8,17.46,43.02,,adl
6.103023,-2.4762,-0.1282,-1.8209,0.5385,-0.2668,0.0096,-10.8,17.46,43.02,,adl
6.124352,-2.4762,-0.1282,-1.8209,0.5385,-0.2668,0.0096,-12.18,18.54,42.6,,adl
6.12616,-2.4762,-0.1282,-1.8209,0.285,-0.1103,0.1609,-12.18,18.54,42.6,,adl
6.140819,-2.4762,-0.1282,-1.8209,0.285,-0.1103,0.1609,-12.18,18.54,42.6,,adl
6.142388,-1.4314,-0.9696,-0.0123,0.285,-0.1103,0.1609,-12.18,18.54,42.6,,adl
6.144024,-1.4314,-0.9696,-0.0123,0.082,0.0352,0.229,-12.18,18.54,42.6,,adl
6.16463,-1.4314,-0.9696,-0.0123,0.2157,-0.2557,0.2168,-12.18,18.54,42.6,,adl
6.185607,-1.4314,-0.9696,-0.0123,0.2157,-0.2557,0.2168,-12.96,19.38,42.36,,adl
6.187386,-1.4314,-0.9696,-0.0123,0.506,-0.7638,0.2674,-12.96,19.38,42.36,,adl
6.202717,-1.4314,-0.9696,-0.0123,0.506,-0.7638,0.2674,-12.96,19.38,42.36,,adl
6.204197,0.7137,-0.3166,0.2043,0.506,-0.7638,0.2674,-12.96,19.38,42.36,,adl
6.205583,0.7137,-0.3166,0.2043,0.6882,-1.0168,0.3686,-12.96,19.38,42.36,,adl
6.226537,0.7137,-0.3166,0.2043,0.6546,-1.0312,0.4938,-12.96,19.38,42.36,,adl
6.246885,0.7137,-0.3166,0.2043,0.6546,-1.0312,0.4938,-13.02,20.22,41.7,,adl
6.248421,0.7137,-0.3166,0.2043,0.5374,-1.1867,0.5316,-13.02,20.22,41.7,,adl
6.263033,0.7137,-0.3166,0.2043,0.5374,-1.1867,0.5316,-13.02,20.22,41.7,,adl
6.263957,0.2242,0.4641,-0.9408,0.5374,-1.1867,0.5316,-13.02,20.22,41.7,,adl
6.267019,0.2242,0.4641,-0.9408,0.5273,-1.4344,0.5662,-13.02,20.22,41.7,,adl
6.286729,0.2242,0.4641,-0.9408,0.5209,-1.3279,0.6477,-13.02,20.22,41.7,,adl
6.308853,0.2242,0.4641,-0.9408,0.5209,-1.3279,0.6477,-11.52,21.24,41.4,,adl
6.309975,0.2242,0.4641,-0.9408,0.4469,-1.0301,0.7121,-11.52,21.24,41.4,,adl
6.324882,0.2242,0.4641,-0.9408,0.4469,-1.0301,0.7121,-11.52,21.24,41.4,,adl
6.32605,0.5596,-1.5001,-1.9944,0.4469,-1.0301,0.7121,-11.52,21.24,41.4,,adl
6.329047,0.5596,-1.5001,-1.9944,0.2551,-0.9119,0.6605,-11.52,21.24,41.4,,adl
6.351246,0.5596,-1.5001,-1.9944,0.0905,-1.0551,0.5374,-11.52,21.24,41.4,,adl
6.371061,0.5596,-1.5001,-1.9944,0.0905,-1.0551,0.5374,-9.18,22.8,41.16,,adl
6.372805,0.5596,-1.5001,-1.9944,0.024,-1.1207,0.4836,-9.18,22.8,41.16,,adl
6.387129,0.5596,-1.5001,-1.9944,0.024,-1.1207,0.4836,-9.18,22.8,41.16,,adl
6.388665,1.4827,-0.4728,-2.0593,0.024,-1.1207,0.4836,-9.18,22.8,41.16,,adl
6.391773,1.4827,-0.4728,-2.0593,-0.0676,-1.0189,0.514,-9.18,22.8,41.16,,adl
6.410513,1.4827,-0.4728,-2.0593,-0.1545,-0.9582,0.572,-9.18,22.8,41.16,,adl
6.433047,1.4827,-0.4728,-2.0593,-0.1545,-0.9582,0.572,-6.48,24.0,41.28,,adl
6.43498,1.4827,-0.4728,-2.0593,-0.1822,-0.9055,0.5784,-6.48,24.0,41.28,,adl
6.449095,1.4827,-0.4728,-2.0593,-0.1822,-0.9055,0.5784,-6.48,24.0,41.28,,adl
6.450165,-0.4105,0.5656,0.6147,-0.1822,-0.9055,0.5784,-6.48,24.0,41.28,,adl
6.45149,-0.4105,0.5656,0.6147,-0.1955,-0.9268,0.5523,-6.48,24.0,41.28,,adl
6.472788,-0.4105,0.5656,0.6147,-0.1678,-0.9417,0.5007,-6.48,24.0,41.28,,adl
6.493975,-0.4105,0.5656,0.6147,-0.1678,-0.9417,0.5007,-2.58,25.68,41.64,,adl
6.494623,-0.4105,0.5656,0.6147,-0.1417,-1.1356,0.3973,-2.58,25.68,41.64,,adl
6.510643,-0.4105,0.5656,0.6147,-0.1417,-1.1356,0.3973,-2.58,25.68,41.64,,adl
6.512193,1.7853,-0.0636,0.9269,-0.1417,-1.1356,0.3973,-2.58,25.68,41.64,,adl
6.513628,1.7853,-0.0636,0.9269,-0.179,-1.3007,0.2147,-2.58,25.68,41.64,,adl
6.534943,1.7853,-0.0636,0.9269,-0.1694,-1.192,0.0362,-2.58,25.68,41.64,,adl
6.556219,1.7853,-0.0636,0.9269,-0.1694,-1.192,0.0362,0.06,26.4,41.94,,adl
6.558093,1.7853,-0.0636,0.9269,-0.0703,-1.0456,-0.0442,0.06,26.4,41.94,,adl
6.571488,1.7853,-0.0636,0.9269,-0.0703,-1.0456,-0.0442,0.06,26.4,41.94,,adl
6.572822,0.9038,0.8536,0.735,-0.0703,-1.0456,-0.0442,0.06,26.4,41.94,,adl
6.575464,0.9038,0.8536,0.735,0.115,-0.7856,0.0016,0.06,26.4,41.94,,adl
6.59679,0.9038,0.8536,0.735,0.2061,-0.5507,0.0948,0.06,26.4,41.94,,adl
6.617486,0.9038,0.8536,0.735,0.2061,-0.5507,0.0948,2.4,26.22,41.76,,adl
6.619307,0.9038,0.8536,0.735,0.2189,-0.3734,0.2162,2.4,26.22,41.76,,adl
6.633007,0.9038,0.8536,0.735,0.2189,-0.3734,0.2162,2.4,26.22,41.76,,adl
6.633976,-0.7901,1.0002,0.3454,0.2189,-0.3734,0.2162,2.4,26.22,41.76,,adl
6.63806,-0.7901,1.0002,0.3454,0.1795,-0.2253,0.2945,2.4,26.22,41.76,,adl
6.658245,-0.7901,1.0002,0.3454,0.1012,-0.1635,0.2551,2.4,26.22,41.76,,adl
6.679682,-0.7901,1.0002,0.3454,0.1012,-0.1635,0.2551,5.28,26.64,41.04,,adl
6.681793,-0.7901,1.0002,0.3454,-0.0261,-0.1955,0.1641,5.28,26.64,41.04,,adl
6.694945,-0.7901,1.0002,0.3454,-0.0261,-0.1955,0.1641,5.28,26.64,41.04,,adl
6.697131,0.0231,0.8555,-0.0554,-0.0261,-0.1955,0.1641,5.28,26.64,41.04,,adl
6.69829,0.0231,0.8555,-0.0554,-0.1598,-0.229,0.09,5.28,26.64,41.04,,adl
6.720331,0.0231,0.8555,-0.0554,-0.2594,-0.1907,0.0559,5.28,26.64,41.04,,adl
6.740873,0.0231,0.8555,-0.0554,-0.2594,-0.1907,0.0559,6.9,26.34,40.62,,adl
6.742577,0.0231,0.8555,-0.0554,-0.3505,-0.098,0.0591,6.9,26.34,40.62,,adl
6.757051,0.0231,0.8555,-0.0554,-0.3505,-0.098,0.0591,6.9,26.34,40.62,,adl
6.75856,0.4175,1.0061,-0.332,-0.3505,-0.098,0.0591,6.9,26.34,40.62,,adl
6.762203,0.4175,1.0061,-0.332,-0.4533,0.0298,0.0613,6.9,26.34,40.62,,adl
6.779954,0.4175,1.0061,-0.332,-0.5555,0.1944,0.0495,6.9,26.34,40.62,,adl
6.80206,0.4175,1.0061,-0.332,-0.5555,0.1944,0.0495,8.34,26.52,40.44,,adl
6.803884,0.4175,1.0061,-0.332,-0.6525,0.3547,0.0,8.34,26.52,40.44,,adl
6.8186,0.4175,1.0061,-0.332,-0.6525,0.3547,0.0,8.34,26.52,40.44,,adl
6.819935,0.6301,0.3268,0.1348,-0.6525,0.3547,0.0,8.34,26.52,40.44,,adl
6.821229,0.6301,0.3268,0.1348,-0.7473,0.4996,-0.0772,8.34,26.52,40.44,,adl
6.843064,0.6301,0.3268,0.1348,-0.783,0.5864,-0.1278,8.34,26.52,40.44,,adl
6.863892,0.6301,0.3268,0.1348,-0.783,0.5864,-0.1278,8.94,26.28,40.8,,adl
6.865994,0.6301,0.3268,0.1348,-0.7713,0.636,-0.1348,8.94,26.28,40.8,,adl
6.880025,0.6301,0.3268,0.1348,-0.7713,0.636,-0.1348,8.94,26.28,40.8,,adl
6.881313,0.3384,-0.1242,1.1628,-0.7713,0.636,-0.1348,8.94,26.28,40.8,,adl
6.882427,0.3384,-0.1242,1.1628,-0.7531,0.6892,-0.1571,8.94,26.28,40.8,,adl
6.904366,0.3384,-0.1242,1.1628,-0.7499,0.7057,-0.2258,8.94,26.28,40.8,,adl
6.925809,0.3384,-0.1242,1.1628,-0.7499,0.7057,-0.2258,8.34,25.08,42.06,,adl
6.927356,0.3384,-0.1242,1.1628,-0.7494,0.6631,-0.2898,8.34,25.08,42.06,,adl
6.942242,0.3384,-0.1242,1.1628,-0.7494,0.6631,-0.2898,8.34,25.08,42.06,,adl
6.943887,-0.6687,-0.8363,0.5519,-0.7494,0.6631,-0.2898,8.34,25.08,42.06,,adl
6.945454,-0.6687,-0.8363,0.5519,-0.6541,0.587,-0.2791,8.34,25.08,42.06,,adl
6.967061,-0.6687,-0.8363,0.5519,-0.5103,0.6184,-0.1997,8.34,25.08,42.06,,adl
6.986976,-0.6687,-0.8363,0.5519,-0.5103,0.6184,-0.1997,7.5,23.88,42.84,,adl
6.988824,-0.6687,-0.8363,0.5519,-0.3952,0.7164,-0.1513,7.5,23.88,42.84,,adl
7.003989,-0.6687,-0.8363,0.5519,-0.3952,0.7164,-0.1513,7.5,23.88,42.84,,adl
7.005508,0.4485,-3.3393,-0.9141,-0.3952,0.7164,-0.1513,7.5,23.88,42.84,,adl
7.007481,0.4485,-3.3393,-0.9141,-0.4123,0.9444,-0.4139,7.5,23.88,42.84,,adl
7.02608,0.4485,-3.3393,-0.9141,-0.4245,0.7851,-0.6903,7.5,23.88,42.84,,adl
7.047686,0.4485,-3.3393,-0.9141,-0.4245,0.7851,-0.6903,6.54,22.14,44.1,,adl
7.048379,0.4485,-3.3393,-0.9141,-0.1619,0.2237,-0.4991,6.54,22.14,44.1,,adl
7.063196,0.4485,-3.3393,-0.9141,-0.1619,0.2237,-0.4991,6.54,22.14,44.1,,adl
7.063615,0.1626,-1.9793,0.1943,-0.1619,0.2237,-0.4991,6.54,22.14,44.1,,adl
7.066856,0.1626,-1.9793,0.1943,0.1166,0.4836,-0.229,6.54,22.14,44.1,,adl
7.090087,0.1626,-1.9793,0.1943,0.3286,1.1792,-0.1699,6.54,22.14,44.1,,adl
7.108924,0.1626,-1.9793,0.1943,0.3286,1.1792,-0.1699,4.62,20.46,44.76,,adl
7.109891,0.1626,-1.9793,0.1943,0.3931,0.9667,-0.0016,4.62,20.46,44.76,,adl
7.125153,0.1626,-1.9793,0.1943,0.3931,0.9667,-0.0016,4.62,20.46,44.76,,adl
7.126124,-0.7448,2.1444,-3.2026,0.3931,0.9667,-0.0016,4.62,20.46,44.76,,adl
7.129075,-0.7448,2.1444,-3.2026,0.2562,0.2088,0.0538,4.62,20.46,44.76,,adl
7.150374,-0.7448,2.1444,-3.2026,0.066,-0.0889,-0.1779,4.62,20.46,44.76,,adl
7.171759,-0.7448,2.1444,-3.2026,0.066,-0.0889,-0.1779,2.82,19.92,45.48,,adl
7.173423,-0.7448,2.1444,-3.2026,-0.1864,0.09,-0.2354,2.82,19.92,45.48,,adl
7.187521,-0.7448,2.1444,-3.2026,-0.1864,0.09,-0.2354,2.82,19.92,45.48,,adl
7.189189,-0.5486,-0.3993,-2.7689,-0.1864,0.09,-0.2354,2.82,19.92,45.48,,adl
7.19075,-0.5486,-0.3993,-2.7689,-0.3041,0.4437,-0.0826,2.82,19.92,45.48,,adl
7.211223,-0.5486,-0.3993,-2.7689,-0.1656,0.5103,-0.0639,2.82,19.92,45.48,,adl
7.233636,-0.5486,-0.3993,-2.7689,-0.1656,0.5103,-0.0639,1.02,19.44,45.9,,adl
7.235337,-0.5486,-0.3993,-2.7689,-0.0591,0.2455,-0.1481,1.02,19.44,45.9,,adl
7.249675,-0.5486,-0.3993,-2.7689,-0.0591,0.2455,-0.1481,1.02,19.44,45.9,,adl
7.250574,-0.2985,-0.4569,-2.66,-0.0591,0.2455,-0.1481,1.02,19.44,45.9,,adl
7.254922,-0.2985,-0.4569,-2.66,-0.0543,-0.0634,-0.2487,1.02,19.44,45.9,,adl
7.274467,-0.2985,-0.4569,-2.66,-0.1678,-0.1779,-0.2546,1.02,19.44,45.9,,adl
7.295352,-0.2985,-0.4569,-2.66,-0.1678,-0.1779,-0.2546,-0.84,19.2,45.84,,adl
7.297125,-0.2985,-0.4569,-2.66,-0.3558,-0.2397,-0.1987,-0.84,19.2,45.84,,adl
7.310936,-0.2985,-0.4569,-2.66,-0.3558,-0.2397,-0.1987,-0.84,19.2,45.84,,adl
7.312415,-0.5357,0.051,-2.0758,-0.3558,-0.2397,-0.1987,-0.84,19.2,45.84,,adl
7.313726,-0.5357,0.051,-2.0758,-0.5167,-0.2759,-0.0666,-0.84,19.2,45.84,,adl
7.335737,-0.5357,0.051,-2.0758,-0.5699,-0.0565,0.017,-0.84,19.2,45.84,,adl
7.356604,-0.5357,0.051,-2.0758,-0.5699,-0.0565,0.017,-1.92,19.2,46.32,,adl
7.357973,-0.5357,0.051,-2.0758,-0.5012,0.1028,0.017,-1.92,19.2,46.32,,adl
7.372839,-0.5357,0.051,-2.0758,-0.5012,0.1028,0.017,-1.92,19.2,46.32,,adl
7.374423,0.5684,0.0452,-0.215,-0.5012,0.1028,0.017,-1.92,19.2,46.32,,adl
7.375765,0.5684,0.0452,-0.215,-0.286,0.115,-0.032,-1.92,19.2,46.32,,adl
7.396897,0.5684,0.0452,-0.215,-0.1257,0.0453,-0.1108,-1.92,19.2,46.32,,adl
7.418812,0.5684,0.0452,-0.215,-0.1257,0.0453,-0.1108,-2.46,18.36,46.26,,adl
7.420462,0.5684,0.0452,-0.215,-0.1012,0.0059,-0.1971,-2.46,18.36,46.26,,adl
7.435507,0.5684,0.0452,-0.215,-0.1012,0.0059,-0.1971,-2.46,18.36,46.26,,adl
7.437285,-0.1268,-0.1732,-1.6884,-0.1012,0.0059,-0.1971,-2.46,18.36,46.26,,adl
7.438415,-0.1268,-0.1732,-1.6884,-0.1864,-0.0767,-0.2796,-2.46,18.36,46.26,,adl
7.459452,-0.1268,-0.1732,-1.6884,-0.2871,-0.3457,-0.2967,-2.46,18.36,46.26,,adl
7.479622,-0.1268,-0.1732,-1.6884,-0.2871,-0.3457,-0.2967,-2.82,17.34,46.92,,adl
7.481474,-0.1268,-0.1732,-1.6884,-0.3723,-0.5028,-0.285,-2.82,17.34,46.92,,adl
7.496177,-0.1268,-0.1732,-1.6884,-0.3723,-0.5028,-0.285,-2.82,17.34,46.92,,adl
7.498011,-1.4878,0.2545,-1.8682,-0.3723,-0.5028,-0.285,-2.82,17.34,46.92,,adl
7.499267,-1.4878,0.2545,-1.8682,-0.4629,-0.433,-0.2642,-2.82,17.34,46.92,,adl
7.52056,-1.4878,0.2545,-1.8682,-0.4698,-0.1944,-0.1806,-2.82,17.34,46.92,,adl
7.541732,-1.4878,0.2545,-1.8682,-0.4698,-0.1944,-0.1806,-2.76,16.8,47.16,,adl
7.543381,-1.4878,0.2545,-1.8682,-0.3611,-0.008,-0.1289,-2.76,16.8,47.16,,adl
7.557458,-1.4878,0.2545,-1.8682,-0.3611,-0.008,-0.1289,-2.76,16.8,47.16,,adl
7.558963,0.1831,0.1957,-0.7144,-0.3611,-0.008,-0.1289,-2.76,16.8,47.16,,adl
7.560205,0.1831,0.1957,-0.7144,-0.2306,0.2029,-0.1635,-2.76,16.8,47.16,,adl
7.582422,0.1831,0.1957,-0.7144,-0.0937,0.5049,-0.2264,-2.76,16.8,47.16,,adl
7.602369,0.1831,0.1957,-0.7144,-0.0937,0.5049,-0.2264,-2.1,15.72,47.64,,adl
7.603969,0.1831,0.1957,-0.7144,0.008,0.6685,-0.3127,-2.1,15.72,47.64,,adl
7.618779,0.1831,0.1957,-0.7144,0.008,0.6685,-0.3127,-2.1,15.72,47.64,,adl
7.620243,0.4938,-0.6432,-0.2887,0.008,0.6685,-0.3127,-2.1,15.72,47.64,,adl
7.622993,0.4938,-0.6432,-0.2887,0.0634,0.5459,-0.4064,-2.1,15.72,47.64,,adl
7.643762,0.4938,-0.6432,-0.2887,0.1193,0.278,-0.5214,-2.1,15.72,47.64,,adl
7.665022,0.4938,-0.6432,-0.2887,0.1193,0.278,-0.5214,-2.1,15.12,48.42,,adl
7.666784,0.4938,-0.6432,-0.2887,0.2184,0.1316,-0.5614,-2.1,15.12,48.42,,adl
7.681155,0.4938,-0.6432,-0.2887,0.2184,0.1316,-0.5614,-2.1,15.12,48.42,,adl
7.682229,-2.2427,0.7861,-0.7552,0.2184,0.1316,-0.5614,-2.1,15.12,48.42,,adl
7.685957,-2.2427,0.7861,-0.7552,0.286,-0.0133,-0.5007,-2.1,15.12,48.42,,adl
7.705567,-2.2427,0.7861,-0.7552,0.2439,-0.1305,-0.3723,-2.1,15.12,48.42,,adl
7.726169,-2.2427,0.7861,-0.7552,0.2439,-0.1305,-0.3723,-2.94,14.7,48.54,,adl
7.728405,-2.2427,0.7861,-0.7552,0.1113,-0.0304,-0.2748,-2.94,14.7,48.54,,adl
7.741782,-2.2427,0.7861,-0.7552,0.1113,-0.0304,-0.2748,-2.94,14.7,48.54,,adl
7.743238,-1.9028,0.6105,-1.0672,0.1113,-0.0304,-0.2748,-2.94,14.7,48.54,,adl
7.746011,-1.9028,0.6105,-1.0672,0.0165,-0.0133,-0.2338,-2.94,14.7,48.54,,adl
7.766912,-1.9028,0.6105,-1.0672,-0.0011,-0.1188,-0.1214,-2.94,14.7,48.54,,adl
7.788436,-1.9028,0.6105,-1.0672,-0.0011,-0.1188,-0.1214,-3.54,14.34,49.02,,adl
7.790305,-1.9028,0.6105,-1.0672,0.0048,-0.057,0.1044,-3.54,14.34,49.02,,adl
7.803621,-1.9028,0.6105,-1.0672,0.0048,-0.057,0.1044,-3.54,14.34,49.02,,adl
7.805162,-1.1836,-0.0084,0.1605,0.0048,-0.057,0.1044,-3.54,14.34,49.02,,adl
7.806484,-1.1836,-0.0084,0.1605,0.0863,0.0719,0.285,-3.54,14.34,49.02,,adl
7.827441,-1.1836,-0.0084,0.1605,0.2929,0.0644,0.2913,-3.54,14.34,49.02,,adl
7.848353,-1.1836,-0.0084,0.1605,0.2929,0.0644,0.2913,-4.5,14.52,49.02,,adl
7.850009,-1.1836,-0.0084,0.1605,0.5614,-0.1294,0.1518,-4.5,14.52,49.02,,adl
7.86455,-1.1836,-0.0084,0.1605,0.5614,-0.1294,0.1518,-4.5,14.52,49.02,,adl
7.865478,2.1695,-3.3115,0.7243,0.5614,-0.1294,0.1518,-4.5,14.52,49.02,,adl
7.868301,2.1695,-3.3115,0.7243,0.9353,-0.2056,-0.0447,-4.5,14.52,49.02,,adl
7.888362,2.1695,-3.3115,0.7243,1.2378,-0.0266,-0.2312,-4.5,14.52,49.02,,adl
7.90956,2.1695,-3.3115,0.7243,1.2378,-0.0266,-0.2312,-4.74,14.94,48.78,,adl
7.910164,2.1695,-3.3115,0.7243,1.2453,0.106,-0.2951,-4.74,14.94,48.78,,adl
7.925884,2.1695,-3.3115,0.7243,1.2453,0.106,-0.2951,-4.74,14.94,48.78,,adl
7.927202,-1.5085,-1.6669,-0.0268,1.2453,0.106,-0.2951,-4.74,14.94,48.78,,adl
7.929258,-1.5085,-1.6669,-0.0268,1.0866,-0.3654,-0.1758,-4.74,14.94,48.78,,adl
7.950385,-1.5085,-1.6669,-0.0268,0.9497,-0.7814,0.0762,-4.74,14.94,48.78,,adl
7.97125,-1.5085,-1.6669,-0.0268,0.9497,-0.7814,0.0762,-4.62,16.08,48.3,,adl
7.972644,-1.5085,-1.6669,-0.0268,0.8746,-0.8687,0.3766,-4.62,16.08,48.3,,adl
7.987234,-1.5085,-1.6669,-0.0268,0.8746,-0.8687,0.3766,-4.62,16.08,48.3,,adl
7.988462,-1.8439,2.02,0.1088,0.8746,-0.8687,0.3766,-4.62,16.08,48.3,,adl
7.990849,-1.8439,2.02,0.1088,0.791,-1.0754,0.6328,-4.62,16.08,48.3,,adl
8.011461,-1.8439,2.02,0.1088,0.6104,-1.2868,0.7505,-4.62,16.08,48.3,,adl
8.033292,-1.8439,2.02,0.1088,0.6104,-1.2868,0.7505,-4.38,17.64,47.4,,adl
8.03468,-1.8439,2.02,0.1088,0.3798,-1.42,0.7942,-4.38,17.64,47.4,,adl
8.049476,-1.8439,2.02,0.1088,0.3798,-1.42,0.7942,-4.38,17.64,47.4,,adl
8.050621,-0.8322,-0.1274,-1.9722,0.3798,-1.42,0.7942,-4.38,17.64,47.4,,adl
8.052597,-0.8322,-0.1274,-1.9722,0.2221,-1.6091,0.8416,-4.38,17.64,47.4,,adl
8.073802,-0.8322,-0.1274,-1.9722,0.1369,-1.9058,0.824,-4.38,17.64,47.4,,adl
8.094371,-0.8322,-0.1274,-1.9722,0.1369,-1.9058,0.824,-3.24,19.74,46.44,,adl
8.096609,-0.8322,-0.1274,-1.9722,0.1033,-2.1103,0.7217,-3.24,19.74,46.44,,adl
8.11083,-0.8322,-0.1274,-1.9722,0.1033,-2.1103,0.7217,-3.24,19.74,46.44,,adl
8.112319,2.4942,-2.171,-0.9732,0.1033,-2.1103,0.7217,-3.24,19.74,46.44,,adl
8.114681,2.4942,-2.171,-0.9732,0.1662,-1.8967,0.6067,-3.24,19.74,46.44,,adl
8.134866,2.4942,-2.171,-0.9732,0.3089,-1.2586,0.5167,-3.24,19.74,46.44,,adl
8.156351,2.4942,-2.171,-0.9732,0.3089,-1.2586,0.5167,-0.84,21.96,45.36,,adl
8.158605,2.4942,-2.171,-0.9732,0.4139,-0.8405,0.4213,-0.84,21.96,45.36,,adl
8.173105,2.4942,-2.171,-0.9732,0.4139,-0.8405,0.4213,-0.84,21.96,45.36,,adl
8.175718,3.4745,-0.9242,-0.0871,0.4139,-0.8405,0.4213,-0.84,21.96,45.36,,adl
8.177515,3.4745,-0.9242,-0.0871,0.5502,-0.621,0.4357,-0.84,21.96,45.36,,adl
8.196801,3.4745,-0.9242,-0.0871,0.8123,-0.4996,0.5577,-0.84,21.96,45.36,,adl
8.217435,3.4745,-0.9242,-0.0871,0.8123,-0.4996,0.5577,3.6,23.76,43.98,,adl
8.218195,3.4745,-0.9242,-0.0871,0.946,-0.5172,0.628,3.6,23.76,43.98,,adl
8.236992,3.4745,-0.9242,-0.0871,0.946,-0.5172,0.628,3.6,23.76,43.98,,adl
8.238592,0.4003,-0.5469,-1.1455,0.946,-0.5172,0.628,3.6,23.76,43.98,,adl
8.24006,0.4003,-0.5469,-1.1455,0.8314,-0.6573,0.6685,3.6,23.76,43.98,,adl
8.257957,0.4003,-0.5469,-1.1455,0.685,-0.5997,0.6999,3.6,23.76,43.98,,adl
8.279749,0.4003,-0.5469,-1.1455,0.685,-0.5997,0.6999,8.1,24.66,43.08,,adl
8.282134,0.4003,-0.5469,-1.1455,0.5726,-0.5055,0.653,8.1,24.66,43.08,,adl
8.295562,0.4003,-0.5469,-1.1455,0.5726,-0.5055,0.653,8.1,24.66,43.08,,adl
8.297747,0.4377,0.034,-1.2655,0.5726,-0.5055,0.653,8.1,24.66,43.08,,adl
8.299426,0.4377,0.034,-1.2655,0.4634,-0.5886,0.5108,8.1,24.66,43.08,,adl
8.319873,0.4377,0.034,-1.2655,0.3201,-0.7547,0.3478,8.1,24.66,43.08,,adl
8.341102,0.4377,0.034,-1.2655,0.3201,-0.7547,0.3478,11.76,25.56,42.24,,adl
8.343334,0.4377,0.034,-1.2655,0.2312,-0.8128,0.1859,11.76,25.56,42.24,,adl
8.357389,0.4377,0.034,-1.2655,0.2312,-0.8128,0.1859,11.76,25.56,42.24,,adl
8.359307,1.6994,0.4652,-1.768,0.2312,-0.8128,0.1859,11.76,25.56,42.24,,adl
8.360881,1.6994,0.4652,-1.768,0.2013,-0.6898,0.0847,11.76,25.56,42.24,,adl
8.382096,1.6994,0.4652,-1.768,0.1475,-0.359,0.0107,11.76,25.56,42.24,,adl
8.403397,1.6994,0.4652,-1.768,0.1475,-0.359,0.0107,14.7,26.52,41.28,,adl
8.40628,1.6994,0.4652,-1.768,0.0282,0.2088,-0.0266,14.7,26.52,41.28,,adl
8.420173,1.6994,0.4652,-1.768,0.0282,0.2088,-0.0266,14.7,26.52,41.28,,adl
8.423384,2.3575,1.5766,-2.0236,0.0282,0.2088,-0.0266,14.7,26.52,41.28,,adl
8.425591,2.3575,1.5766,-2.0236,-0.1385,0.6551,-0.0458,14.7,26.52,41.28,,adl
8.443779,2.3575,1.5766,-2.0236,-0.3143,0.865,-0.1225,14.7,26.52,41.28,,adl
8.46506,2.3575,1.5766,-2.0236,-0.3143,0.865,-0.1225,16.32,27.24,40.5,,adl
8.467994,2.3575,1.5766,-2.0236,-0.4266,0.9225,-0.1827,16.32,27.24,40.5,,adl
8.480969,2.3575,1.5766,-2.0236,-0.4266,0.9225,-0.1827,16.32,27.24,40.5,,adl
8.482684,1.9784,0.1324,-2.11,-0.4266,0.9225,-0.1827,16.32,27.24,40.5,,adl
8.484469,1.9784,0.1324,-2.11,-0.5007,1.0237,-0.228,16.32,27.24,40.5,,adl
8.505287,1.9784,0.1324,-2.11,-0.5715,1.184,-0.3121,16.32,27.24,40.5,,adl
8.526783,1.9784,0.1324,-2.11,-0.5715,1.184,-0.3121,17.58,28.2,40.08,,adl
8.530024,1.9784,0.1324,-2.11,-0.637,1.3172,-0.3851,17.58,28.2,40.08,,adl
8.542445,1.9784,0.1324,-2.11,-0.637,1.3172,-0.3851,17.58,28.2,40.08,,adl
8.544786,0.7482,0.741,-0.7347,-0.637,1.3172,-0.3851,17.58,28.2,40.08,,adl
8.546422,0.7482,0.741,-0.7347,-0.6988,1.4908,-0.3824,17.58,28.2,40.08,,adl
8.567347,0.7482,0.741,-0.7347,-0.7398,1.6352,-0.3435,17.58,28.2,40.08,,adl
8.58825,0.7482,0.741,-0.7347,-0.7398,1.6352,-0.3435,17.1,28.38,40.08,,adl
8.590896,0.7482,0.741,-0.7347,-0.7681,1.6991,-0.3308,17.1,28.38,40.08,,adl
8.60318,0.7482,0.741,-0.7347,-0.7681,1.6991,-0.3308,17.1,28.38,40.08,,adl
8.604347,-0.9988,-0.058,0.1725,-0.7681,1.6991,-0.3308,17.1,28.38,40.08,,adl
8.607194,-0.9988,-0.058,0.1725,-0.8085,1.5058,-0.2514,17.1,28.38,40.08,,adl
8.628148,-0.9988,-0.058,0.1725,-0.7377,1.1899,-0.1017,17.1,28.38,40.08,,adl
8.649367,-0.9988,-0.058,0.1725,-0.7377,1.1899,-0.1017,14.58,27.42,41.22,,adl
8.650495,-0.9988,-0.058,0.1725,-0.5854,1.0615,0.0591,14.58,27.42,41.22,,adl
8.664999,-0.9988,-0.058,0.1725,-0.5854,1.0615,0.0591,14.58,27.42,41.22,,adl
8.665879,-2.7072,-3.0537,3.414,-0.5854,1.0615,0.0591,14.58,27.42,41.22,,adl
8.669222,-2.7072,-3.0537,3.414,-0.4298,1.1223,0.2051,14.58,27.42,41.22,,adl
8.690923,-2.7072,-3.0537,3.414,-0.2258,0.9838,0.2429,14.58,27.42,41.22,,adl
8.711239,-2.7072,-3.0537,3.414,-0.2258,0.9838,0.2429,11.58,26.16,43.44,,adl
8.713296,-2.7072,-3.0537,3.414,-0.0069,0.9406,0.1348,11.58,26.16,43.44,,adl
8.727182,-2.7072,-3.0537,3.414,-0.0069,0.9406,0.1348,11.58,26.16,43.44,,adl
8.728445,2.1715,-0.0951,2.432,-0.0069,0.9406,0.1348,11.58,26.16,43.44,,adl
8.731321,2.1715,-0.0951,2.432,0.1316,1.0605,-0.065,11.58,26.16,43.44,,adl
8.752011,2.1715,-0.0951,2.432,0.1715,1.2224,-0.4692,11.58,26.16,43.44,,adl
8.773581,2.1715,-0.0951,2.432,0.1715,1.2224,-0.4692,7.5,24.66,44.76,,adl
8.775024,2.1715,-0.0951,2.432,0.0826,1.2235,-0.6589,7.5,24.66,44.76,,adl
8.789538,2.1715,-0.0951,2.432,0.0826,1.2235,-0.6589,7.5,24.66,44.76,,adl
8.79105,1.1362,-3.5125,-0.9993,0.0826,1.2235,-0.6589,7.5,24.66,44.76,,adl
8.792311,1.1362,-3.5125,-0.9993,0.0325,1.297,-0.498,7.5,24.66,44.76,,adl
8.814328,1.1362,-3.5125,-0.9993,0.0447,1.4823,-0.4021,7.5,24.66,44.76,,adl
8.834134,1.1362,-3.5125,-0.9993,0.0447,1.4823,-0.4021,4.26,23.58,46.14,,adl
8.835731,1.1362,-3.5125,-0.9993,-0.0261,1.8924,-0.4048,4.26,23.58,46.14,,adl
8.851306,1.1362,-3.5125,-0.9993,-0.0261,1.8924,-0.4048,4.26,23.58,46.14,,adl
8.852859,-0.171,0.6553,0.6793,-0.0261,1.8924,-0.4048,4.26,23.58,46.14,,adl
8.854034,-0.171,0.6553,0.6793,0.0405,2.0032,-0.2631,4.26,23.58,46.14,,adl
8.875516,-0.171,0.6553,0.6793,0.2402,1.5564,-0.1007,4.26,23.58,46.14,,adl
8.896815,-0.171,0.6553,0.6793,0.2402,1.5564,-0.1007,1.26,22.86,46.26,,adl
8.897573,-0.171,0.6553,0.6793,0.4059,1.0333,-0.0778,1.26,22.86,46.26,,adl
8.913171,-0.171,0.6553,0.6793,0.4059,1.0333,-0.0778,1.26,22.86,46.26,,adl
8.914862,0.7458,2.0247,-2.6065,0.4059,1.0333,-0.0778,1.26,22.86,46.26,,adl
8.916186,0.7458,2.0247,-2.6065,0.4133,0.4538,-0.0501,1.26,22.86,46.26,,adl
8.937329,0.7458,2.0247,-2.6065,0.1103,0.1044,-0.1577,1.26,22.86,46.26,,adl
8.958296,0.7458,2.0247,-2.6065,0.1103,0.1044,-0.1577,-3.06,22.62,45.6,,adl
8.95996,0.7458,2.0247,-2.6065,-0.27,0.6951,-0.2221,-3.06,22.62,45.6,,adl
8.974797,0.7458,2.0247,-2.6065,-0.27,0.6951,-0.2221,-3.06,22.62,45.6,,adl
8.976412,-0.0649,-1.9483,-3.4514,-0.27,0.6951,-0.2221,-3.06,22.62,45.6,,adl
8.977728,-0.0649,-1.9483,-3.4514,-0.4416,1.5042,-0.1917,-3.06,22.62,45.6,,adl
8.998489,-0.0649,-1.9483,-3.4514,-0.3824,2.0474,-0.1246,-3.06,22.62,45.6,,adl
9.019411,-0.0649,-1.9483,-3.4514,-0.3824,2.0474,-0.1246,-6.54,22.74,45.18,,adl
9.021446,-0.0649,-1.9483,-3.4514,-0.0037,1.8461,-0.0495,-6.54,22.74,45.18,,adl
9.034684,-0.0649,-1.9483,-3.4514,-0.0037,1.8461,-0.0495,-6.54,22.74,45.18,,adl
9.035975,1.2905,0.2856,1.9481,-0.0037,1.8461,-0.0495,-6.54,22.74,45.18,,adl
9.038529,1.2905,0.2856,1.9481,0.3451,1.0994,0.0937,-6.54,22.74,45.18,,adl
9.059577,1.2905,0.2856,1.9481,0.4767,0.8815,0.1949,-6.54,22.74,45.18,,adl
9.081731,1.2905,0.2856,1.9481,0.4767,0.8815,0.1949,-9.72,22.68,44.4,,adl
9.08334,1.2905,0.2856,1.9481,0.433,1.2618,0.172,-9.72,22.68,44.4,,adl
9.097285,1.2905,0.2856,1.9481,0.433,1.2618,0.172,-9.72,22.68,44.4,,adl
9.098394,1.015,-0.7044,-1.4195,0.433,1.2618,0.172,-9.72,22.68,44.4,,adl
9.102846,1.015,-0.7044,-1.4195,0.4064,1.4839,0.1475,-9.72,22.68,44.4,,adl
9.122088,1.015,-0.7044,-1.4195,0.4405,1.452,0.1214,-9.72,22.68,44.4,,adl
9.143069,1.015,-0.7044,-1.4195,0.4405,1.452,0.1214,-12.96,23.04,43.56,,adl
9.1447,1.015,-0.7044,-1.4195,0.4075,1.3129,0.0772,-12.96,23.04,43.56,,adl
9.158603,1.015,-0.7044,-1.4195,0.4075,1.3129,0.0772,-12.96,23.04,43.56,,adl
9.16012,-0.1321,0.1851,-0.2799,0.4075,1.3129,0.0772,-12.96,23.04,43.56,,adl
9.161485,-0.1321,0.1851,-0.2799,0.2977,1.1931,0.0149,-12.96,23.04,43.56,,adl
9.183532,-0.1321,0.1851,-0.2799,0.2631,1.1473,-0.0123,-12.96,23.04,43.56,,adl
9.203756,-0.1321,0.1851,-0.2799,0.2631,1.1473,-0.0123,-15.72,23.64,42.42,,adl
9.205564,-0.1321,0.1851,-0.2799,0.2823,1.1521,0.0005,-15.72,23.64,42.42,,adl
9.221329,-0.1321,0.1851,-0.2799,0.2823,1.1521,0.0005,-15.72,23.64,42.42,,adl
9.222706,-0.4025,0.4,0.0111,0.2823,1.1521,0.0005,-15.72,23.64,42.42,,adl
9.223913,-0.4025,0.4,0.0111,0.2519,1.2197,0.0266,-15.72,23.64,42.42,,adl
9.24369,-0.4025,0.4,0.0111,0.1827,1.354,0.0394,-15.72,23.64,42.42,,adl
9.267,-0.4025,0.4,0.0111,0.1827,1.354,0.0394,-18.54,24.36,40.92,,adl
9.268985,-0.4025,0.4,0.0111,0.1481,1.4541,0.0261,-18.54,24.36,40.92,,adl
9.282293,-0.4025,0.4,0.0111,0.1481,1.4541,0.0261,-18.54,24.36,40.92,,adl
9.283172,-0.3833,0.5851,0.8552,0.1481,1.4541,0.0261,-18.54,24.36,40.92,,adl
9.287452,-0.3833,0.5851,0.8552,0.1822,1.4152,-0.0469,-18.54,24.36,40.92,,adl
9.307017,-0.3833,0.5851,0.8552,0.2083,1.2884,-0.187,-18.54,24.36,40.92,,adl
9.327873,-0.3833,0.5851,0.8552,0.2083,1.2884,-0.187,-21.24,25.5,38.76,,adl
9.329716,-0.3833,0.5851,0.8552,0.1688,1.1899,-0.2972,-21.24,25.5,38.76,,adl
9.342995,-0.3833,0.5851,0.8552,0.1688,1.1899,-0.2972,-21.24,25.5,38.76,,adl
9.344368,-1.1437,0.3015,1.3019,0.1688,1.1899,-0.2972,-21.24,25.5,38.76,,adl
9.347595,-1.1437,0.3015,1.3019,0.1156,1.2085,-0.334,-21.24,25.5,38.76,,adl
9.367989,-1.1437,0.3015,1.3019,0.1944,1.1015,-0.2599,-21.24,25.5,38.76,,adl
9.388901,-1.1437,0.3015,1.3019,0.1944,1.1015,-0.2599,-24.12,25.92,36.3,,adl
9.390607,-1.1437,0.3015,1.3019,0.3702,0.7862,-0.1497,-24.12,25.92,36.3,,adl
9.405649,-1.1437,0.3015,1.3019,0.3702,0.7862,-0.1497,-24.12,25.92,36.3,,adl
9.407263,-2.4131,-0.0796,1.0774,0.3702,0.7862,-0.1497,-24.12,25.92,36.3,,adl
9.408635,-2.4131,-0.0796,1.0774,0.4826,0.5406,-0.0389,-24.12,25.92,36.3,,adl
9.429974,-2.4131,-0.0796,1.0774,0.5198,0.7808,0.066,-24.12,25.92,36.3,,adl
9.450685,-2.4131,-0.0796,1.0774,0.5198,0.7808,0.066,-26.7,26.22,33.72,,adl
9.452438,-2.4131,-0.0796,1.0774,0.5252,1.2613,0.13,-26.7,26.22,33.72,,adl
9.467876,-2.4131,-0.0796,1.0774,0.5252,1.2613,0.13,-26.7,26.22,33.72,,adl
9.469381,-0.8467,0.2778,1.9676,0.5252,1.2613,0.13,-26.7,26.22,33.72,,adl
9.47052,-0.8467,0.2778,1.9676,0.6775,1.396,0.1806,-26.7,26.22,33.72,,adl
9.490522,-0.8467,0.2778,1.9676,0.9353,1.2432,0.1614,-26.7,26.22,33.72,,adl
9.513457,-0.8467,0.2778,1.9676,0.9353,1.2432,0.1614,-29.1,26.34,31.08,,adl
9.515299,-0.8467,0.2778,1.9676,0.9689,0.9641,0.2333,-29.1,26.34,31.08,,adl
9.528903,-0.8467,0.2778,1.9676,0.9689,0.9641,0.2333,-29.1,26.34,31.08,,adl
9.530004,-2.5689,-2.1292,0.5496,0.9689,0.9641,0.2333,-29.1,26.34,31.08,,adl
9.53131,-2.5689,-2.1292,0.5496,0.8149,0.6615,0.3979,-29.1,26.34,31.08,,adl
9.552433,-2.5689,-2.1292,0.5496,0.7739,0.3398,0.4085,-29.1,26.34,31.08,,adl
9.574122,-2.5689,-2.1292,0.5496,0.7739,0.3398,0.4085,-31.68,26.88,28.2,,adl
9.575837,-2.5689,-2.1292,0.5496,0.8959,-0.0314,0.3265,-31.68,26.88,28.2,,adl
9.590286,-2.5689,-2.1292,0.5496,0.8959,-0.0314,0.3265,-31.68,26.88,28.2,,adl
9.591869,-1.7317,-2.3129,1.7871,0.8959,-0.0314,0.3265,-31.68,26.88,28.2,,adl
9.593347,-1.7317,-2.3129,1.7871,1.0344,-0.5507,0.2525,-31.68,26.88,28.2,,adl
9.613695,-1.7317,-2.3129,1.7871,1.2,-0.841,0.2855,-31.68,26.88,28.2,,adl
9.636115,-1.7317,-2.3129,1.7871,1.2,-0.841,0.2855,-33.06,28.8,25.44,,adl
9.638141,-1.7317,-2.3129,1.7871,1.3939,-0.7814,0.3862,-33.06,28.8,25.44,,adl
9.650986,-1.7317,-2.3129,1.7871,1.3939,-0.7814,0.3862,-33.06,28.8,25.44,,adl
9.652209,0.9504,0.3287,-0.8839,1.3939,-0.7814,0.3862,-33.06,28.8,25.44,,adl
9.654789,0.9504,0.3287,-0.8839,1.3508,-0.6919,0.5023,-33.06,28.8,25.44,,adl
9.675873,0.9504,0.3287,-0.8839,1.1286,-0.5625,0.6834,-33.06,28.8,25.44,,adl
9.697277,0.9504,0.3287,-0.8839,1.1286,-0.5625,0.6834,-33.12,30.54,23.58,,adl
9.699378,0.9504,0.3287,-0.8839,0.8432,-0.3409,0.8368,-33.12,30.54,23.58,,adl
9.713429,0.9504,0.3287,-0.8839,0.8432,-0.3409,0.8368,-33.12,30.54,23.58,,adl
9.714376,1.2054,-0.5598,-1.8428,0.8432,-0.3409,0.8368,-33.12,30.54,23.58,,adl
9.718887,1.2054,-0.5598,-1.8428,0.4799,-0.3457,0.8964,-33.12,30.54,23.58,,adl
9.737716,1.2054,-0.5598,-1.8428,0.1667,-0.7036,0.6242,-33.12,30.54,23.58,,adl
9.758754,1.2054,-0.5598,-1.8428,0.1667,-0.7036,0.6242,-32.1,32.58,21.06,,adl
9.760647,1.2054,-0.5598,-1.8428,0.2892,-1.0338,0.3238,-32.1,32.58,21.06,,adl
9.774887,1.2054,-0.5598,-1.8428,0.2892,-1.0338,0.3238,-32.1,32.58,21.06,,adl
9.776937,1.3917,-0.6979,0.1796,0.2892,-1.0338,0.3238,-32.1,32.58,21.06,,adl
9.778119,1.3917,-0.6979,0.1796,0.595,-1.1595,0.1566,-32.1,32.58,21.06,,adl
9.798983,1.3917,-0.6979,0.1796,0.5444,-0.9348,0.1044,-32.1,32.58,21.06,,adl
9.819149,1.3917,-0.6979,0.1796,0.5444,-0.9348,0.1044,-30.0,34.92,20.34,,adl
9.820957,1.3917,-0.6979,0.1796,0.3116,-0.5358,0.0852,-30.0,34.92,20.34,,adl
9.83503,1.3917,-0.6979,0.1796,0.3116,-0.5358,0.0852,-30.0,34.92,20.34,,adl
9.835766,3.2694,0.7012,-0.3947,0.3116,-0.5358,0.0852,-30.0,34.92,20.34,,adl
9.83984,3.2694,0.7012,-0.3947,0.2189,-0.3009,-0.0586,-30.0,34.92,20.34,,adl
9.860081,3.2694,0.7012,-0.3947,0.3702,0.1268,-0.1609,-30.0,34.92,20.34,,adl
9.882641,3.2694,0.7012,-0.3947,0.3702,0.1268,-0.1609,-27.78,36.36,20.46,,adl
9.884436,3.2694,0.7012,-0.3947,0.4394,0.4048,-0.1518,-27.78,36.36,20.46,,adl
9.897679,3.2694,0.7012,-0.3947,0.4394,0.4048,-0.1518,-27.78,36.36,20.46,,adl
9.898795,1.0252,0.1396,-0.5258,0.4394,0.4048,-0.1518,-27.78,36.36,20.46,,adl
9.903506,1.0252,0.1396,-0.5258,0.2392,0.2525,-0.0735,-27.78,36.36,20.46,,adl
9.923212,1.0252,0.1396,-0.5258,0.0005,-0.0884,-0.0538,-27.78,36.36,20.46,,adl
9.94335,1.0252,0.1396,-0.5258,0.0005,-0.0884,-0.0538,-26.46,37.68,19.56,,adl
9.9452,1.0252,0.1396,-0.5258,-0.1065,-0.2423,-0.0863,-26.46,37.68,19.56,,adl
9.959841,1.0252,0.1396,-0.5258,-0.1065,-0.2423,-0.0863,-26.46,37.68,19.56,,adl
9.961606,1.0846,1.263,-0.6923,-0.1065,-0.2423,-0.0863,-26.46,37.68,19.56,,adl
9.962918,1.0846,1.263,-0.6923,-0.1161,0.0053,-0.1699,-26.46,37.68,19.56,,adl
9.983125,1.0846,1.263,-0.6923,-0.172,0.4,-0.2562,-26.46,37.68,19.56,,adl
10.0047,1.0846,1.263,-0.6923,-0.2471,0.8043,-0.2695,-26.46,37.68,19.56,,adl
10.00659,1.0846,1.263,-0.6923,-0.2471,0.8043,-0.2695,-25.5,38.34,19.74,,adl
10.020746,1.0846,1.263,-0.6923,-0.2471,0.8043,-0.2695,-25.5,38.34,19.74,,adl
10.022415,0.5784,1.2003,-0.1176,-0.2471,0.8043,-0.2695,-25.5,38.34,19.74,,adl
10.024081,0.5784,1.2003,-0.1176,-0.2882,1.0637,-0.2551,-25.5,38.34,19.74,,adl
10.044974,0.5784,1.2003,-0.1176,-0.3217,0.9982,-0.2184,-25.5,38.34,19.74,,adl
10.066653,0.5784,1.2003,-0.1176,-0.3217,0.9982,-0.2184,-25.62,38.58,18.84,,adl
10.068664,0.5784,1.2003,-0.1176,-0.3462,0.6823,-0.1816,-25.62,38.58,18.84,,adl
10.082724,0.5784,1.2003,-0.1176,-0.3462,0.6823,-0.1816,-25.62,38.58,18.84,,adl
10.083589,-0.9368,0.3014,1.6597,-0.3462,0.6823,-0.1816,-25.62,38.58,18.84,,adl
10.088214,-0.9368,0.3014,1.6597,-0.3824,0.2951,-0.115,-25.62,38.58,18.84,,adl
10.107594,-0.9368,0.3014,1.6597,-0.4186,-0.0048,0.0325,-25.62,38.58,18.84,,adl
10.128721,-0.9368,0.3014,1.6597,-0.4186,-0.0048,0.0325,-26.7,38.4,18.06,,adl
10.130425,-0.9368,0.3014,1.6597,-0.4522,-0.0501,0.2322,-26.7,38.4,18.06,,adl
10.144661,-0.9368,0.3014,1.6597,-0.4522,-0.0501,0.2322,-26.7,38.4,18.06,,adl
10.146213,-3.1732,-0.0561,2.7326,-0.4522,-0.0501,0.2322,-26.7,38.4,18.06,,adl
10.147422,-3.1732,-0.0561,2.7326,-0.4437,-0.0463,0.3915,-26.7,38.4,18.06,,adl
10.168044,-3.1732,-0.0561,2.7326,-0.2935,-0.0394,0.2626,-26.7,38.4,18.06,,adl
10.188443,-3.1732,-0.0561,2.7326,-0.2935,-0.0394,0.2626,-27.48,38.22,17.88,,adl
10.189107,-3.1732,-0.0561,2.7326,-0.0879,0.1678,0.163,-27.48,38.22,17.88,,adl
10.204631,-3.1732,-0.0561,2.7326,-0.0879,0.1678,0.163,-27.48,38.22,17.88,,adl
10.205188,2.3992,-0.9413,2.7114,-0.0879,0.1678,0.163,-27.48,38.22,17.88,,adl
10.20874,2.3992,-0.9413,2.7114,0.0437,0.4527,0.1033,-27.48,38.22,17.88,,adl
10.228782,2.3992,-0.9413,2.7114,0.0639,0.5161,-0.0501,-27.48,38.22,17.88,,adl
10.250243,2.3992,-0.9413,2.7114,0.0639,0.5161,-0.0501,-27.6,37.62,17.58,,adl
10.250947,2.3992,-0.9413,2.7114,-0.0437,0.2493,-0.3217,-27.6,37.62,17.58,,adl
10.266397,2.3992,-0.9413,2.7114,-0.0437,0.2493,-0.3217,-27.6,37.62,17.58,,adl
10.267401,2.1133,-1.5078,0.6241,-0.0437,0.2493,-0.3217,-27.6,37.62,17.58,,adl
10.26974,2.1133,-1.5078,0.6241,-0.2029,0.0613,-0.6152,-27.6,37.62,17.58,,adl
10.29083,2.1133,-1.5078,0.6241,-0.441,0.1886,-0.7974,-27.6,37.62,17.58,,adl
10.312438,2.1133,-1.5078,0.6241,-0.441,0.1886,-0.7974,-28.02,36.78,18.0,,adl
10.313372,2.1133,-1.5078,0.6241,-0.563,0.6525,-0.6562,-28.02,36.78,18.0,,adl
10.328306,2.1133,-1.5078,0.6241,-0.563,0.6525,-0.6562,-28.02,36.78,18.0,,adl
10.329237,-0.2649,-0.9232,-0.447,-0.563,0.6525,-0.6562,-28.02,36.78,18.0,,adl
10.331909,-0.2649,-0.9232,-0.447,-0.5028,1.044,-0.3952,-28.02,36.78,18.0,,adl
10.352347,-0.2649,-0.9232,-0.447,-0.3153,1.5691,-0.1571,-28.02,36.78,18.0,,adl
10.374281,-0.2649,-0.9232,-0.447,-0.3153,1.5691,-0.1571,-28.08,36.24,17.52,,adl
10.375537,-0.2649,-0.9232,-0.447,0.0836,1.8488,0.1129,-28.08,36.24,17.52,,adl
10.390181,-0.2649,-0.9232,-0.447,0.0836,1.8488,0.1129,-28.08,36.24,17.52,,adl
10.391103,-1.3234,-0.9638,4.2832,0.0836,1.8488,0.1129,-28.08,36.24,17.52,,adl
10.393701,-1.3234,-0.9638,4.2832,0.4368,1.0498,0.285,-28.08,36.24,17.52,,adl
10.415108,-1.3234,-0.9638,4.2832,0.6519,0.4964,0.3148,-28.08,36.24,17.52,,adl
10.436104,-1.3234,-0.9638,4.2832,0.6519,0.4964,0.3148,-28.92,35.28,16.98,,adl
10.437794,-1.3234,-0.9638,4.2832,0.7574,0.3281,0.1076,-28.92,35.28,16.98,,adl
10.452238,-1.3234,-0.9638,4.2832,0.7574,0.3281,0.1076,-28.92,35.28,16.98,,adl
10.453777,4.1432,0.7802,-3.8443,0.7574,0.3281,0.1076,-28.92,35.28,16.98,,adl
10.455775,4.1432,0.7802,-3.8443,0.6349,0.4985,-0.3217,-28.92,35.28,16.98,,adl
10.476249,4.1432,0.7802,-3.8443,0.3121,0.8533,-0.6754,-28.92,35.28,16.98,,adl
10.498909,4.1432,0.7802,-3.8443,0.3121,0.8533,-0.6754,-30.3,35.16,15.54,,adl
10.5008,4.1432,0.7802,-3.8443,-0.0202,1.0828,-0.7228,-30.3,35.16,15.54,,adl
10.514661,4.1432,0.7802,-3.8443,-0.0202,1.0828,-0.7228,-30.3,35.16,15.54,,adl
10.515794,0.4997,-1.1453,-3.0909,-0.0202,1.0828,-0.7228,-30.3,35.16,15.54,,adl
10.517261,0.4997,-1.1453,-3.0909,-0.2099,0.8027,-0.579,-30.3,35.16,15.54,,adl
10.53903,0.4997,-1.1453,-3.0909,-0.4703,0.8506,-0.3691,-30.3,35.16,15.54,,adl
10.560321,0.4997,-1.1453,-3.0909,-0.4703,0.8506,-0.3691,-31.92,34.5,13.2,,adl
10.562479,0.4997,-1.1453,-3.0909,-0.8378,1.4349,-0.1087,-31.92,34.5,13.2,,adl
10.575285,0.4997,-1.1453,-3.0909,-0.8378,1.4349,-0.1087,-31.92,34.5,13.2,,adl
10.57676,-2.5683,0.5836,0.6255,-0.8378,1.4349,-0.1087,-31.92,34.5,13.2,,adl
10.579356,-2.5683,0.5836,0.6255,-0.8538,1.8115,0.253,-31.92,34.5,13.2,,adl
10.600263,-2.5683,0.5836,0.6255,-0.3862,1.7018,0.4091,-31.92,34.5,13.2,,adl
10.62204,-2.5683,0.5836,0.6255,-0.3862,1.7018,0.4091,-33.54,34.08,11.16,,adl
10.623932,-2.5683,0.5836,0.6255,0.3052,1.4275,0.2961,-33.54,34.08,11.16,,adl
10.637869,-2.5683,0.5836,0.6255,0.3052,1.4275,0.2961,-33.54,34.08,11.16,,adl
10.639497,-0.267,-0.6172,2.6907,0.3052,1.4275,0.2961,-33.54,34.08,11.16,,adl
10.640842,-0.267,-0.6172,2.6907,0.6456,0.9129,0.1672,-33.54,34.08,11.16,,adl
10.661713,-0.267,-0.6172,2.6907,0.6583,0.7217,0.0772,-33.54,34.08,11.16,,adl
10.682526,-0.267,-0.6172,2.6907,0.6583,0.7217,0.0772,-34.08,33.72,8.58,,adl
10.684262,-0.267,-0.6172,2.6907,0.6264,0.7872,-0.0847,-34.08,33.72,8.58,,adl
10.699202,-0.267,-0.6172,2.6907,0.6264,0.7872,-0.0847,-34.08,33.72,8.58,,adl
10.700161,1.0238,-0.1609,-1.5032,0.6264,0.7872,-0.0847,-34.08,33.72,8.58,,adl
10.704374,1.0238,-0.1609,-1.5032,0.5087,0.8277,-0.1976,-34.08,33.72,8.58,,adl
10.723095,1.0238,-0.1609,-1.5032,0.2557,0.7063,-0.2402,-34.08,33.72,8.58,,adl
10.74498,1.0238,-0.1609,-1.5032,0.2557,0.7063,-0.2402,-35.1,33.24,6.0,,adl
10.746705,1.0238,-0.1609,-1.5032,0.0,0.6104,-0.237,-35.1,33.24,6.0,,adl
10.759796,1.0238,-0.1609,-1.5032,0.0,0.6104,-0.237,-35.1,33.24,6.0,,adl
10.761494,-1.356,0.5329,-0.606,0.0,0.6104,-0.237,-35.1,33.24,6.0,,adl
10.763045,-1.356,0.5329,-0.606,-0.1768,0.6312,-0.2109,-35.1,33.24,6.0,,adl
10.784614,-1.356,0.5329,-0.606,-0.1965,0.833,-0.0964,-35.1,33.24,6.0,,adl
10.806333,-1.356,0.5329,-0.606,-0.1965,0.833,-0.0964,-35.52,33.36,3.48,,adl
10.808745,-1.356,0.5329,-0.606,-0.0352,1.0994,0.0399,-35.52,33.36,3.48,,adl
10.823083,-1.356,0.5329,-0.606,-0.0352,1.0994,0.0399,-35.52,33.36,3.48,,adl
10.824775,-1.3511,0.5397,1.4979,-0.0352,1.0994,0.0399,-35.52,33.36,3.48,,adl
10.826069,-1.3511,0.5397,1.4979,0.1763,1.1531,0.0527,-35.52,33.36,3.48,,adl
10.84679,-1.3511,0.5397,1.4979,0.2988,0.9012,-0.0309,-35.52,33.36,3.48,,adl
10.868794,-1.3511,0.5397,1.4979,0.2988,0.9012,-0.0309,-35.1,33.3,0.3,,adl
10.870893,-1.3511,0.5397,1.4979,0.2743,0.6029,-0.1672,-35.1,33.3,0.3,,adl
10.885107,-1.3511,0.5397,1.4979,0.2743,0.6029,-0.1672,-35.1,33.3,0.3,,adl
10.886468,0.1061,0.1356,0.2256,0.2743,0.6029,-0.1672,-35.1,33.3,0.3,,adl
10.887617,0.1061,0.1356,0.2256,0.1949,0.4416,-0.2503,-35.1,33.3,0.3,,adl
10.908723,0.1061,0.1356,0.2256,0.1667,0.4266,-0.2999,-35.1,33.3,0.3,,adl
10.92958,0.1061,0.1356,0.2256,0.1667,0.4266,-0.2999,-35.04,33.42,-1.86,,adl
10.931479,0.1061,0.1356,0.2256,0.1523,0.4916,-0.2871,-35.04,33.42,-1.86,,adl
10.945894,0.1061,0.1356,0.2256,0.1523,0.4916,-0.2871,-35.04,33.42,-1.86,,adl
10.94761,-0.3465,-0.1744,-0.1999,0.1523,0.4916,-0.2871,-35.04,33.42,-1.86,,adl
10.949231,-0.3465,-0.1744,-0.1999,0.1278,0.6088,-0.2583,-35.04,33.42,-1.86,,adl
10.969755,-0.3465,-0.1744,-0.1999,0.1172,0.7569,-0.2109,-35.04,33.42,-1.86,,adl
10.990558,-0.3465,-0.1744,-0.1999,0.1172,0.7569,-0.2109,-34.8,32.88,-3.78,,adl
10.992351,-0.3465,-0.1744,-0.1999,0.131,0.938,-0.2077,-34.8,32.88,-3.78,,adl
11.007624,-0.3465,-0.1744,-0.1999,0.131,0.938,-0.2077,-34.8,32.88,-3.78,,adl
11.009441,0.7265,-0.8254,0.8132,0.131,0.938,-0.2077,-34.8,32.88,-3.78,,adl
11.010772,0.7265,-0.8254,0.8132,0.18,1.0482,-0.2413,-34.8,32.88,-3.78,,adl
11.03148,0.7265,-0.8254,0.8132,0.3063,0.9539,-0.2834,-34.8,32.88,-3.78,,adl
11.052417,0.7265,-0.8254,0.8132,0.3063,0.9539,-0.2834,-34.74,32.28,-5.82,,adl
11.054221,0.7265,-0.8254,0.8132,0.4964,0.71,-0.3068,-34.74,32.28,-5.82,,adl
11.069179,0.7265,-0.8254,0.8132,0.4964,0.71,-0.3068,-34.74,32.28,-5.82,,adl
11.070621,-1.2541,-0.6659,0.6081,0.4964,0.71,-0.3068,-34.74,32.28,-5.82,,adl
11.071902,-1.2541,-0.6659,0.6081,0.5342,0.5843,-0.2056,-34.74,32.28,-5.82,,adl
11.093108,-1.2541,-0.6659,0.6081,0.4517,0.5028,0.0,-34.74,32.28,-5.82,,adl
11.114635,-1.2541,-0.6659,0.6081,0.4517,0.5028,0.0,-34.74,31.44,-7.8,,adl
11.116709,-1.2541,-0.6659,0.6081,0.3979,0.4005,0.1459,-34.74,31.44,-7.8,,adl
11.130357,-1.2541,-0.6659,0.6081,0.3979,0.4005,0.1459,-34.74,31.44,-7.8,,adl
11.131312,-2.51,-0.5612,0.239,0.3979,0.4005,0.1459,-34.74,31.44,-7.8,,adl
11.135774,-2.51,-0.5612,0.239,0.4011,0.3148,0.2242,-34.74,31.44,-7.8,,adl
11.155067,-2.51,-0.5612,0.239,0.4682,0.1214,0.3265,-34.74,31.44,-7.8,,adl
11.175126,-2.51,-0.5612,0.239,0.4682,0.1214,0.3265,-34.8,30.84,-9.36,,adl
11.177209,-2.51,-0.5612,0.239,0.7292,-0.0485,0.4368,-34.8,30.84,-9.36,,adl
11.19204,-2.51,-0.5612,0.239,0.7292,-0.0485,0.4368,-34.8,30.84,-9.36,,adl
11.193742,0.5675,-1.4564,3.484,0.7292,-0.0485,0.4368,-34.8,30.84,-9.36,,adl
11.194762,0.5675,-1.4564,3.484,1.1734,-0.383,0.514,-34.8,30.84,-9.36,,adl
11.216869,0.5675,-1.4564,3.484,1.5308,-0.9284,0.5172,-34.8,30.84,-9.36,,adl
11.23768,0.5675,-1.4564,3.484,1.5308,-0.9284,0.5172,-34.92,30.36,-11.7,,adl
11.239417,0.5675,-1.4564,3.484,1.681,-1.2362,0.4783,-34.92,30.36,-11.7,,adl
11.253861,0.5675,-1.4564,3.484,1.681,-1.2362,0.4783,-34.92,30.36,-11.7,,adl
11.25541,3.4249,-0.2538,-1.1888,1.681,-1.2362,0.4783,-34.92,30.36,-11.7,,adl
11.2568,3.4249,-0.2538,-1.1888,1.5036,-1.0306,0.4389,-34.92,30.36,-11.7,,adl
11.277836,3.4249,-0.2538,-1.1888,1.183,-0.449,0.3595,-34.92,30.36,-11.7,,adl
11.298102,3.4249,-0.2538,-1.1888,1.183,-0.449,0.3595,-34.26,29.52,-13.56,,adl
11.298781,3.4249,-0.2538,-1.1888,0.8203,-0.024,0.1726,-34.26,29.52,-13.56,,adl
11.314286,3.4249,-0.2538,-1.1888,0.8203,-0.024,0.1726,-34.26,29.52,-13.56,,adl
11.315293,2.6549,-3.4476,-3.5346,0.8203,-0.024,0.1726,-34.26,29.52,-13.56,,adl
11.319552,2.6549,-3.4476,-3.5346,0.3393,-0.2162,0.1294,-34.26,29.52,-13.56,,adl
11.339817,2.6549,-3.4476,-3.5346,0.09,-0.6674,0.4373,-34.26,29.52,-13.56,,adl
11.360974,2.6549,-3.4476,-3.5346,0.09,-0.6674,0.4373,-34.02,28.8,-14.88,,adl
11.362735,2.6549,-3.4476,-3.5346,0.253,-0.9587,0.5571,-34.02,28.8,-14.88,,adl
11.376148,2.6549,-3.4476,-3.5346,0.253,-0.9587,0.5571,-34.02,28.8,-14.88,,adl
11.377786,1.8507,-0.2096,-0.1016,0.253,-0.9587,0.5571,-34.02,28.8,-14.88,,adl
11.37893,1.8507,-0.2096,-0.1016,0.5518,-0.8064,0.3542,-34.02,28.8,-14.88,,adl
11.400067,1.8507,-0.2096,-0.1016,0.4772,-0.5646,0.1582,-34.02,28.8,-14.88,,adl
11.421637,1.8507,-0.2096,-0.1016,0.4772,-0.5646,0.1582,-33.9,28.74,-16.26,,adl
11.423339,1.8507,-0.2096,-0.1016,0.3569,-0.1454,0.0826,-33.9,28.74,-16.26,,adl
11.438428,1.8507,-0.2096,-0.1016,0.3569,-0.1454,0.0826,-33.9,28.74,-16.26,,adl
11.439949,4.8859,0.596,-0.4823,0.3569,-0.1454,0.0826,-33.9,28.74,-16.26,,adl
11.442626,4.8859,0.596,-0.4823,0.335,0.2977,-0.073,-33.9,28.74,-16.26,,adl
11.462584,4.8859,0.596,-0.4823,0.4325,0.5209,-0.2264,-33.9,28.74,-16.26,,adl
11.484602,4.8859,0.596,-0.4823,0.4325,0.5209,-0.2264,-33.72,28.32,-15.96,,adl
11.486453,4.8859,0.596,-0.4823,0.4959,0.6535,-0.2439,-33.72,28.32,-15.96,,adl
11.499236,4.8859,0.596,-0.4823,0.4959,0.6535,-0.2439,-33.72,28.32,-15.96,,adl
11.500198,2.0437,0.3625,-1.7166,0.4959,0.6535,-0.2439,-33.72,28.32,-15.96,,adl
11.504165,2.0437,0.3625,-1.7166,0.3238,0.6706,-0.2898,-33.72,28.32,-15.96,,adl
11.52505,2.0437,0.3625,-1.7166,-0.0043,0.3776,-0.3031,-33.72,28.32,-15.96,,adl
11.545366,2.0437,0.3625,-1.7166,-0.0043,0.3776,-0.3031,-34.02,28.38,-16.02,,adl
11.547033,2.0437,0.3625,-1.7166,-0.1129,0.4959,-0.2807,-34.02,28.38,-16.02,,adl
11.561024,2.0437,0.3625,-1.7166,-0.1129,0.4959,-0.2807,-34.02,28.38,-16.02,,adl
11.562639,0.0025,1.2848,-2.0936,-0.1129,0.4959,-0.2807,-34.02,28.38,-16.02,,adl
11.565277,0.0025,1.2848,-2.0936,-0.1507,0.8975,-0.2471,-34.02,28.38,-16.02,,adl
11.584333,0.0025,1.2848,-2.0936,-0.098,1.2528,-0.1752,-34.02,28.38,-16.02,,adl
11.606029,0.0025,1.2848,-2.0936,-0.098,1.2528,-0.1752,-33.84,27.84,-16.32,,adl
11.607813,0.0025,1.2848,-2.0936,0.0554,1.4088,0.0437,-33.84,27.84,-16.32,,adl
11.623076,0.0025,1.2848,-2.0936,0.0554,1.4088,0.0437,-33.84,27.84,-16.32,,adl
11.624738,-0.8783,-0.3673,2.3092,0.0554,1.4088,0.0437,-33.84,27.84,-16.32,,adl
11.626264,-0.8783,-0.3673,2.3092,0.1763,1.6224,0.2695,-33.84,27.84,-16.32,,adl
11.647774,-0.8783,-0.3673,2.3092,0.27,1.9462,0.391,-33.84,27.84,-16.32,,adl
11.668759,-0.8783,-0.3673,2.3092,0.27,1.9462,0.391,-33.3,26.88,-17.76,,adl
11.670401,-0.8783,-0.3673,2.3092,0.3116,1.7108,0.2471,-33.3,26.88,-17.76,,adl
11.685191,-0.8783,-0.3673,2.3092,0.3116,1.7108,0.2471,-33.3,26.88,-17.76,,adl
11.686702,0.8423,-0.7467,2.7001,0.3116,1.7108,0.2471,-33.3,26.88,-17.76,,adl
11.687984,0.8423,-0.7467,2.7001,0.2541,1.3625,0.0708,-33.3,26.88,-17.76,,adl
11.709071,0.8423,-0.7467,2.7001,0.1103,0.8836,-0.0756,-33.3,26.88,-17.76,,adl
11.730679,0.8423,-0.7467,2.7001,0.1103,0.8836,-0.0756,-32.22,26.58,-20.28,,adl
11.732358,0.8423,-0.7467,2.7001,-0.0005,0.5007,-0.237,-32.22,26.58,-20.28,,adl
11.746455,0.8423,-0.7467,2.7001,-0.0005,0.5007,-0.237,-32.22,26.58,-20.28,,adl
11.747464,0.8665,1.5126,-0.4066,-0.0005,0.5007,-0.237,-32.22,26.58,-20.28,,adl
11.748885,0.8665,1.5126,-0.4066,-0.0517,0.5481,-0.3505,-32.22,26.58,-20.28,,adl
11.771391,0.8665,1.5126,-0.4066,-0.0027,0.7404,-0.4176,-32.22,26.58,-20.28,,adl
11.792245,0.8665,1.5126,-0.4066,-0.2024,1.3321,-0.5678,-32.22,26.58,-20.28,,adl
11.794378,0.8665,1.5126,-0.4066,-0.2024,1.3321,-0.5678,-31.02,26.46,-22.32,,adl
11.808025,0.8665,1.5126,-0.4066,-0.2024,1.3321,-0.5678,-31.02,26.46,-22.32,,adl
11.809746,-2.0655,-5.7088,0.3581,-0.2024,1.3321,-0.5678,-31.02,26.46,-22.32,,adl
11.810873,-2.0655,-5.7088,0.3581,-0.6189,1.4312,-0.5843,-31.02,26.46,-22.32,,adl
11.832617,-2.0655,-5.7088,0.3581,-0.2866,0.9848,-0.1571,-31.02,26.46,-22.32,,adl
11.854255,-2.0655,-5.7088,0.3581,-0.2866,0.9848,-0.1571,-29.04,26.58,-25.08,,adl
11.855957,-2.0655,-5.7088,0.3581,0.3345,0.9092,0.49,-29.04,26.58,-25.08,,adl
11.870245,-2.0655,-5.7088,0.3581,0.3345,0.9092,0.49,-29.04,26.58,-25.08,,adl
11.87181,3.6255,0.9391,0.7552,0.3345,0.9092,0.49,-29.04,26.58,-25.08,,adl
11.873338,3.6255,0.9391,0.7552,0.5854,1.5638,0.5816,-29.04,26.58,-25.08,,adl
11.89301,3.6255,0.9391,0.7552,0.5236,1.8706,0.3441,-29.04,26.58,-25.08,,adl
11.915113,3.6255,0.9391,0.7552,0.5236,1.8706,0.3441,-26.64,26.7,-27.06,,adl
11.916903,3.6255,0.9391,0.7552,0.4618,1.909,-0.1614,-26.64,26.7,-27.06,,adl
11.931602,3.6255,0.9391,0.7552,0.4618,1.909,-0.1614,-26.64,26.7,-27.06,,adl
11.932871,5.4862,0.7689,-1.6952,0.4618,1.909,-0.1614,-26.64,26.7,-27.06,,adl
11.934254,5.4862,0.7689,-1.6952,0.4586,1.8024,-0.5635,-26.64,26.7,-27.06,,adl
11.955508,5.4862,0.7689,-1.6952,0.3734,1.9382,-0.6471,-26.64,26.7,-27.06,,adl
11.976343,5.4862,0.7689,-1.6952,0.3734,1.9382,-0.6471,-24.06,26.58,-29.22,,adl
11.978216,5.4862,0.7689,-1.6952,0.0964,2.2717,-0.5385,-24.06,26.58,-29.22,,adl
11.99235,5.4862,0.7689,-1.6952,0.0964,2.2717,-0.5385,-24.06,26.58,-29.22,,adl
11.99393,-0.5408,-2.0746,-1.8211,0.0964,2.2717,-0.5385,-24.06,26.58,-29.22,,adl
11.995136,-0.5408,-2.0746,-1.8211,-0.0522,1.8845,-0.4272,-24.06,26.58,-29.22,,adl
12.017374,-0.5408,-2.0746,-1.8211,0.0905,1.0882,-0.221,-24.06,26.58,-29.22,,adl
12.03787,-0.5408,-2.0746,-1.8211,0.0905,1.0882,-0.221,-20.1,25.92,-31.08,,adl
12.039319,-0.5408,-2.0746,-1.8211,0.1454,0.7031,-0.0341,-20.1,25.92,-31.08,,adl
12.054221,-0.5408,-2.0746,-1.8211,0.1454,0.7031,-0.0341,-20.1,25.92,-31.08,,adl
12.055173,-1.3585,0.3577,-0.8456,0.1454,0.7031,-0.0341,-20.1,25.92,-31.08,,adl
12.057809,-1.3585,0.3577,-0.8456,0.0575,0.7409,0.0815,-20.1,25.92,-31.08,,adl
12.078658,-1.3585,0.3577,-0.8456,0.0565,1.118,0.1561,-20.1,25.92,-31.08,,adl
12.100053,-1.3585,0.3577,-0.8456,0.0565,1.118,0.1561,-17.22,25.38,-33.12,,adl
12.10182,-1.3585,0.3577,-0.8456,0.2413,1.7311,0.4165,-17.22,25.38,-33.12,,adl
12.116181,-1.3585,0.3577,-0.8456,0.2413,1.7311,0.4165,-17.22,25.38,-33.12,,adl
12.117467,2.6606,-1.274,1.0542,0.2413,1.7311,0.4165,-17.22,25.38,-33.12,,adl
12.118744,2.6606,-1.274,1.0542,0.5662,2.5188,0.4517,-17.22,25.38,-33.12,,adl
12.140643,2.6606,-1.274,1.0542,0.8682,2.8261,0.3116,-17.22,25.38,-33.12,,adl
12.162352,2.6606,-1.274,1.0542,0.8682,2.8261,0.3116,-14.52,25.2,-34.92,,adl
12.164202,2.6606,-1.274,1.0542,0.8709,2.2765,0.1486,-14.52,25.2,-34.92,,adl
12.177662,2.6606,-1.274,1.0542,0.8709,2.2765,0.1486,-14.52,25.2,-34.92,,adl
12.179446,2.3679,-0.9032,0.1818,0.8709,2.2765,0.1486,-14.52,25.2,-34.92,,adl
12.180823,2.3679,-0.9032,0.1818,0.7489,1.5617,-0.0597,-14.52,25.2,-34.92,,adl
12.200289,2.3679,-0.9032,0.1818,0.6738,1.232,-0.1875,-14.52,25.2,-34.92,,adl
12.223231,2.3679,-0.9032,0.1818,0.6738,1.232,-0.1875,-10.68,24.42,-36.3,,adl
12.224836,2.3679,-0.9032,0.1818,0.5577,1.0599,-0.2131,-10.68,24.42,-36.3,,adl
12.238585,2.3679,-0.9032,0.1818,0.5577,1.0599,-0.2131,-10.68,24.42,-36.3,,adl
12.2401,-0.2404,0.7386,-1.1174,0.5577,1.0599,-0.2131,-10.68,24.42,-36.3,,adl
12.241544,-0.2404,0.7386,-1.1174,0.3973,0.9987,-0.1832,-10.68,24.42,-36.3,,adl
12.264153,-0.2404,0.7386,-1.1174,0.2306,1.1489,-0.1097,-10.68,24.42,-36.3,,adl
12.28476,-0.2404,0.7386,-1.1174,0.2306,1.1489,-0.1097,-7.74,23.34,-38.1,,adl
12.286835,-0.2404,0.7386,-1.1174,0.123,1.4408,0.0202,-7.74,23.34,-38.1,,adl
12.300417,-0.2404,0.7386,-1.1174,0.123,1.4408,0.0202,-7.74,23.34,-38.1,,adl
12.301869,-2.3238,0.0241,0.6466,0.123,1.4408,0.0202,-7.74,23.34,-38.1,,adl
12.303064,-2.3238,0.0241,0.6466,0.2386,1.7247,0.1214,-7.74,23.34,-38.1,,adl
12.324886,-2.3238,0.0241,0.6466,0.5342,1.9888,0.1662,-7.74,23.34,-38.1,,adl
12.346211,-2.3238,0.0241,0.6466,0.5342,1.9888,0.1662,-4.2,22.5,-38.94,,adl
12.348137,-2.3238,0.0241,0.6466,0.8165,2.0293,0.1864,-4.2,22.5,-38.94,,adl
12.362311,-2.3238,0.0241,0.6466,0.8165,2.0293,0.1864,-4.2,22.5,-38.94,,adl
12.36383,0.773,-0.5056,1.2846,0.8165,2.0293,0.1864,-4.2,22.5,-38.94,,adl
12.36533,0.773,-0.5056,1.2846,0.9177,1.9036,0.0852,-4.2,22.5,-38.94,,adl
12.387045,0.773,-0.5056,1.2846,0.8341,1.6117,-0.0421,-4.2,22.5,-38.94,,adl
12.40712,0.773,-0.5056,1.2846,0.8341,1.6117,-0.0421,0.36,21.24,-39.72,,adl
12.408889,0.773,-0.5056,1.2846,0.6882,1.4919,-0.1033,0.36,21.24,-39.72,,adl
12.423525,0.773,-0.5056,1.2846,0.6882,1.4919,-0.1033,0.36,21.24,-39.72,,adl
12.425228,0.0551,0.1048,0.3532,0.6882,1.4919,-0.1033,0.36,21.24,-39.72,,adl
12.426388,0.0551,0.1048,0.3532,0.6429,1.5388,-0.139,0.36,21.24,-39.72,,adl
12.447686,0.0551,0.1048,0.3532,0.6647,1.5425,-0.1001,0.36,21.24,-39.72,,adl
12.469323,0.0551,0.1048,0.3532,0.6647,1.5425,-0.1001,3.9,19.86,-39.9,,adl
12.471012,0.0551,0.1048,0.3532,0.6855,1.6203,-0.0554,3.9,19.86,-39.9,,adl
12.4855,0.0551,0.1048,0.3532,0.6855,1.6203,-0.0554,3.9,19.86,-39.9,,adl
12.487075,-0.3761,0.0581,0.0691,0.6855,1.6203,-0.0554,3.9,19.86,-39.9,,adl
12.488266,-0.3761,0.0581,0.0691,0.6631,1.7998,-0.0208,3.9,19.86,-39.9,,adl
12.508752,-0.3761,0.0581,0.0691,0.6487,1.8275,-0.0064,3.9,19.86,-39.9,,adl
12.531395,-0.3761,0.0581,0.0691,0.6487,1.8275,-0.0064,8.28,19.2,-39.24,,adl
12.533574,-0.3761,0.0581,0.0691,0.6301,1.7572,-0.033,8.28,19.2,-39.24,,adl
12.546911,-0.3761,0.0581,0.0691,0.6301,1.7572,-0.033,8.28,19.2,-39.24,,adl
12.547912,-0.0226,-0.3153,0.2823,0.6301,1.7572,-0.033,8.28,19.2,-39.24,,adl
12.552259,-0.0226,-0.3153,0.2823,0.5976,1.6623,-0.0634,8.28,19.2,-39.24,,adl
12.571123,-0.0226,-0.3153,0.2823,0.6195,1.4914,-0.0911,8.28,19.2,-39.24,,adl
12.592718,-0.0226,-0.3153,0.2823,0.6786,1.3129,-0.0708,8.28,19.2,-39.24,,adl
12.594295,-0.0226,-0.3153,0.2823,0.6786,1.3129,-0.0708,13.02,17.88,-38.28,,adl
12.608336,-0.0226,-0.3153,0.2823,0.6786,1.3129,-0.0708,13.02,17.88,-38.28,,adl
12.609963,-0.5446,-1.1941,0.3499,0.6786,1.3129,-0.0708,13.02,17.88,-38.28,,adl
12.611119,-0.5446,-1.1941,0.3499,0.718,1.1686,0.0479,13.02,17.88,-38.28,,adl
12.632621,-0.5446,-1.1941,0.3499,0.6557,0.9603,0.2418,13.02,17.88,-38.28,,adl
12.653532,-0.5446,-1.1941,0.3499,0.6557,0.9603,0.2418,17.16,16.5,-37.14,,adl
12.655108,-0.5446,-1.1941,0.3499,0.6919,0.8836,0.2903,17.16,16.5,-37.14,,adl
12.670607,-0.5446,-1.1941,0.3499,0.6919,0.8836,0.2903,17.16,16.5,-37.14,,adl
12.672116,1.0562,-1.4525,-0.6652,0.6919,0.8836,0.2903,17.16,16.5,-37.14,,adl
12.673666,1.0562,-1.4525,-0.6652,0.8655,1.1936,0.1779,17.16,16.5,-37.14,,adl
12.695166,1.0562,-1.4525,-0.6652,1.0397,1.5089,0.0847,17.16,16.5,-37.14,,adl
12.715375,1.0562,-1.4525,-0.6652,1.0397,1.5089,0.0847,20.4,15.06,-35.88,,adl
12.717215,1.0562,-1.4525,-0.6652,1.2261,1.5175,0.0964,20.4,15.06,-35.88,,adl
12.73167,1.0562,-1.4525,-0.6652,1.2261,1.5175,0.0964,20.4,15.06,-35.88,,adl
12.732799,1.7643,-1.3403,0.9959,1.2261,1.5175,0.0964,20.4,15.06,-35.88,,adl
12.734073,1.7643,-1.3403,0.9959,1.5398,1.4424,0.1625,20.4,15.06,-35.88,,adl
12.756446,1.7643,-1.3403,0.9959,1.795,1.2991,0.1896,20.4,15.06,-35.88,,adl
12.776729,1.7643,-1.3403,0.9959,1.795,1.2991,0.1896,23.4,13.32,-34.44,,adl
12.778006,1.7643,-1.3403,0.9959,1.8078,1.1681,0.2189,23.4,13.32,-34.44,,adl
12.792704,1.7643,-1.3403,0.9959,1.8078,1.1681,0.2189,23.4,13.32,-34.44,,adl
12.794318,2.8138,-1.5262,-0.5735,1.8078,1.1681,0.2189,23.4,13.32,-34.44,,adl
12.795737,2.8138,-1.5262,-0.5735,1.648,1.0131,0.237,23.4,13.32,-34.44,,adl
12.817459,2.8138,-1.5262,-0.5735,1.4786,0.8059,0.2679,23.4,13.32,-34.44,,adl
12.839257,2.8138,-1.5262,-0.5735,1.4786,0.8059,0.2679,26.76,10.98,-33.24,,adl
12.841382,2.8138,-1.5262,-0.5735,1.3715,0.6551,0.2503,26.76,10.98,-33.24,,adl
12.855111,2.8138,-1.5262,-0.5735,1.3715,0.6551,0.2503,26.76,10.98,-33.24,,adl
12.857529,1.1843,-1.1588,-2.4034,1.3715,0.6551,0.2503,26.76,10.98,-33.24,,adl
12.858835,1.1843,-1.1588,-2.4034,1.2528,0.6764,0.2045,26.76,10.98,-33.24,,adl
12.879598,1.1843,-1.1588,-2.4034,1.1292,0.6956,0.1864,26.76,10.98,-33.24,,adl
12.901121,1.1843,-1.1588,-2.4034,1.1292,0.6956,0.1864,28.92,8.52,-31.98,,adl
12.903064,1.1843,-1.1588,-2.4034,1.1595,0.6967,0.1278,28.92,8.52,-31.98,,adl
12.915271,1.1843,-1.1588,-2.4034,1.1595,0.6967,0.1278,28.92,8.52,-31.98,,adl
12.916203,0.0064,-0.1207,0.7986,1.1595,0.6967,0.1278,28.92,8.52,-31.98,,adl
12.919541,0.0064,-0.1207,0.7986,1.2112,0.7063,0.017,28.92,8.52,-31.98,,adl
12.940793,0.0064,-0.1207,0.7986,1.1228,0.8309,-0.0234,28.92,8.52,-31.98,,adl
12.961679,0.0064,-0.1207,0.7986,1.1228,0.8309,-0.0234,31.38,5.7,-30.84,,adl
12.963386,0.0064,-0.1207,0.7986,0.9752,0.9369,-0.0447,31.38,5.7,-30.84,,adl
12.978074,0.0064,-0.1207,0.7986,0.9752,0.9369,-0.0447,31.38,5.7,-30.84,,adl
12.979833,0.0576,1.4392,0.262,0.9752,0.9369,-0.0447,31.38,5.7,-30.84,,adl
12.981638,0.0576,1.4392,0.262,0.8405,0.8091,-0.1161,31.38,5.7,-30.84,,adl
13.001319,0.0576,1.4392,0.262,0.7185,0.539,-0.1683,31.38,5.7,-30.84,,adl
13.02227,0.0576,1.4392,0.262,0.7185,0.539,-0.1683,33.3,2.58,-29.28,,adl
13.023288,0.0576,1.4392,0.262,0.5566,0.3206,-0.1832,33.3,2.58,-29.28,,adl
13.037843,0.0576,1.4392,0.262,0.5566,0.3206,-0.1832,33.3,2.58,-29.28,,adl
13.038375,-0.869,1.3093,-0.3236,0.5566,0.3206,-0.1832,33.3,2.58,-29.28,,adl
13.041966,-0.869,1.3093,-0.3236,0.3547,0.1182,-0.1901,33.3,2.58,-29.28,,adl
13.06239,-0.869,1.3093,-0.3236,0.2109,-0.0309,-0.2162,33.3,2.58,-29.28,,adl
13.083794,-0.869,1.3093,-0.3236,0.2109,-0.0309,-0.2162,34.26,0.18,-28.14,,adl
13.084842,-0.869,1.3093,-0.3236,0.1172,-0.0202,-0.2759,34.26,0.18,-28.14,,adl
13.100381,-0.869,1.3093,-0.3236,0.1172,-0.0202,-0.2759,34.26,0.18,-28.14,,adl
13.10136,-0.2655,1.219,0.6537,0.1172,-0.0202,-0.2759,34.26,0.18,-28.14,,adl
13.103435,-0.2655,1.219,0.6537,0.0517,0.3888,-0.2999,34.26,0.18,-28.14,,adl
13.12475,-0.2655,1.219,0.6537,-0.0069,0.7718,-0.3036,34.26,0.18,-28.14,,adl
13.146873,-0.2655,1.219,0.6537,-0.0069,0.7718,-0.3036,35.82,-1.32,-27.12,,adl
13.148925,-0.2655,1.219,0.6537,-0.0069,1.102,-0.2605,35.82,-1.32,-27.12,,adl
13.162233,-0.2655,1.219,0.6537,-0.0069,1.102,-0.2605,35.82,-1.32,-27.12,,adl
13.163113,0.635,1.9711,0.991,-0.0069,1.102,-0.2605,35.82,-1.32,-27.12,,adl
13.165932,0.635,1.9711,0.991,-0.017,1.2022,-0.196,35.82,-1.32,-27.12,,adl
13.187054,0.635,1.9711,0.991,-0.1001,1.1457,-0.2711,35.82,-1.32,-27.12,,adl
13.209191,0.635,1.9711,0.991,-0.1001,1.1457,-0.2711,36.78,-2.16,-25.32,,adl
13.210959,0.635,1.9711,0.991,-0.1603,1.0908,-0.3324,36.78,-2.16,-25.32,,adl
13.224207,0.635,1.9711,0.991,-0.1603,1.0908,-0.3324,36.78,-2.16,-25.32,,adl
13.225919,-0.7337,0.0349,0.7455,-0.1603,1.0908,-0.3324,36.78,-2.16,-25.32,,adl
13.227108,-0.7337,0.0349,0.7455,-0.1571,0.9976,-0.3398,36.78,-2.16,-25.32,,adl
13.249022,-0.7337,0.0349,0.7455,-0.1113,0.84,-0.2551,36.78,-2.16,-25.32,,adl
13.269122,-0.7337,0.0349,0.7455,-0.1113,0.84,-0.2551,37.92,-1.86,-24.0,,adl
13.270908,-0.7337,0.0349,0.7455,-0.0703,0.7137,-0.1316,37.92,-1.86,-24.0,,adl
13.285724,-0.7337,0.0349,0.7455,-0.0703,0.7137,-0.1316,37.92,-1.86,-24.0,,adl
13.287147,-3.1025,0.9017,2.1342,-0.0703,0.7137,-0.1316,37.92,-1.86,-24.0,,adl
13.289855,-3.1025,0.9017,2.1342,-0.0314,0.6131,-0.0959,37.92,-1.86,-24.0,,adl
13.310677,-3.1025,0.9017,2.1342,0.0277,0.5209,-0.0586,37.92,-1.86,-24.0,,adl
13.33154,-3.1025,0.9017,2.1342,0.0277,0.5209,-0.0586,39.12,-1.2,-21.84,,adl
13.333657,-3.1025,0.9017,2.1342,0.0543,0.5156,-0.1641,39.12,-1.2,-21.84,,adl
13.346781,-3.1025,0.9017,2.1342,0.0543,0.5156,-0.1641,39.12,-1.2,-21.84,,adl
13.347783,1.0484,-4.8942,0.8258,0.0543,0.5156,-0.1641,39.12,-1.2,-21.84,,adl
13.351565,1.0484,-4.8942,0.8258,-0.016,0.8107,-0.3531,39.12,-1.2,-21.84,,adl
13.372122,1.0484,-4.8942,0.8258,0.0905,1.3225,-0.3686,39.12,-1.2,-21.84,,adl
13.392253,1.0484,-4.8942,0.8258,0.0905,1.3225,-0.3686,40.02,-0.48,-20.04,,adl
13.394151,1.0484,-4.8942,0.8258,0.4165,1.8994,-0.2493,40.02,-0.48,-20.04,,adl
13.407925,1.0484,-4.8942,0.8258,0.4165,1.8994,-0.2493,40.02,-0.48,-20.04,,adl
13.409541,4.6889,-1.6391,-1.9896,0.4165,1.8994,-0.2493,40.02,-0.48,-20.04,,adl
13.412567,4.6889,-1.6391,-1.9896,0.6067,2.2781,-0.2834,40.02,-0.48,-20.04,,adl
13.433595,4.6889,-1.6391,-1.9896,0.5838,2.0149,-0.3936,40.02,-0.48,-20.04,,adl
13.453616,4.6889,-1.6391,-1.9896,0.5838,2.0149,-0.3936,41.52,0.24,-17.82,,adl
13.455341,4.6889,-1.6391,-1.9896,0.441,1.044,-0.5044,41.52,0.24,-17.82,,adl
13.470612,4.6889,-1.6391,-1.9896,0.441,1.044,-0.5044,41.52,0.24,-17.82,,adl
13.472115,0.7572,1.4704,-3.8873,0.441,1.044,-0.5044,41.52,0.24,-17.82,,adl
13.473523,0.7572,1.4704,-3.8873,0.237,0.2471,-0.4559,41.52,0.24,-17.82,,adl
13.495215,0.7572,1.4704,-3.8873,0.1422,-0.3521,-0.3377,41.52,0.24,-17.82,,adl
13.515657,0.7572,1.4704,-3.8873,0.1422,-0.3521,-0.3377,43.32,0.48,-14.82,,adl
13.517487,0.7572,1.4704,-3.8873,0.2232,-0.122,-0.2402,43.32,0.48,-14.82,,adl
13.532077,0.7572,1.4704,-3.8873,0.2232,-0.122,-0.2402,43.32,0.48,-14.82,,adl
13.533401,-2.8606,-1.3398,-6.3497,0.2232,-0.122,-0.2402,43.32,0.48,-14.82,,adl
13.537667,-2.8606,-1.3398,-6.3497,0.0202,0.8368,0.0405,43.32,0.48,-14.82,,adl
13.556323,-2.8606,-1.3398,-6.3497,-0.5167,2.2664,0.3665,43.32,0.48,-14.82,,adl
13.577684,-2.8606,-1.3398,-6.3497,-0.5167,2.2664,0.3665,44.16,0.72,-12.66,,adl
13.579472,-2.8606,-1.3398,-6.3497,-0.7814,2.9881,0.514,44.16,0.72,-12.66,,adl
13.593169,-2.8606,-1.3398,-6.3497,-0.7814,2.9881,0.514,44.16,0.72,-12.66,,adl
13.594747,-0.4561,0.0893,0.5701,-0.7814,2.9881,0.514,44.16,0.72,-12.66,,adl
13.59593,-0.4561,0.0893,0.5701,-0.4453,2.7431,0.4272,44.16,0.72,-12.66,,adl
13.618105,-0.4561,0.0893,0.5701,0.187,1.8062,0.2461,44.16,0.72,-12.66,,adl
13.639224,-0.4561,0.0893,0.5701,0.187,1.8062,0.2461,45.3,1.08,-9.0,,adl
13.641073,-0.4561,0.0893,0.5701,0.612,0.6466,0.0415,45.3,1.08,-9.0,,adl
13.65511,-0.4561,0.0893,0.5701,0.612,0.6466,0.0415,45.3,1.08,-9.0,,adl
13.656654,2.0216,-0.7955,0.5138,0.612,0.6466,0.0415,45.3,1.08,-9.0,,adl
13.657817,2.0216,-0.7955,0.5138,0.5007,0.1731,-0.0027,45.3,1.08,-9.0,,adl
13.679173,2.0216,-0.7955,0.5138,0.4362,0.5161,-0.0048,45.3,1.08,-9.0,,adl
13.699838,2.0216,-0.7955,0.5138,0.4362,0.5161,-0.0048,45.78,0.96,-5.28,,adl
13.700608,2.0216,-0.7955,0.5138,0.4112,0.8378,-0.1039,45.78,0.96,-5.28,,adl
13.716627,2.0216,-0.7955,0.5138,0.4112,0.8378,-0.1039,45.78,0.96,-5.28,,adl
13.717957,0.7625,-0.1644,-2.9625,0.4112,0.8378,-0.1039,45.78,0.96,-5.28,,adl
13.719163,0.7625,-0.1644,-2.9625,0.138,0.5619,-0.1886,45.78,0.96,-5.28,,adl
13.740799,0.7625,-0.1644,-2.9625,-0.2514,0.3894,-0.2615,45.78,0.96,-5.28,,adl
13.762175,0.7625,-0.1644,-2.9625,-0.2514,0.3894,-0.2615,46.44,0.96,-3.18,,adl
13.763677,0.7625,-0.1644,-2.9625,-0.4799,0.3643,-0.2786,46.44,0.96,-3.18,,adl
13.778588,0.7625,-0.1644,-2.9625,-0.4799,0.3643,-0.2786,46.44,0.96,-3.18,,adl
13.780208,-1.3419,0.6182,-0.2394,-0.4799,0.3643,-0.2786,46.44,0.96,-3.18,,adl
13.781438,-1.3419,0.6182,-0.2394,-0.4815,0.3398,-0.1843,46.44,0.96,-3.18,,adl
13.802991,-1.3419,0.6182,-0.2394,-0.3196,0.3931,-0.0245,46.44,0.96,-3.18,,adl
13.824736,-1.3419,0.6182,-0.2394,-0.3196,0.3931,-0.0245,46.92,1.2,0.24,,adl
13.8263,-1.3419,0.6182,-0.2394,-0.1433,0.4527,0.1135,46.92,1.2,0.24,,adl
13.839819,-1.3419,0.6182,-0.2394,-0.1433,0.4527,0.1135,46.92,1.2,0.24,,adl
13.841483,-0.2583,-0.1614,0.4655,-0.1433,0.4527,0.1135,46.92,1.2,0.24,,adl
13.844818,-0.2583,-0.1614,0.4655,-0.0266,0.3739,0.0629,46.92,1.2,0.24,,adl
13.864319,-0.2583,-0.1614,0.4655,0.0154,0.2993,-0.0591,46.92,1.2,0.24,,adl
13.885359,-0.2583,-0.1614,0.4655,0.0154,0.2993,-0.0591,47.28,1.38,2.52,,adl
13.887405,-0.2583,-0.1614,0.4655,0.0213,0.2828,-0.1539,47.28,1.38,2.52,,adl
13.902373,-0.2583,-0.1614,0.4655,0.0213,0.2828,-0.1539,47.28,1.38,2.52,,adl
13.903776,0.749,-0.7823,1.0469,0.0213,0.2828,-0.1539,47.28,1.38,2.52,,adl
13.9052,0.749,-0.7823,1.0469,0.1124,0.2647,-0.1688,47.28,1.38,2.52,,adl
13.925617,0.749,-0.7823,1.0469,0.2855,0.2477,-0.1513,47.28,1.38,2.52,,adl
13.946721,0.749,-0.7823,1.0469,0.2855,0.2477,-0.1513,47.52,1.8,3.9,,adl
13.948397,0.749,-0.7823,1.0469,0.4756,0.2264,-0.1411,47.52,1.8,3.9,,adl
13.963252,0.749,-0.7823,1.0469,0.4756,0.2264,-0.1411,47.52,1.8,3.9,,adl
13.964371,-0.2916,0.026,-0.0649,0.4756,0.2264,-0.1411,47.52,1.8,3.9,,adl
13.965559,-0.2916,0.026,-0.0649,0.571,0.2258,-0.1182,47.52,1.8,3.9,,adl
13.98656,-0.2916,0.026,-0.0649,0.5795,0.1353,-0.0453,47.52,1.8,3.9,,adl
14.007757,-0.2916,0.026,-0.0649,0.5795,0.1353,-0.0453,47.16,1.86,5.1,,adl
14.009473,-0.2916,0.026,-0.0649,0.4858,-0.2264,0.1092,47.16,1.86,5.1,,adl
14.024818,-0.2916,0.026,-0.0649,0.4858,-0.2264,0.1092,47.16,1.86,5.1,,adl
14.026241,-2.9895,-1.8952,-1.5572,0.4858,-0.2264,0.1092,47.16,1.86,5.1,,adl
14.027424,-2.9895,-1.8952,-1.5572,0.2988,-0.5614,0.3606,47.16,1.86,5.1,,adl
14.050021,-2.9895,-1.8952,-1.5572,0.1358,-0.7356,0.5992,47.16,1.86,5.1,,adl
14.070456,-2.9895,-1.8952,-1.5572,0.1358,-0.7356,0.5992,47.94,2.04,5.76,,adl
14.072219,-2.9895,-1.8952,-1.5572,0.0714,-0.5262,0.6264,47.94,2.04,5.76,,adl
14.085517,-2.9895,-1.8952,-1.5572,0.0714,-0.5262,0.6264,47.94,2.04,5.76,,adl
14.086905,-2.1723,-1.2963,0.5422,0.0714,-0.5262,0.6264,47.94,2.04,5.76,,adl
14.089795,-2.1723,-1.2963,0.5422,0.2354,-0.3819,0.5124,47.94,2.04,5.76,,adl
14.111055,-2.1723,-1.2963,0.5422,0.8506,-0.9779,0.6615,47.94,2.04,5.76,,adl
14.13163,-2.1723,-1.2963,0.5422,0.8506,-0.9779,0.6615,48.12,1.62,5.64,,adl
14.133558,-2.1723,-1.2963,0.5422,1.5542,-2.3409,0.898,48.12,1.62,5.64,,adl
14.148216,-2.1723,-1.2963,0.5422,1.5542,-2.3409,0.898,48.12,1.62,5.64,,adl
14.149512,1.0425,-0.9329,-0.672,1.5542,-2.3409,0.898,48.12,1.62,5.64,,adl
14.154257,1.0425,-0.9329,-0.672,1.4237,-3.0637,0.9502,48.12,1.62,5.64,,adl
14.171904,1.0425,-0.9329,-0.672,0.6919,-3.0014,0.6828,48.12,1.62,5.64,,adl
14.193822,1.0425,-0.9329,-0.672,0.6919,-3.0014,0.6828,48.3,0.42,3.78,,adl
14.195516,1.0425,-0.9329,-0.672,0.0474,-2.4197,0.3904,48.3,0.42,3.78,,adl
14.209177,1.0425,-0.9329,-0.672,0.0474,-2.4197,0.3904,48.3,0.42,3.78,,adl
14.210691,0.2591,-2.484,-6.6619,0.0474,-2.4197,0.3904,48.3,0.42,3.78,,adl
14.211911,0.2591,-2.484,-6.6619,-0.2088,-1.2048,0.457,48.3,0.42,3.78,,adl
14.233298,0.2591,-2.484,-6.6619,-0.163,-0.7436,0.9966,48.3,0.42,3.78,,adl
14.255225,0.2591,-2.484,-6.6619,-0.163,-0.7436,0.9966,47.94,-0.84,0.48,,adl
14.256858,0.2591,-2.484,-6.6619,0.0495,-1.6634,1.2112,47.94,-0.84,0.48,,adl
14.270617,0.2591,-2.484,-6.6619,0.0495,-1.6634,1.2112,47.94,-0.84,0.48,,adl
14.272038,-1.8906,0.3689,-2.3796,0.0495,-1.6634,1.2112,47.94,-0.84,0.48,,adl
14.274196,-1.8906,0.3689,-2.3796,0.1342,-2.2994,1.036,47.94,-0.84,0.48,,adl
14.294133,-1.8906,0.3689,-2.3796,-0.2988,-2.3441,0.9108,47.94,-0.84,0.48,,adl
14.315618,-1.8906,0.3689,-2.3796,-0.2988,-2.3441,0.9108,46.86,-2.82,-3.96,,adl
14.317199,-1.8906,0.3689,-2.3796,-0.5997,-2.2765,0.7707,46.86,-2.82,-3.96,,adl
14.332433,-1.8906,0.3689,-2.3796,-0.5997,-2.2765,0.7707,46.86,-2.82,-3.96,,adl
14.33349,2.1713,-0.8763,-1.6177,-0.5997,-2.2765,0.7707,46.86,-2.82,-3.96,,adl
14.336671,2.1713,-0.8763,-1.6177,-0.5044,-1.9116,0.6386,46.86,-2.82,-3.96,,adl
14.358285,2.1713,-0.8763,-1.6177,-0.3286,-1.8621,0.6232,46.86,-2.82,-3.96,,adl
14.377417,2.1713,-0.8763,-1.6177,-0.3286,-1.8621,0.6232,45.12,-4.74,-9.6,,adl
14.378606,2.1713,-0.8763,-1.6177,-0.359,-1.5516,0.8224,45.12,-4.74,-9.6,,adl
14.393799,2.1713,-0.8763,-1.6177,-0.359,-1.5516,0.8224,45.12,-4.74,-9.6,,adl
14.395544,1.4146,-1.8215,-1.4959,-0.359,-1.5516,0.8224,45.12,-4.74,-9.6,,adl
14.397868,1.4146,-1.8215,-1.4959,-0.4197,-1.396,1.0035,45.12,-4.74,-9.6,,adl
14.4188,1.4146,-1.8215,-1.4959,-0.0751,-1.3321,0.8863,45.12,-4.74,-9.6,,adl
14.440103,1.4146,-1.8215,-1.4959,-0.0751,-1.3321,0.8863,42.72,-6.42,-14.94,,adl
14.442069,1.4146,-1.8215,-1.4959,0.1641,-1.3145,0.6828,42.72,-6.42,-14.94,,adl
14.455846,1.4146,-1.8215,-1.4959,0.1641,-1.3145,0.6828,42.72,-6.42,-14.94,,adl
14.457446,1.1111,-0.088,-1.0642,0.1641,-1.3145,0.6828,42.72,-6.42,-14.94,,adl
14.468001,1.1111,-0.088,-1.0642,0.2386,-1.2698,0.4916,42.72,-6.42,-14.94,,adl
14.480215,1.1111,-0.088,-1.0642,0.1715,-1.4077,0.49,42.72,-6.42,-14.94,,adl
14.501462,1.1111,-0.088,-1.0642,0.1715,-1.4077,0.49,40.14,-8.16,-19.62,,adl
14.503189,1.1111,-0.088,-1.0642,-0.0517,-1.5441,0.5955,40.14,-8.16,-19.62,,adl
14.518652,1.1111,-0.088,-1.0642,-0.0517,-1.5441,0.5955,40.14,-8.16,-19.62,,adl
14.520068,-0.1411,-0.3027,-2.435,-0.0517,-1.5441,0.5955,40.14,-8.16,-19.62,,adl
14.521567,-0.1411,-0.3027,-2.435,-0.2258,-1.3369,0.6296,40.14,-8.16,-19.62,,adl
14.540926,-0.1411,-0.3027,-2.435,-0.3633,-1.1883,0.5918,40.14,-8.16,-19.62,,adl
14.563368,-0.1411,-0.3027,-2.435,-0.3633,-1.1883,0.5918,36.78,-10.32,-24.48,,adl
14.565334,-0.1411,-0.3027,-2.435,-0.4293,-0.9619,0.5033,36.78,-10.32,-24.48,,adl
14.577723,-0.1411,-0.3027,-2.435,-0.4293,-0.9619,0.5033,36.78,-10.32,-24.48,,adl
14.578691,1.8082,0.6913,-2.1073,-0.4293,-0.9619,0.5033,36.78,-10.32,-24.48,,adl
14.582536,1.8082,0.6913,-2.1073,-0.4788,-0.7473,0.3787,36.78,-10.32,-24.48,,adl
14.60261,1.8082,0.6913,-2.1073,-0.5646,-0.5406,0.2194,36.78,-10.32,-24.48,,adl
14.624714,1.8082,0.6913,-2.1073,-0.5646,-0.5406,0.2194,34.08,-11.58,-27.84,,adl
14.626307,1.8082,0.6913,-2.1073,-0.6732,-0.4139,0.0607,34.08,-11.58,-27.84,,adl
14.641002,1.8082,0.6913,-2.1073,-0.6732,-0.4139,0.0607,34.08,-11.58,-27.84,,adl
14.642517,2.95,1.7307,-1.7277,-0.6732,-0.4139,0.0607,34.08,-11.58,-27.84,,adl
14.643696,2.95,1.7307,-1.7277,-0.7691,-0.408,-0.0767,34.08,-11.58,-27.84,,adl
14.664374,2.95,1.7307,-1.7277,-0.8725,-0.3686,-0.2418,34.08,-11.58,-27.84,,adl
14.686122,2.95,1.7307,-1.7277,-0.8725,-0.3686,-0.2418,31.68,-12.42,-30.6,,adl
14.687749,2.95,1.7307,-1.7277,-0.9859,-0.1891,-0.4181,31.68,-12.42,-30.6,,adl
14.701845,2.95,1.7307,-1.7277,-0.9859,-0.1891,-0.4181,31.68,-12.42,-30.6,,adl
14.703378,0.7934,0.4366,-1.9201,-0.9859,-0.1891,-0.4181,31.68,-12.42,-30.6,,adl
14.70649,0.7934,0.4366,-1.9201,-1.1196,0.114,-0.5049,31.68,-12.42,-30.6,,adl
14.726817,0.7934,0.4366,-1.9201,-1.29,0.4916,-0.5337,31.68,-12.42,-30.6,,adl
14.747336,0.7934,0.4366,-1.9201,-1.29,0.4916,-0.5337,29.58,-12.0,-33.06,,adl
14.749324,0.7934,0.4366,-1.9201,-1.4253,0.7958,-0.522,29.58,-12.0,-33.06,,adl
14.764155,0.7934,0.4366,-1.9201,-1.4253,0.7958,-0.522,29.58,-12.0,-33.06,,adl
14.765342,-0.808,-0.8422,-0.171,-1.4253,0.7958,-0.522,29.58,-12.0,-33.06,,adl
14.76639,-0.808,-0.8422,-0.171,-1.4578,0.9779,-0.4629,29.58,-12.0,-33.06,,adl
14.787158,-0.808,-0.8422,-0.171,-1.3257,0.9944,-0.3404,29.58,-12.0,-33.06,,adl
14.809301,-0.808,-0.8422,-0.171,-1.3257,0.9944,-0.3404,28.8,-10.56,-34.44,,adl
14.810972,-0.808,-0.8422,-0.171,-1.0866,0.8511,-0.2253,28.8,-10.56,-34.44,,adl
14.825773,-0.808,-0.8422,-0.171,-1.0866,0.8511,-0.2253,28.8,-10.56,-34.44,,adl
14.827506,-1.9159,-1.8746,3.6048,-1.0866,0.8511,-0.2253,28.8,-10.56,-34.44,,adl
14.828758,-1.9159,-1.8746,3.6048,-0.7942,0.4442,-0.1566,28.8,-10.56,-34.44,,adl
14.849084,-1.9159,-1.8746,3.6048,-0.6578,-0.138,-0.1289,28.8,-10.56,-34.44,,adl
14.870775,-1.9159,-1.8746,3.6048,-0.6578,-0.138,-0.1289,28.86,-8.4,-35.1,,adl
14.872812,-1.9159,-1.8746,3.6048,-0.6109,-0.2711,-0.1241,28.86,-8.4,-35.1,,adl
14.886672,-1.9159,-1.8746,3.6048,-0.6109,-0.2711,-0.1241,28.86,-8.4,-35.1,,adl
14.888136,-0.5044,-6.0991,-0.6156,-0.6109,-0.2711,-0.1241,28.86,-8.4,-35.1,,adl
14.889957,-0.5044,-6.0991,-0.6156,-0.5742,-0.138,-0.5364,28.86,-8.4,-35.1,,adl
14.910972,-0.5044,-6.0991,-0.6156,-0.3984,-0.4772,-0.538,28.86,-8.4,-35.1,,adl
14.933197,-0.5044,-6.0991,-0.6156,-0.3984,-0.4772,-0.538,29.4,-5.58,-35.16,,adl
14.935032,-0.5044,-6.0991,-0.6156,0.0975,-0.2386,-0.0117,29.4,-5.58,-35.16,,adl
14.948595,-0.5044,-6.0991,-0.6156,0.0975,-0.2386,-0.0117,29.4,-5.58,-35.16,,adl
14.949563,1.1796,0.2078,-1.5336,0.0975,-0.2386,-0.0117,29.4,-5.58,-35.16,,adl
14.953845,1.1796,0.2078,-1.5336,0.1609,0.2471,0.2823,29.4,-5.58,-35.16,,adl
14.973175,1.1796,0.2078,-1.5336,-0.1273,0.7084,0.3489,29.4,-5.58,-35.16,,adl
14.993474,1.1796,0.2078,-1.5336,-0.1273,0.7084,0.3489,30.12,-2.94,-34.86,,adl
14.995037,1.1796,0.2078,-1.5336,-0.3388,0.7595,0.2807,30.12,-2.94,-34.86,,adl
15.00979,1.1796,0.2078,-1.5336,-0.3388,0.7595,0.2807,30.12,-2.94,-34.86,,adl
15.011166,2.2828,2.9081,-3.4422,-0.3388,0.7595,0.2807,30.12,-2.94,-34.86,,adl
15.012665,2.2828,2.9081,-3.4422,-0.4469,0.4373,-0.032,30.12,-2.94,-34.86,,adl
15.034247,2.2828,2.9081,-3.4422,-0.4948,0.0304,-0.3691,30.12,-2.94,-34.86,,adl
15.055516,2.2828,2.9081,-3.4422,-0.4948,0.0304,-0.3691,30.66,-1.32,-34.86,,adl
15.05731,2.2828,2.9081,-3.4422,-0.5848,0.0964,-0.5545,30.66,-1.32,-34.86,,adl
15.070683,2.2828,2.9081,-3.4422,-0.5848,0.0964,-0.5545,30.66,-1.32,-34.86,,adl
15.072045,-0.0821,-2.279,-2.0263,-0.5848,0.0964,-0.5545,30.66,-1.32,-34.86,,adl
15.074113,-0.0821,-2.279,-2.0263,-0.6583,0.4522,-0.5449,30.66,-1.32,-34.86,,adl
15.095395,-0.0821,-2.279,-2.0263,-0.5428,0.4565,-0.2482,30.66,-1.32,-34.86,,adl
15.116973,-0.0821,-2.279,-2.0263,-0.5428,0.4565,-0.2482,31.08,-0.12,-34.5,,adl
15.118622,-0.0821,-2.279,-2.0263,-0.163,0.0607,-0.0554,31.08,-0.12,-34.5,,adl
15.134971,-0.0821,-2.279,-2.0263,-0.163,0.0607,-0.0554,31.08,-0.12,-34.5,,adl
15.136404,-1.4461,-0.0809,-0.9945,-0.163,0.0607,-0.0554,31.08,-0.12,-34.5,,adl
15.13772,-1.4461,-0.0809,-0.9945,0.0863,-0.0847,0.0437,31.08,-0.12,-34.5,,adl
15.158279,-1.4461,-0.0809,-0.9945,0.0341,0.0479,0.1316,31.08,-0.12,-34.5,,adl
15.179637,-1.4461,-0.0809,-0.9945,0.0341,0.0479,0.1316,31.32,1.08,-34.8,,adl
15.1813,-1.4461,-0.0809,-0.9945,-0.1081,0.3372,0.1262,31.32,1.08,-34.8,,adl
15.19393,-1.4461,-0.0809,-0.9945,-0.1081,0.3372,0.1262,31.32,1.08,-34.8,,adl
15.195632,-0.1747,1.0491,-1.859,-0.1081,0.3372,0.1262,31.32,1.08,-34.8,,adl
15.197154,-0.1747,1.0491,-1.859,-0.1566,0.4852,0.0868,31.32,1.08,-34.8,,adl
15.218773,-0.1747,1.0491,-1.859,-0.2019,0.58,0.0847,31.32,1.08,-34.8,,adl
15.239994,-0.1747,1.0491,-1.859,-0.2019,0.58,0.0847,31.98,1.44,-34.62,,adl
15.241708,-0.1747,1.0491,-1.859,-0.2376,0.6743,0.008,31.98,1.44,-34.62,,adl
15.256292,-0.1747,1.0491,-1.859,-0.2376,0.6743,0.008,31.98,1.44,-34.62,,adl
15.257847,0.8364,-1.0902,0.3004,-0.2376,0.6743,0.008,31.98,1.44,-34.62,,adl
15.259289,0.8364,-1.0902,0.3004,-0.1033,0.6136,-0.1135,31.98,1.44,-34.62,,adl
15.280019,0.8364,-1.0902,0.3004,0.1449,0.506,-0.1859,31.98,1.44,-34.62,,adl
15.302165,0.8364,-1.0902,0.3004,0.1449,0.506,-0.1859,32.82,2.46,-34.08,,adl
15.303811,0.8364,-1.0902,0.3004,0.2354,0.3036,-0.1545,32.82,2.46,-34.08,,adl
15.317829,0.8364,-1.0902,0.3004,0.2354,0.3036,-0.1545,32.82,2.46,-34.08,,adl
15.319149,-0.7623,0.8089,-2.1589,0.2354,0.3036,-0.1545,32.82,2.46,-34.08,,adl
15.320332,-0.7623,0.8089,-2.1589,0.0123,-0.0064,-0.1342,32.82,2.46,-34.08,,adl
15.342706,-0.7623,0.8089,-2.1589,-0.3574,-0.2088,-0.0794,32.82,2.46,-34.08,,adl
15.363549,-0.7623,0.8089,-2.1589,-0.3574,-0.2088,-0.0794,33.3,2.94,-33.48,,adl
15.365661,-0.7623,0.8089,-2.1589,-0.6791,-0.3441,-0.0495,33.3,2.94,-33.48,,adl
15.379374,-0.7623,0.8089,-2.1589,-0.6791,-0.3441,-0.0495,33.3,2.94,-33.48,,adl
15.380454,-1.7404,0.5567,-1.6163,-0.6791,-0.3441,-0.0495,33.3,2.94,-33.48,,adl
15.384473,-1.7404,0.5567,-1.6163,-0.783,-0.3015,-0.0703,33.3,2.94,-33.48,,adl
15.403812,-1.7404,0.5567,-1.6163,-0.661,-0.1209,-0.0533,33.3,2.94,-33.48,,adl
15.424721,-1.7404,0.5567,-1.6163,-0.661,-0.1209,-0.0533,34.08,3.06,-33.06,,adl
15.426615,-1.7404,0.5567,-1.6163,-0.4682,0.13,-0.0724,34.08,3.06,-33.06,,adl
15.441441,-1.7404,0.5567,-1.6163,-0.4682,0.13,-0.0724,34.08,3.06,-33.06,,adl
15.442975,0.5054,-0.1138,-0.1696,-0.4682,0.13,-0.0724,34.08,3.06,-33.06,,adl
15.444077,0.5054,-0.1138,-0.1696,-0.2924,0.3611,-0.114,34.08,3.06,-33.06,,adl
15.466576,0.5054,-0.1138,-0.1696,-0.1965,0.481,-0.1241,34.08,3.06,-33.06,,adl
15.486069,0.5054,-0.1138,-0.1696,-0.1965,0.481,-0.1241,34.56,3.72,-32.22,,adl
15.487724,0.5054,-0.1138,-0.1696,-0.1832,0.425,-0.1262,34.56,3.72,-32.22,,adl
15.501181,0.5054,-0.1138,-0.1696,-0.1832,0.425,-0.1262,34.56,3.72,-32.22,,adl
15.502556,0.3899,0.0304,-0.6867,-0.1832,0.425,-0.1262,34.56,3.72,-32.22,,adl
15.505779,0.3899,0.0304,-0.6867,-0.294,0.0692,-0.2184,34.56,3.72,-32.22,,adl
15.526782,0.3899,0.0304,-0.6867,-0.4442,-0.286,-0.3292,34.56,3.72,-32.22,,adl
15.548939,0.3899,0.0304,-0.6867,-0.4442,-0.286,-0.3292,35.1,4.02,-31.92,,adl
15.550651,0.3899,0.0304,-0.6867,-0.5561,-0.3782,-0.4032,35.1,4.02,-31.92,,adl
15.563923,0.3899,0.0304,-0.6867,-0.5561,-0.3782,-0.4032,35.1,4.02,-31.92,,adl
15.564924,-1.2719,0.6368,-0.5712,-0.5561,-0.3782,-0.4032,35.1,4.02,-31.92,,adl
15.569126,-1.2719,0.6368,-0.5712,-0.5854,-0.2083,-0.3925,35.1,4.02,-31.92,,adl
15.58877,-1.2719,0.6368,-0.5712,-0.5049,0.0048,-0.2898,35.1,4.02,-31.92,,adl
15.610156,-1.2719,0.6368,-0.5712,-0.5049,0.0048,-0.2898,34.74,4.02,-32.4,,adl
15.611776,-1.2719,0.6368,-0.5712,-0.3569,0.0085,-0.2051,34.74,4.02,-32.4,,adl
15.626346,-1.2719,0.6368,-0.5712,-0.3569,0.0085,-0.2051,34.74,4.02,-32.4,,adl
15.627844,-0.7812,-0.2991,0.6566,-0.3569,0.0085,-0.2051,34.74,4.02,-32.4,,adl
15.629326,-0.7812,-0.2991,0.6566,-0.221,-0.0506,-0.1688,34.74,4.02,-32.4,,adl
15.650418,-0.7812,-0.2991,0.6566,-0.1358,0.0394,-0.1545,34.74,4.02,-32.4,,adl
15.671797,-0.7812,-0.2991,0.6566,-0.1358,0.0394,-0.1545,34.5,5.52,-31.92,,adl
15.673464,-0.7812,-0.2991,0.6566,-0.0644,0.1443,-0.1933,34.5,5.52,-31.92,,adl
15.687341,-0.7812,-0.2991,0.6566,-0.0644,0.1443,-0.1933,34.5,5.52,-31.92,,adl
15.688777,0.3875,-0.751,2.0965,-0.0644,0.1443,-0.1933,34.5,5.52,-31.92,,adl
15.68989,0.3875,-0.751,2.0965,0.0724,0.0911,-0.2674,34.5,5.52,-31.92,,adl
15.71191,0.3875,-0.751,2.0965,0.3265,-0.0884,-0.3334,34.5,5.52,-31.92,,adl
15.733136,0.3875,-0.751,2.0965,0.3265,-0.0884,-0.3334,34.38,6.42,-31.92,,adl
15.734917,0.3875,-0.751,2.0965,0.5449,-0.2477,-0.326,34.38,6.42,-31.92,,adl
15.749008,0.3875,-0.751,2.0965,0.5449,-0.2477,-0.326,34.38,6.42,-31.92,,adl
15.749918,-1.9018,0.4244,-0.478,0.5449,-0.2477,-0.326,34.38,6.42,-31.92,,adl
15.754178,-1.9018,0.4244,-0.478,0.6333,-0.4586,-0.2679,34.38,6.42,-31.92,,adl
15.773651,-1.9018,0.4244,-0.478,0.5358,-0.4554,-0.2269,34.38,6.42,-31.92,,adl
15.793262,-1.9018,0.4244,-0.478,0.5358,-0.4554,-0.2269,34.14,7.62,-31.86,,adl
15.794845,-1.9018,0.4244,-0.478,0.2029,0.0442,-0.2344,34.14,7.62,-31.86,,adl
15.810223,-1.9018,0.4244,-0.478,0.2029,0.0442,-0.2344,34.14,7.62,-31.86,,adl
15.811647,-2.6351,0.3123,-0.3921,0.2029,0.0442,-0.2344,34.14,7.62,-31.86,,adl
15.812787,-2.6351,0.3123,-0.3921,0.0208,0.5534,-0.1587,34.14,7.62,-31.86,,adl
15.834947,-2.6351,0.3123,-0.3921,0.2402,-0.0192,-0.0597,34.14,7.62,-31.86,,adl
15.855129,-2.6351,0.3123,-0.3921,0.2402,-0.0192,-0.0597,34.08,8.22,-32.34,,adl
15.856809,-2.6351,0.3123,-0.3921,0.5284,-1.2788,0.1438,34.08,8.22,-32.34,,adl
15.87195,-2.6351,0.3123,-0.3921,0.5284,-1.2788,0.1438,34.08,8.22,-32.34,,adl
15.873561,-3.5696,-1.025,-1.5748,0.5284,-1.2788,0.1438,34.08,8.22,-32.34,,adl
15.875156,-3.5696,-1.025,-1.5748,0.4932,-1.6315,0.2839,34.08,8.22,-32.34,,adl
15.895939,-3.5696,-1.025,-1.5748,0.3073,-1.0493,0.3899,34.08,8.22,-32.34,,adl
15.917622,-3.5696,-1.025,-1.5748,0.3073,-1.0493,0.3899,33.72,7.68,-32.34,,adl
15.919085,-3.5696,-1.025,-1.5748,0.0485,0.1135,0.1172,33.72,7.68,-32.34,,adl
15.93468,-3.5696,-1.025,-1.5748,0.0485,0.1135,0.1172,33.72,7.68,-32.34,,adl
15.936606,3.3816,-2.9188,2.7451,0.0485,0.1135,0.1172,33.72,7.68,-32.34,,adl
15.937803,3.3816,-2.9188,2.7451,0.1742,-0.5822,-0.2727,33.72,7.68,-32.34,,adl
15.958429,3.3816,-2.9188,2.7451,0.7148,-1.9382,-0.2493,33.72,7.68,-32.34,,adl
15.979405,3.3816,-2.9188,2.7451,0.7148,-1.9382,-0.2493,32.76,7.38,-33.24,,adl
15.981566,3.3816,-2.9188,2.7451,1.0674,-1.6746,0.0048,32.76,7.38,-33.24,,adl
15.995189,3.3816,-2.9188,2.7451,1.0674,-1.6746,0.0048,32.76,7.38,-33.24,,adl
15.996802,-3.2964,1.1029,-0.2949,1.0674,-1.6746,0.0048,32.76,7.38,-33.24,,adl
16.001156,-3.2964,1.1029,-0.2949,0.9609,-1.7177,0.3015,32.76,7.38,-33.24,,adl
16.022802,-3.2964,1.1029,-0.2949,0.5795,-2.2562,0.6035,32.76,7.38,-33.24,,adl
16.040379,-3.2964,1.1029,-0.2949,0.5795,-2.2562,0.6035,31.2,6.84,-34.62,,adl
16.042086,-3.2964,1.1029,-0.2949,0.2317,-2.4352,0.7542,31.2,6.84,-34.62,,adl
16.056742,-3.2964,1.1029,-0.2949,0.2317,-2.4352,0.7542,31.2,6.84,-34.62,,adl
16.058204,-1.4305,-0.5144,-3.2016,0.2317,-2.4352,0.7542,31.2,6.84,-34.62,,adl
16.059336,-1.4305,-0.5144,-3.2016,0.066,-2.1918,0.6434,31.2,6.84,-34.62,,adl
16.081225,-1.4305,-0.5144,-3.2016,0.0288,-2.2285,0.5486,31.2,6.84,-34.62,,adl
16.101291,-1.4305,-0.5144,-3.2016,0.0463,-2.5886,0.547,31.2,6.84,-34.62,,adl
16.103014,-1.4305,-0.5144,-3.2016,0.0463,-2.5886,0.547,28.26,6.3,-36.24,,adl
16.117116,-1.4305,-0.5144,-3.2016,0.0463,-2.5886,0.547,28.26,6.3,-36.24,,adl
16.118409,-0.1971,0.1968,-2.5155,0.0463,-2.5886,0.547,28.26,6.3,-36.24,,adl
16.122134,-0.1971,0.1968,-2.5155,-0.0288,-2.6126,0.6083,28.26,6.3,-36.24,,adl
16.142556,-0.1971,0.1968,-2.5155,-0.1065,-1.9899,0.84,28.26,6.3,-36.24,,adl
16.164611,-0.1971,0.1968,-2.5155,-0.1065,-1.9899,0.84,23.58,4.44,-39.54,,adl
16.166396,-0.1971,0.1968,-2.5155,-0.098,-1.4701,1.094,23.58,4.44,-39.54,,adl
16.179765,-0.1971,0.1968,-2.5155,-0.098,-1.4701,1.094,23.58,4.44,-39.54,,adl
16.180804,-1.1972,-0.0789,-0.6714,-0.098,-1.4701,1.094,23.58,4.44,-39.54,,adl
