time,ax,ay,az,wx,wy,wz,Bx,By,Bz,Unnamed: 10,label
0.048712,0.0,0.0,0.0,0.0,0.0,0.0,0.0,0.0,0.0,,adl
0.056434,0.0,0.0,0.0,0.0,0.0,0.0,0.0,0.0,0.0,,adl
0.085069,0.0,0.0,0.0,0.0398,-0.1682,0.0245,0.0,0.0,0.0,,adl
0.086969,0.0,0.0,0.0,0.0398,-0.1682,0.0245,-28.9262,-31.4028,-9.6014,,adl
0.108205,0.0,0.0,0.0,0.0398,-0.1682,0.0245,-28.9262,-31.4028,-9.6014,,adl
0.109111,0.0,0.0,0.0,0.0398,-0.1682,0.0245,-28.9262,-31.4028,-9.6014,,adl
0.10977,0.0,0.0,0.0,0.0398,-0.1682,0.0245,-28.9262,-31.4028,-9.6014,,adl
0.145071,0.0,0.0,0.0,0.0398,-0.1682,0.0245,-28.914,-31.4394,-9.516,,adl
0.155784,0.0,0.0,0.0,0.0218,-0.0619,-0.0015,-28.914,-31.4394,-9.516,,adl
0.164511,0.0,0.0,0.0,0.0218,-0.0619,-0.0015,-28.914,-31.4394,-9.516,,adl
0.177501,0.0,0.0,0.0,0.0218,-0.0619,-0.0015,-28.914,-31.4394,-9.516,,adl
0.178708,0.0,0.0,0.0,0.0218,-0.0619,-0.0015,-28.914,-31.4394,-9.516,,adl
0.179541,0.0,0.0,0.0,0.0218,-0.0619,-0.0015,-28.914,-31.4394,-9.516,,adl
0.203106,0.0,0.0,0.0,0.0218,-0.0619,-0.0015,-28.9506,-31.4272,-9.455,,adl
0.222686,0.0,0.0,0.0,0.0352,-0.0148,-0.0072,-28.9506,-31.4272,-9.455,,adl
0.235208,0.0745,0.0297,-0.1109,0.0352,-0.0148,-0.0072,-28.9506,-31.4272,-9.455,,adl
0.240204,0.0745,0.0297,-0.1109,0.0352,-0.0148,-0.0072,-28.9506,-31.4272,-9.455,,adl
0.241113,0.0745,0.0297,-0.1109,0.0352,-0.0148,-0.0072,-28.9506,-31.4272,-9.455,,adl
0.241846,0.0745,0.0297,-0.1109,0.0352,-0.0148,-0.0072,-28.9506,-31.4272,-9.455,,adl
0.262742,0.0745,0.0297,-0.1109,0.0352,-0.0148,-0.0072,-28.8896,-31.4882,-9.2964,,adl
0.292768,0.0745,0.0297,-0.1109,0.0226,-0.0103,0.0016,-28.8896,-31.4882,-9.2964,,adl
0.303636,0.0339,-0.0063,0.041,0.0226,-0.0103,0.0016,-28.8896,-31.4882,-9.2964,,adl
0.307359,0.0339,-0.0063,0.041,0.0226,-0.0103,0.0016,-28.8896,-31.4882,-9.2964,,adl
0.308218,0.0339,-0.0063,0.041,0.0226,-0.0103,0.0016,-28.8896,-31.4882,-9.2964,,adl
0.308863,0.0339,-0.0063,0.041,0.0226,-0.0103,0.0016,-28.8896,-31.4882,-9.2964,,adl
0.309463,0.0339,-0.0063,0.041,0.0226,-0.0103,0.0016,-28.8896,-31.4882,-9.2964,,adl
0.325045,0.0339,-0.0063,0.041,0.0226,-0.0103,0.0016,-28.8774,-31.6224,-9.0402,,adl
0.363985,0.0339,-0.0063,0.041,0.0497,-0.0105,0.0071,-28.8774,-31.6224,-9.0402,,adl
0.37531,0.0944,0.0674,0.003,0.0497,-0.0105,0.0071,-28.8774,-31.6224,-9.0402,,adl
0.376283,0.0944,0.0674,0.003,0.0497,-0.0105,0.0071,-28.8774,-31.6224,-9.0402,,adl
0.376927,0.0944,0.0674,0.003,0.0497,-0.0105,0.0071,-28.8774,-31.6224,-9.0402,,adl
0.377543,0.0944,0.0674,0.003,0.0497,-0.0105,0.0071,-28.8774,-31.6224,-9.0402,,adl
0.383528,0.0944,0.0674,0.003,0.0497,-0.0105,0.0071,-28.8774,-31.6468,-8.9548,,adl
0.435075,0.0944,0.0674,0.003,0.0397,-0.0028,0.0084,-28.8774,-31.6468,-8.9548,,adl
0.441545,0.0944,0.0674,0.003,0.0397,-0.0028,0.0084,-28.8652,-31.6224,-8.9792,,adl
0.442673,0.0944,0.0674,0.003,0.0397,-0.0028,0.0084,-28.8652,-31.6224,-8.9792,,adl
0.44334,0.0944,0.0674,0.003,0.0397,-0.0028,0.0084,-28.8652,-31.6224,-8.9792,,adl
0.443928,0.0944,0.0674,0.003,0.0397,-0.0028,0.0084,-28.8652,-31.6224,-8.9792,,adl
0.444533,0.0944,0.0674,0.003,0.0397,-0.0028,0.0084,-28.8652,-31.6224,-8.9792,,adl
0.445097,0.0469,-0.0704,0.0084,0.0397,-0.0028,0.0084,-28.8652,-31.6224,-8.9792,,adl
0.503523,0.0469,-0.0704,0.0084,0.0397,-0.0028,0.0084,-28.8774,-31.6224,-8.9304,,adl
0.504868,0.0469,-0.0704,0.0084,0.0196,-0.0158,0.0059,-28.8774,-31.6224,-8.9304,,adl
0.507376,0.0469,-0.0704,0.0084,0.0196,-0.0158,0.0059,-28.8774,-31.6224,-8.9304,,adl
0.508104,0.0469,-0.0704,0.0084,0.0196,-0.0158,0.0059,-28.8774,-31.6224,-8.9304,,adl
0.508736,0.0469,-0.0704,0.0084,0.0196,-0.0158,0.0059,-28.8774,-31.6224,-8.9304,,adl
0.512673,0.0022,0.0599,0.0162,0.0196,-0.0158,0.0059,-28.8774,-31.6224,-8.9304,,adl
0.563032,0.0022,0.0599,0.0162,0.0196,-0.0158,0.0059,-28.8896,-31.659,-8.845,,adl
0.572503,0.0022,0.0599,0.0162,-0.0213,-0.0044,0.0028,-28.8896,-31.659,-8.845,,adl
0.573715,0.0022,0.0599,0.0162,-0.0213,-0.0044,0.0028,-28.8896,-31.659,-8.845,,adl
0.574625,0.0022,0.0599,0.0162,-0.0213,-0.0044,0.0028,-28.8896,-31.659,-8.845,,adl
0.575657,0.0022,0.0599,0.0162,-0.0213,-0.0044,0.0028,-28.8896,-31.659,-8.845,,adl
0.581472,-0.0129,0.0049,0.0213,-0.0213,-0.0044,0.0028,-28.8896,-31.659,-8.845,,adl
0.624283,-0.0129,0.0049,0.0213,-0.0213,-0.0044,0.0028,-28.9018,-31.6834,-8.7962,,adl
0.643513,-0.0129,0.0049,0.0213,-0.0185,0.0039,-0.0011,-28.9018,-31.6834,-8.7962,,adl
0.644743,-0.0129,0.0049,0.0213,-0.0185,0.0039,-0.0011,-28.9018,-31.6834,-8.7962,,adl
0.645544,-0.0129,0.0049,0.0213,-0.0185,0.0039,-0.0011,-28.9018,-31.6834,-8.7962,,adl
0.646273,-0.0129,0.0049,0.0213,-0.0185,0.0039,-0.0011,-28.9018,-31.6834,-8.7962,,adl
0.647159,-0.0129,0.0049,0.0213,-0.0185,0.0039,-0.0011,-28.9018,-31.6834,-8.7962,,adl
0.652609,0.0444,0.0249,0.0262,-0.0185,0.0039,-0.0011,-28.9018,-31.6834,-8.7962,,adl
0.682699,0.0444,0.0249,0.0262,-0.0185,0.0039,-0.0011,-28.914,-31.6956,-8.7474,,adl
0.708898,0.0444,0.0249,0.0262,-0.0185,0.0039,-0.0011,-28.914,-31.6956,-8.7474,,adl
0.710107,0.0444,0.0249,0.0262,-0.0185,0.0039,-0.0011,-28.914,-31.6956,-8.7474,,adl
0.711032,0.0444,0.0249,0.0262,-0.0185,0.0039,-0.0011,-28.914,-31.6956,-8.7474,,adl
0.711915,0.0444,0.0249,0.0262,-0.0063,-0.0021,0.0008,-28.914,-31.6956,-8.7474,,adl
0.722701,0.0246,0.039,0.0086,-0.0063,-0.0021,0.0008,-28.914,-31.6956,-8.7474,,adl
0.743428,0.0246,0.039,0.0086,-0.0063,-0.0021,0.0008,-28.9628,-31.6956,-8.7596,,adl
0.775556,0.0246,0.039,0.0086,-0.0063,-0.0021,0.0008,-28.9628,-31.6956,-8.7596,,adl
0.776812,0.0246,0.039,0.0086,-0.0063,-0.0021,0.0008,-28.9628,-31.6956,-8.7596,,adl
0.777581,0.0246,0.039,0.0086,-0.0063,-0.0021,0.0008,-28.9628,-31.6956,-8.7596,,adl
0.781551,0.0246,0.039,0.0086,-0.0011,-0.002,-0.0003,-28.9628,-31.6956,-8.7596,,adl
0.793869,-0.0053,-0.0175,-0.0064,-0.0011,-0.002,-0.0003,-28.9628,-31.6956,-8.7596,,adl
0.800726,-0.0053,-0.0175,-0.0064,-0.0011,-0.002,-0.0003,-28.975,-31.6102,-8.8816,,adl
0.841377,-0.0053,-0.0175,-0.0064,-0.0011,-0.002,-0.0003,-28.975,-31.6102,-8.8816,,adl
0.842906,-0.0053,-0.0175,-0.0064,-0.0011,-0.002,-0.0003,-28.975,-31.6102,-8.8816,,adl
0.843843,-0.0053,-0.0175,-0.0064,-0.0011,-0.002,-0.0003,-28.975,-31.6102,-8.8816,,adl
0.844751,-0.0053,-0.0175,-0.0064,-0.0011,-0.002,-0.0003,-28.975,-31.6102,-8.8816,,adl
0.850593,-0.0053,-0.0175,-0.0064,0.0333,-0.0077,0.0009,-28.975,-31.6102,-8.8816,,adl
0.860452,-0.0053,-0.0175,-0.0064,0.0333,-0.0077,0.0009,-28.9994,-31.5736,-8.906,,adl
0.861457,0.0144,0.0117,-0.0136,0.0333,-0.0077,0.0009,-28.9994,-31.5736,-8.906,,adl
0.910711,0.0144,0.0117,-0.0136,0.0333,-0.0077,0.0009,-28.9994,-31.5736,-8.906,,adl
0.911935,0.0144,0.0117,-0.0136,0.0333,-0.0077,0.0009,-28.9994,-31.5736,-8.906,,adl
0.912567,0.0144,0.0117,-0.0136,0.0333,-0.0077,0.0009,-28.9994,-31.5736,-8.906,,adl
0.924121,0.0144,0.0117,-0.0136,0.0333,-0.0077,0.0009,-28.9994,-31.5858,-8.845,,adl
0.92504,0.0144,0.0117,-0.0136,0.0205,-0.0109,0.0063,-28.9994,-31.5858,-8.845,,adl
0.931405,0.0318,0.005,-0.0054,0.0205,-0.0109,0.0063,-28.9994,-31.5858,-8.845,,adl
0.975461,0.0318,0.005,-0.0054,0.0205,-0.0109,0.0063,-28.9994,-31.5858,-8.845,,adl
0.976626,0.0318,0.005,-0.0054,0.0205,-0.0109,0.0063,-28.9994,-31.5858,-8.845,,adl
0.977235,0.0318,0.005,-0.0054,0.0205,-0.0109,0.0063,-28.9994,-31.5858,-8.845,,adl
0.992918,0.0318,0.005,-0.0054,0.0205,-0.0109,0.0063,-29.036,-31.5736,-8.8816,,adl
0.99401,0.0318,0.005,-0.0054,0.0128,-0.0124,0.0049,-29.036,-31.5736,-8.8816,,adl
1.001237,-0.0138,-0.0055,0.003,0.0128,-0.0124,0.0049,-29.036,-31.5736,-8.8816,,adl
1.042168,-0.0138,-0.0055,0.003,0.0128,-0.0124,0.0049,-29.036,-31.5736,-8.8816,,adl
1.043371,-0.0138,-0.0055,0.003,0.0128,-0.0124,0.0049,-29.036,-31.5736,-8.8816,,adl
1.044013,-0.0138,-0.0055,0.003,0.0128,-0.0124,0.0049,-29.036,-31.5736,-8.8816,,adl
1.044632,-0.0138,-0.0055,0.003,0.0128,-0.0124,0.0049,-29.036,-31.5736,-8.8816,,adl
1.05136,-0.0138,-0.0055,0.003,0.0128,-0.0124,0.0049,-29.0848,-31.5858,-8.8572,,adl
1.060786,-0.0138,-0.0055,0.003,-0.0201,-0.0064,0.002,-29.0848,-31.5858,-8.8572,,adl
1.071425,0.0005,0.0181,0.0086,-0.0201,-0.0064,0.002,-29.0848,-31.5858,-8.8572,,adl
1.10926,0.0005,0.0181,0.0086,-0.0201,-0.0064,0.002,-29.1214,-31.598,-8.8328,,adl
1.111005,0.0005,0.0181,0.0086,-0.0201,-0.0064,0.002,-29.1214,-31.598,-8.8328,,adl
1.112077,0.0005,0.0181,0.0086,-0.0201,-0.0064,0.002,-29.1214,-31.598,-8.8328,,adl
1.112864,0.0005,0.0181,0.0086,-0.0201,-0.0064,0.002,-29.1214,-31.598,-8.8328,,adl
1.131141,0.0005,0.0181,0.0086,-0.0117,0.0001,-0.0005,-29.1214,-31.598,-8.8328,,adl
1.14072,0.0062,0.0207,0.0268,-0.0117,0.0001,-0.0005,-29.1214,-31.598,-8.8328,,adl
1.17128,0.0062,0.0207,0.0268,-0.0117,0.0001,-0.0005,-29.1214,-31.5858,-8.7962,,adl
1.174098,0.0062,0.0207,0.0268,-0.0117,0.0001,-0.0005,-29.1214,-31.5858,-8.7962,,adl
1.17516,0.0062,0.0207,0.0268,-0.0117,0.0001,-0.0005,-29.1214,-31.5858,-8.7962,,adl
1.175946,0.0062,0.0207,0.0268,-0.0117,0.0001,-0.0005,-29.1214,-31.5858,-8.7962,,adl
1.201238,0.0062,0.0207,0.0268,0.0236,0.0104,0.0009,-29.1214,-31.5858,-8.7962,,adl
1.210774,0.0243,0.0021,0.0335,0.0236,0.0104,0.0009,-29.1214,-31.5858,-8.7962,,adl
1.222833,0.0243,0.0021,0.0335,0.0236,0.0104,0.0009,-29.1214,-31.5858,-8.7718,,adl
1.242116,0.0243,0.0021,0.0335,0.0236,0.0104,0.0009,-29.1214,-31.5858,-8.7718,,adl
1.242804,0.0243,0.0021,0.0335,0.0236,0.0104,0.0009,-29.1214,-31.5858,-8.7718,,adl
1.24322,0.0243,0.0021,0.0335,0.0236,0.0104,0.0009,-29.1214,-31.5858,-8.7718,,adl
1.243607,0.0243,0.0021,0.0335,0.0236,0.0104,0.0009,-29.1214,-31.5858,-8.7718,,adl
1.26695,0.0243,0.0021,0.0335,0.0236,0.0104,0.0009,-29.1824,-31.598,-8.7352,,adl
1.26852,0.0243,0.0021,0.0335,0.0236,0.0104,0.0009,-29.2556,-31.6346,-8.7352,,adl
1.269218,0.0243,0.0021,0.0335,0.0316,0.0009,0.0008,-29.2556,-31.6346,-8.7352,,adl
1.282763,0.0087,-0.0064,-0.0614,0.0316,0.0009,0.0008,-29.2556,-31.6346,-8.7352,,adl
1.308375,0.0087,-0.0064,-0.0614,0.0316,0.0009,0.0008,-29.2556,-31.6346,-8.7352,,adl
1.309189,0.0087,-0.0064,-0.0614,0.0316,0.0009,0.0008,-29.2556,-31.6346,-8.7352,,adl
1.309594,0.0087,-0.0064,-0.0614,0.0316,0.0009,0.0008,-29.2556,-31.6346,-8.7352,,adl
1.320734,0.0087,-0.0064,-0.0614,0.0316,0.0009,0.0008,-29.2556,-31.6224,-8.7474,,adl
1.340179,0.0087,-0.0064,-0.0614,0.0129,0.0,0.0028,-29.2556,-31.6224,-8.7474,,adl
1.351292,0.005,0.0297,0.0277,0.0129,0.0,0.0028,-29.2556,-31.6224,-8.7474,,adl
1.371565,0.005,0.0297,0.0277,0.0129,0.0,0.0028,-29.2434,-31.598,-8.7718,,adl
1.374175,0.005,0.0297,0.0277,0.0129,0.0,0.0028,-29.2434,-31.598,-8.7718,,adl
1.37491,0.005,0.0297,0.0277,0.0129,0.0,0.0028,-29.2434,-31.598,-8.7718,,adl
1.375335,0.005,0.0297,0.0277,0.0129,0.0,0.0028,-29.2434,-31.598,-8.7718,,adl
1.410047,0.005,0.0297,0.0277,0.0201,-0.0057,0.0041,-29.2434,-31.598,-8.7718,,adl
1.419788,-0.0188,-0.0486,-0.0118,0.0201,-0.0057,0.0041,-29.2434,-31.598,-8.7718,,adl
1.420642,-0.0188,-0.0486,-0.0118,0.0201,-0.0057,0.0041,-29.2068,-31.5492,-8.784,,adl
1.442129,-0.0188,-0.0486,-0.0118,0.0201,-0.0057,0.0041,-29.2068,-31.5492,-8.784,,adl
1.443032,-0.0188,-0.0486,-0.0118,0.0201,-0.0057,0.0041,-29.2068,-31.5492,-8.784,,adl
1.443686,-0.0188,-0.0486,-0.0118,0.0201,-0.0057,0.0041,-29.2068,-31.5492,-8.784,,adl
1.444311,-0.0188,-0.0486,-0.0118,0.0201,-0.0057,0.0041,-29.2068,-31.5492,-8.784,,adl
1.471904,-0.0188,-0.0486,-0.0118,0.0201,-0.0057,0.0041,-29.219,-31.5492,-8.662,,adl
1.478303,-0.0188,-0.0486,-0.0118,0.012,0.0007,0.0012,-29.219,-31.5492,-8.662,,adl
1.488647,0.0247,0.016,0.0032,0.012,0.0007,0.0012,-29.219,-31.5492,-8.662,,adl
1.508903,0.0247,0.016,0.0032,0.012,0.0007,0.0012,-29.219,-31.5492,-8.662,,adl
1.509508,0.0247,0.016,0.0032,0.012,0.0007,0.0012,-29.219,-31.5492,-8.662,,adl
1.51002,0.0247,0.016,0.0032,0.012,0.0007,0.0012,-29.219,-31.5492,-8.662,,adl
1.519079,0.0247,0.016,0.0032,0.012,0.0007,0.0012,-29.219,-31.5736,-8.601,,adl
1.54964,0.0247,0.016,0.0032,-0.03,-0.0043,0.0023,-29.219,-31.5736,-8.601,,adl
1.558511,-0.0015,0.0084,0.0035,-0.03,-0.0043,0.0023,-29.219,-31.5736,-8.601,,adl
1.569111,-0.0015,0.0084,0.0035,-0.03,-0.0043,0.0023,-29.219,-31.5858,-8.5888,,adl
1.573431,-0.0015,0.0084,0.0035,-0.03,-0.0043,0.0023,-29.219,-31.5858,-8.5888,,adl
1.574327,-0.0015,0.0084,0.0035,-0.03,-0.0043,0.0023,-29.219,-31.5858,-8.5888,,adl
1.575171,-0.0015,0.0084,0.0035,-0.03,-0.0043,0.0023,-29.219,-31.5858,-8.5888,,adl
1.619631,-0.0015,0.0084,0.0035,-0.2364,-0.0272,-0.0011,-29.219,-31.5858,-8.5888,,adl
1.621665,-0.0015,0.0084,0.0035,-0.2364,-0.0272,-0.0011,-29.1702,-31.5858,-8.54,,adl
1.629211,0.0026,-0.0084,0.0623,-0.2364,-0.0272,-0.0011,-29.1702,-31.5858,-8.54,,adl
1.641852,0.0026,-0.0084,0.0623,-0.2364,-0.0272,-0.0011,-29.1702,-31.5858,-8.54,,adl
1.643059,0.0026,-0.0084,0.0623,-0.2364,-0.0272,-0.0011,-29.1702,-31.5858,-8.54,,adl
1.644002,0.0026,-0.0084,0.0623,-0.2364,-0.0272,-0.0011,-29.1702,-31.5858,-8.54,,adl
1.644874,0.0026,-0.0084,0.0623,-0.2364,-0.0272,-0.0011,-29.1702,-31.5858,-8.54,,adl
1.664701,0.0026,-0.0084,0.0623,-0.2364,-0.0272,-0.0011,-29.097,-31.5614,-8.6254,,adl
1.688552,0.0026,-0.0084,0.0623,-0.3453,-0.1193,-0.0438,-29.097,-31.5614,-8.6254,,adl
1.699175,-0.0039,-0.0189,0.1372,-0.3453,-0.1193,-0.0438,-29.097,-31.5614,-8.6254,,adl
1.70773,-0.0039,-0.0189,0.1372,-0.3453,-0.1193,-0.0438,-29.097,-31.5614,-8.6254,,adl
1.708857,-0.0039,-0.0189,0.1372,-0.3453,-0.1193,-0.0438,-29.097,-31.5614,-8.6254,,adl
1.709698,-0.0039,-0.0189,0.1372,-0.3453,-0.1193,-0.0438,-29.097,-31.5614,-8.6254,,adl
1.727913,-0.0039,-0.0189,0.1372,-0.3453,-0.1193,-0.0438,-29.1458,-31.5492,-8.6986,,adl
1.757393,-0.0039,-0.0189,0.1372,-0.1834,-0.0917,-0.0439,-29.1458,-31.5492,-8.6986,,adl
1.7677,-0.1682,0.0894,0.2418,-0.1834,-0.0917,-0.0439,-29.1458,-31.5492,-8.6986,,adl
1.773458,-0.1682,0.0894,0.2418,-0.1834,-0.0917,-0.0439,-29.1458,-31.5492,-8.6986,,adl
1.774406,-0.1682,0.0894,0.2418,-0.1834,-0.0917,-0.0439,-29.1458,-31.5492,-8.6986,,adl
1.775399,-0.1682,0.0894,0.2418,-0.1834,-0.0917,-0.0439,-29.1458,-31.5492,-8.6986,,adl
1.78859,-0.1682,0.0894,0.2418,-0.1834,-0.0917,-0.0439,-29.0238,-31.659,-8.5034,,adl
1.829507,-0.1682,0.0894,0.2418,0.0213,-0.0185,-0.0061,-29.0238,-31.659,-8.5034,,adl
1.838378,-0.0072,0.2976,-0.1454,0.0213,-0.0185,-0.0061,-29.0238,-31.659,-8.5034,,adl
1.840846,-0.0072,0.2976,-0.1454,0.0213,-0.0185,-0.0061,-29.0238,-31.659,-8.5034,,adl
1.841769,-0.0072,0.2976,-0.1454,0.0213,-0.0185,-0.0061,-29.0238,-31.659,-8.5034,,adl
1.842514,-0.0072,0.2976,-0.1454,0.0213,-0.0185,-0.0061,-29.0238,-31.659,-8.5034,,adl
1.843373,-0.0072,0.2976,-0.1454,0.0213,-0.0185,-0.0061,-29.0238,-31.659,-8.5034,,adl
1.848352,-0.0072,0.2976,-0.1454,0.0213,-0.0185,-0.0061,-29.0116,-31.7078,-8.5034,,adl
1.898409,-0.0072,0.2976,-0.1454,-0.0039,0.0011,-0.0005,-29.0116,-31.7078,-8.5034,,adl
1.908764,-0.0072,0.2976,-0.1454,-0.0039,0.0011,-0.0005,-28.9262,-31.6956,-8.6742,,adl
1.909934,0.0648,-0.0475,-0.1352,-0.0039,0.0011,-0.0005,-28.9262,-31.6956,-8.6742,,adl
1.910968,0.0648,-0.0475,-0.1352,-0.0039,0.0011,-0.0005,-28.9262,-31.6956,-8.6742,,adl
1.911725,0.0648,-0.0475,-0.1352,-0.0039,0.0011,-0.0005,-28.9262,-31.6956,-8.6742,,adl
1.91251,0.0648,-0.0475,-0.1352,-0.0039,0.0011,-0.0005,-28.9262,-31.6956,-8.6742,,adl
1.967417,0.0648,-0.0475,-0.1352,0.1469,0.0276,0.0064,-28.9262,-31.6956,-8.6742,,adl
1.968275,0.0648,-0.0475,-0.1352,0.1469,0.0276,0.0064,-28.9018,-31.6102,-8.8572,,adl
1.975264,0.0648,-0.0475,-0.1352,0.1469,0.0276,0.0064,-28.9018,-31.6102,-8.8572,,adl
1.975784,0.0648,-0.0475,-0.1352,0.1469,0.0276,0.0064,-28.9018,-31.6102,-8.8572,,adl
1.976188,0.0648,-0.0475,-0.1352,0.1469,0.0276,0.0064,-28.9018,-31.6102,-8.8572,,adl
1.976795,0.0078,-0.0008,-0.0276,0.1469,0.0276,0.0064,-28.9018,-31.6102,-8.8572,,adl
2.02951,0.0078,-0.0008,-0.0276,0.1469,0.0276,0.0064,-28.8774,-31.5492,-8.9914,,adl
2.03896,0.0078,-0.0008,-0.0276,0.0286,0.0048,0.0252,-28.8774,-31.5492,-8.9914,,adl
2.040633,0.0078,-0.0008,-0.0276,0.0286,0.0048,0.0252,-28.8774,-31.5492,-8.9914,,adl
2.041137,0.0078,-0.0008,-0.0276,0.0286,0.0048,0.0252,-28.8774,-31.5492,-8.9914,,adl
2.041528,0.0078,-0.0008,-0.0276,0.0286,0.0048,0.0252,-28.8774,-31.5492,-8.9914,,adl
2.041916,0.0078,-0.0008,-0.0276,0.0286,0.0048,0.0252,-28.8774,-31.5492,-8.9914,,adl
2.047438,0.069,-0.0343,-0.2819,0.0286,0.0048,0.0252,-28.8774,-31.5492,-8.9914,,adl
2.087607,0.069,-0.0343,-0.2819,0.0286,0.0048,0.0252,-28.8652,-31.5126,-9.089,,adl
2.108338,0.069,-0.0343,-0.2819,0.028,-0.0226,-0.0048,-28.8652,-31.5126,-9.089,,adl
2.109637,0.069,-0.0343,-0.2819,0.028,-0.0226,-0.0048,-28.8652,-31.5126,-9.089,,adl
2.110402,0.069,-0.0343,-0.2819,0.028,-0.0226,-0.0048,-28.8652,-31.5126,-9.089,,adl
2.111421,0.069,-0.0343,-0.2819,0.028,-0.0226,-0.0048,-28.8652,-31.5126,-9.089,,adl
2.117263,0.0256,-0.0541,0.1416,0.028,-0.0226,-0.0048,-28.8652,-31.5126,-9.089,,adl
2.147265,0.0256,-0.0541,0.1416,0.028,-0.0226,-0.0048,-28.8774,-31.537,-9.089,,adl
2.175709,0.0256,-0.0541,0.1416,0.0362,0.0037,-0.0005,-28.8774,-31.537,-9.089,,adl
2.176768,0.0256,-0.0541,0.1416,0.0362,0.0037,-0.0005,-28.8774,-31.537,-9.089,,adl
2.177416,0.0256,-0.0541,0.1416,0.0362,0.0037,-0.0005,-28.8774,-31.537,-9.089,,adl
2.178046,0.0256,-0.0541,0.1416,0.0362,0.0037,-0.0005,-28.8774,-31.537,-9.089,,adl
2.189164,-0.033,-0.1001,0.0009,0.0362,0.0037,-0.0005,-28.8774,-31.537,-9.089,,adl
2.20826,-0.033,-0.1001,0.0009,0.0362,0.0037,-0.0005,-28.853,-31.5858,-9.0402,,adl
2.242241,-0.033,-0.1001,0.0009,0.0362,0.0037,-0.0005,-28.853,-31.5858,-9.0402,,adl
2.243564,-0.033,-0.1001,0.0009,0.0362,0.0037,-0.0005,-28.853,-31.5858,-9.0402,,adl
2.244188,-0.033,-0.1001,0.0009,0.0362,0.0037,-0.0005,-28.853,-31.5858,-9.0402,,adl
2.244815,-0.033,-0.1001,0.0009,0.0362,0.0037,-0.0005,-28.853,-31.5858,-9.0402,,adl
2.24721,-0.033,-0.1001,0.0009,0.0465,-0.0003,0.0041,-28.853,-31.5858,-9.0402,,adl
2.256864,-0.0101,0.043,0.0224,0.0465,-0.0003,0.0041,-28.853,-31.5858,-9.0402,,adl
2.266805,-0.0101,0.043,0.0224,0.0465,-0.0003,0.0041,-28.975,-31.5126,-9.2232,,adl
2.31081,-0.0101,0.043,0.0224,0.0465,-0.0003,0.0041,-28.975,-31.5126,-9.2232,,adl
2.31198,-0.0101,0.043,0.0224,0.0465,-0.0003,0.0041,-28.975,-31.5126,-9.2232,,adl
2.312635,-0.0101,0.043,0.0224,0.0465,-0.0003,0.0041,-28.975,-31.5126,-9.2232,,adl
2.316615,-0.0101,0.043,0.0224,0.0983,0.0117,0.0029,-28.975,-31.5126,-9.2232,,adl
2.328097,-0.0101,0.043,0.0224,0.0983,0.0117,0.0029,-29.0116,-31.4882,-9.2476,,adl
2.328905,-0.018,-0.0576,-0.1316,0.0983,0.0117,0.0029,-29.0116,-31.4882,-9.2476,,adl
2.377024,-0.018,-0.0576,-0.1316,0.0983,0.0117,0.0029,-29.0116,-31.4882,-9.2476,,adl
2.377748,-0.018,-0.0576,-0.1316,0.0983,0.0117,0.0029,-29.0116,-31.4882,-9.2476,,adl
2.378182,-0.018,-0.0576,-0.1316,0.0983,0.0117,0.0029,-29.0116,-31.4882,-9.2476,,adl
2.378776,-0.018,-0.0576,-0.1316,0.0983,0.0117,0.0029,-29.0116,-31.4882,-9.2476,,adl
2.387213,-0.018,-0.0576,-0.1316,0.0983,0.0117,0.0029,-29.0604,-31.5004,-9.1622,,adl
2.388283,-0.018,-0.0576,-0.1316,0.0197,0.0196,0.0039,-29.0604,-31.5004,-9.1622,,adl
2.396921,0.0617,-0.0714,-0.0009,0.0197,0.0196,0.0039,-29.0604,-31.5004,-9.1622,,adl
2.443109,0.0617,-0.0714,-0.0009,0.0197,0.0196,0.0039,-29.0604,-31.5004,-9.1622,,adl
2.443857,0.0617,-0.0714,-0.0009,0.0197,0.0196,0.0039,-29.0604,-31.5004,-9.1622,,adl
2.444283,0.0617,-0.0714,-0.0009,0.0197,0.0196,0.0039,-29.0604,-31.5004,-9.1622,,adl
2.444712,0.0617,-0.0714,-0.0009,0.0197,0.0196,0.0039,-29.0482,-31.5614,-9.0524,,adl
2.456143,0.0617,-0.0714,-0.0009,0.0358,-0.0012,0.0085,-29.0482,-31.5614,-9.0524,,adl
2.466223,-0.0064,-0.0073,0.0492,0.0358,-0.0012,0.0085,-29.0482,-31.5614,-9.0524,,adl
2.508091,-0.0064,-0.0073,0.0492,0.0358,-0.0012,0.0085,-29.0848,-31.598,-8.9548,,adl
2.509251,-0.0064,-0.0073,0.0492,0.0358,-0.0012,0.0085,-29.0848,-31.598,-8.9548,,adl
2.509919,-0.0064,-0.0073,0.0492,0.0358,-0.0012,0.0085,-29.0848,-31.598,-8.9548,,adl
2.510608,-0.0064,-0.0073,0.0492,0.0358,-0.0012,0.0085,-29.0848,-31.598,-8.9548,,adl
2.52617,-0.0064,-0.0073,0.0492,-0.055,0.0121,0.0043,-29.0848,-31.598,-8.9548,,adl
2.535905,-0.0095,0.0573,0.1185,-0.055,0.0121,0.0043,-29.0848,-31.598,-8.9548,,adl
2.567247,-0.0095,0.0573,0.1185,-0.055,0.0121,0.0043,-29.1092,-31.6102,-8.9426,,adl
2.575837,-0.0095,0.0573,0.1185,-0.055,0.0121,0.0043,-29.1092,-31.6102,-8.9426,,adl
2.576792,-0.0095,0.0573,0.1185,-0.055,0.0121,0.0043,-29.1092,-31.6102,-8.9426,,adl
2.577425,-0.0095,0.0573,0.1185,-0.055,0.0121,0.0043,-29.1092,-31.6102,-8.9426,,adl
2.578023,-0.0095,0.0573,0.1185,-0.055,0.0121,0.0043,-29.1092,-31.6102,-8.9426,,adl
2.595926,-0.0095,0.0573,0.1185,-0.0406,0.0033,-0.0032,-29.1092,-31.6102,-8.9426,,adl
2.605498,0.0059,0.0029,0.077,-0.0406,0.0033,-0.0032,-29.1092,-31.6102,-8.9426,,adl
2.624477,0.0059,0.0029,0.077,-0.0406,0.0033,-0.0032,-29.0848,-31.5614,-8.8694,,adl
2.64373,0.0059,0.0029,0.077,-0.0406,0.0033,-0.0032,-29.0848,-31.5614,-8.8694,,adl
2.646276,0.0059,0.0029,0.077,-0.0406,0.0033,-0.0032,-29.0848,-31.5614,-8.8694,,adl
2.65126,0.0059,0.0029,0.077,-0.0406,0.0033,-0.0032,-29.0848,-31.5614,-8.8694,,adl
2.666002,0.0059,0.0029,0.077,0.0043,0.0065,0.0024,-29.0848,-31.5614,-8.8694,,adl
2.677602,-0.0002,0.0096,-0.0463,0.0043,0.0065,0.0024,-29.0848,-31.5614,-8.8694,,adl
2.685674,-0.0002,0.0096,-0.0463,0.0043,0.0065,0.0024,-29.036,-31.5614,-8.8572,,adl
2.708545,-0.0002,0.0096,-0.0463,0.0043,0.0065,0.0024,-29.036,-31.5614,-8.8572,,adl
2.710396,-0.0002,0.0096,-0.0463,0.0043,0.0065,0.0024,-29.036,-31.5614,-8.8572,,adl
2.712334,-0.0002,0.0096,-0.0463,0.0043,0.0065,0.0024,-29.036,-31.5614,-8.8572,,adl
2.735985,-0.0002,0.0096,-0.0463,0.041,-0.0103,0.0051,-29.036,-31.5614,-8.8572,,adl
2.749366,-0.0002,0.0096,-0.0463,0.041,-0.0103,0.0051,-29.0238,-31.537,-8.8328,,adl
2.752412,-0.0181,0.0007,-0.0121,0.041,-0.0103,0.0051,-29.0238,-31.537,-8.8328,,adl
2.774866,-0.0181,0.0007,-0.0121,0.041,-0.0103,0.0051,-29.0238,-31.537,-8.8328,,adl
2.776349,-0.0181,0.0007,-0.0121,0.041,-0.0103,0.0051,-29.0238,-31.537,-8.8328,,adl
2.777499,-0.0181,0.0007,-0.0121,0.041,-0.0103,0.0051,-29.0238,-31.537,-8.8328,,adl
2.778848,-0.0181,0.0007,-0.0121,0.041,-0.0103,0.0051,-29.0238,-31.537,-8.8328,,adl
2.80733,-0.0181,0.0007,-0.0121,0.041,-0.0103,0.0051,-28.9628,-31.5248,-8.8084,,adl
2.808766,-0.0181,0.0007,-0.0121,0.066,-0.0158,0.0048,-28.9628,-31.5248,-8.8084,,adl
2.815484,-0.0075,-0.0159,-0.0542,0.066,-0.0158,0.0048,-28.9628,-31.5248,-8.8084,,adl
2.844414,-0.0075,-0.0159,-0.0542,0.066,-0.0158,0.0048,-28.9628,-31.5248,-8.8084,,adl
2.846919,-0.0075,-0.0159,-0.0542,0.066,-0.0158,0.0048,-28.9628,-31.5248,-8.8084,,adl
2.84949,-0.0075,-0.0159,-0.0542,0.066,-0.0158,0.0048,-28.9628,-31.5248,-8.8084,,adl
2.866502,-0.0075,-0.0159,-0.0542,0.066,-0.0158,0.0048,-28.9628,-31.5004,-8.8328,,adl
2.875769,-0.0075,-0.0159,-0.0542,0.023,-0.0342,0.0071,-28.9628,-31.5004,-8.8328,,adl
2.885397,0.0083,0.0066,0.0033,0.023,-0.0342,0.0071,-28.9628,-31.5004,-8.8328,,adl
2.909517,0.0083,0.0066,0.0033,0.023,-0.0342,0.0071,-28.9628,-31.5004,-8.8328,,adl
2.912069,0.0083,0.0066,0.0033,0.023,-0.0342,0.0071,-28.9628,-31.5004,-8.8328,,adl
2.914359,0.0083,0.0066,0.0033,0.023,-0.0342,0.0071,-28.9628,-31.5004,-8.8328,,adl
2.92544,0.0083,0.0066,0.0033,0.023,-0.0342,0.0071,-28.9872,-31.5004,-8.8206,,adl
2.944648,0.0083,0.0066,0.0033,0.0582,-0.0527,-0.0005,-28.9872,-31.5004,-8.8206,,adl
2.95361,-0.019,-0.0438,0.0894,0.0582,-0.0527,-0.0005,-28.9872,-31.5004,-8.8206,,adl
2.975878,-0.019,-0.0438,0.0894,0.0582,-0.0527,-0.0005,-28.9872,-31.5004,-8.8206,,adl
2.977632,-0.019,-0.0438,0.0894,0.0582,-0.0527,-0.0005,-28.9872,-31.5004,-8.8206,,adl
2.979113,-0.019,-0.0438,0.0894,0.0582,-0.0527,-0.0005,-28.9872,-31.5004,-8.8206,,adl
2.980448,-0.019,-0.0438,0.0894,0.0582,-0.0527,-0.0005,-28.9872,-31.5004,-8.8206,,adl
2.984591,-0.019,-0.0438,0.0894,0.0582,-0.0527,-0.0005,-28.975,-31.4882,-8.7718,,adl
3.01539,-0.019,-0.0438,0.0894,0.0077,-0.0089,-0.0001,-28.975,-31.4882,-8.7718,,adl
3.024861,-0.044,-0.044,-0.0206,0.0077,-0.0089,-0.0001,-28.975,-31.4882,-8.7718,,adl
3.043493,-0.044,-0.044,-0.0206,0.0077,-0.0089,-0.0001,-28.9872,-31.5126,-8.6254,,adl
3.047453,-0.044,-0.044,-0.0206,0.0077,-0.0089,-0.0001,-28.9872,-31.5126,-8.6254,,adl
3.050002,-0.044,-0.044,-0.0206,0.0077,-0.0089,-0.0001,-28.9872,-31.5126,-8.6254,,adl
3.052788,-0.044,-0.044,-0.0206,0.0077,-0.0089,-0.0001,-28.9872,-31.5126,-8.6254,,adl
3.085363,-0.044,-0.044,-0.0206,0.0373,0.0123,-0.0072,-28.9872,-31.5126,-8.6254,,adl
3.095846,0.0134,0.0384,-0.0469,0.0373,0.0123,-0.0072,-28.9872,-31.5126,-8.6254,,adl
3.104413,0.0134,0.0384,-0.0469,0.0373,0.0123,-0.0072,-29.036,-31.598,-8.5522,,adl
3.108203,0.0134,0.0384,-0.0469,0.0373,0.0123,-0.0072,-29.036,-31.598,-8.5522,,adl
3.109102,0.0134,0.0384,-0.0469,0.0373,0.0123,-0.0072,-29.036,-31.598,-8.5522,,adl
3.109831,0.0134,0.0384,-0.0469,0.0373,0.0123,-0.0072,-29.036,-31.598,-8.5522,,adl
3.155109,0.0134,0.0384,-0.0469,-0.0264,0.0129,0.0011,-29.036,-31.598,-8.5522,,adl
3.167064,0.0134,0.0384,-0.0469,-0.0264,0.0129,0.0011,-29.0726,-31.6346,-8.3692,,adl
3.169597,0.0227,0.0222,-0.1185,-0.0264,0.0129,0.0011,-29.0726,-31.6346,-8.3692,,adl
3.174812,0.0227,0.0222,-0.1185,-0.0264,0.0129,0.0011,-29.0726,-31.6346,-8.3692,,adl
3.176178,0.0227,0.0222,-0.1185,-0.0264,0.0129,0.0011,-29.0726,-31.6346,-8.3692,,adl
3.177154,0.0227,0.0222,-0.1185,-0.0264,0.0129,0.0011,-29.0726,-31.6346,-8.3692,,adl
3.178147,0.0227,0.0222,-0.1185,-0.0264,0.0129,0.0011,-29.0726,-31.6346,-8.3692,,adl
3.222353,0.0227,0.0222,-0.1185,0.0021,-0.0015,-0.0005,-29.0726,-31.6346,-8.3692,,adl
3.225713,0.0227,0.0222,-0.1185,0.0021,-0.0015,-0.0005,-29.0482,-31.7322,-8.1862,,adl
3.2361,-0.0024,0.0066,0.1954,0.0021,-0.0015,-0.0005,-29.0482,-31.7322,-8.1862,,adl
3.2425,-0.0024,0.0066,0.1954,0.0021,-0.0015,-0.0005,-29.0482,-31.7322,-8.1862,,adl
3.24369,-0.0024,0.0066,0.1954,0.0021,-0.0015,-0.0005,-29.0482,-31.7322,-8.1862,,adl
3.244535,-0.0024,0.0066,0.1954,0.0021,-0.0015,-0.0005,-29.0482,-31.7322,-8.1862,,adl
3.285171,-0.0024,0.0066,0.1954,0.0021,-0.0015,-0.0005,-29.0604,-31.8054,-8.052,,adl
3.293767,-0.0024,0.0066,0.1954,0.0037,0.0061,0.0012,-29.0604,-31.8054,-8.052,,adl
3.306474,0.002,-0.0409,-0.1058,0.0037,0.0061,0.0012,-29.0604,-31.8054,-8.052,,adl
3.309624,0.002,-0.0409,-0.1058,0.0037,0.0061,0.0012,-29.0604,-31.8054,-8.052,,adl
3.311262,0.002,-0.0409,-0.1058,0.0037,0.0061,0.0012,-29.0604,-31.8054,-8.052,,adl
3.312683,0.002,-0.0409,-0.1058,0.0037,0.0061,0.0012,-29.0604,-31.8054,-8.052,,adl
3.344547,0.002,-0.0409,-0.1058,0.0037,0.0061,0.0012,-29.0238,-31.842,-7.9544,,adl
3.363449,0.002,-0.0409,-0.1058,0.0507,0.0001,0.0023,-29.0238,-31.842,-7.9544,,adl
3.372266,0.0052,0.0232,0.0574,0.0507,0.0001,0.0023,-29.0238,-31.842,-7.9544,,adl
3.373846,0.0052,0.0232,0.0574,0.0507,0.0001,0.0023,-29.0238,-31.842,-7.9544,,adl
3.374504,0.0052,0.0232,0.0574,0.0507,0.0001,0.0023,-29.0238,-31.842,-7.9544,,adl
3.375317,0.0052,0.0232,0.0574,0.0507,0.0001,0.0023,-29.0238,-31.842,-7.9544,,adl
3.375976,0.0052,0.0232,0.0574,0.0507,0.0001,0.0023,-29.0238,-31.842,-7.9544,,adl
3.401766,0.0052,0.0232,0.0574,0.0507,0.0001,0.0023,-28.9994,-31.8664,-7.8812,,adl
3.432171,0.0052,0.0232,0.0574,0.0204,0.0072,0.0045,-28.9994,-31.8664,-7.8812,,adl
3.441646,0.0002,0.0228,-0.0539,0.0204,0.0072,0.0045,-28.9994,-31.8664,-7.8812,,adl
3.444126,0.0002,0.0228,-0.0539,0.0204,0.0072,0.0045,-28.9994,-31.8664,-7.8812,,adl
3.445853,0.0002,0.0228,-0.0539,0.0204,0.0072,0.0045,-28.9994,-31.8664,-7.8812,,adl
3.447669,0.0002,0.0228,-0.0539,0.0204,0.0072,0.0045,-28.9994,-31.8664,-7.8812,,adl
3.462105,0.0002,0.0228,-0.0539,0.0204,0.0072,0.0045,-28.975,-31.9152,-7.8446,,adl
3.503932,0.0002,0.0228,-0.0539,0.0234,0.0142,0.0073,-28.975,-31.9152,-7.8446,,adl
3.508021,0.0002,0.0228,-0.0539,0.0234,0.0142,0.0073,-28.975,-31.9152,-7.8446,,adl
3.509927,0.0002,0.0228,-0.0539,0.0234,0.0142,0.0073,-28.975,-31.9152,-7.8446,,adl
3.511805,0.0002,0.0228,-0.0539,0.0234,0.0142,0.0073,-28.975,-31.9152,-7.8446,,adl
3.513625,-0.0054,-0.0165,-0.0319,0.0234,0.0142,0.0073,-28.975,-31.9152,-7.8446,,adl
3.52289,-0.0054,-0.0165,-0.0319,0.0234,0.0142,0.0073,-28.9506,-31.9396,-7.8202,,adl
3.573189,-0.0054,-0.0165,-0.0319,-0.0233,-0.0172,-0.0067,-28.9506,-31.9396,-7.8202,,adl
3.577434,-0.0054,-0.0165,-0.0319,-0.0233,-0.0172,-0.0067,-28.9506,-31.9396,-7.8202,,adl
3.580345,-0.0054,-0.0165,-0.0319,-0.0233,-0.0172,-0.0067,-28.9506,-31.9396,-7.8202,,adl
3.58333,-0.0054,-0.0165,-0.0319,-0.0233,-0.0172,-0.0067,-28.9506,-31.9396,-7.8202,,adl
3.58573,-0.0054,-0.0165,-0.0319,-0.0233,-0.0172,-0.0067,-28.9506,-31.9396,-7.8202,,adl
3.588264,-0.0054,-0.0165,-0.0319,-0.0233,-0.0172,-0.0067,-28.9384,-31.9152,-7.8324,,adl
3.59116,-0.0002,-0.0081,0.0304,-0.0233,-0.0172,-0.0067,-28.9384,-31.9152,-7.8324,,adl
3.64312,-0.0002,-0.0081,0.0304,-0.0233,-0.0172,-0.0067,-28.9262,-31.8786,-7.8812,,adl
3.64862,-0.0002,-0.0081,0.0304,0.0013,0.0023,-0.0036,-28.9262,-31.8786,-7.8812,,adl
3.650278,-0.0002,-0.0081,0.0304,0.0013,0.0023,-0.0036,-28.9262,-31.8786,-7.8812,,adl
3.651947,-0.0002,-0.0081,0.0304,0.0013,0.0023,-0.0036,-28.9262,-31.8786,-7.8812,,adl
3.653372,-0.0002,-0.0081,0.0304,0.0013,0.0023,-0.0036,-28.9262,-31.8786,-7.8812,,adl
3.65493,-0.0179,0.0034,0.091,0.0013,0.0023,-0.0036,-28.9262,-31.8786,-7.8812,,adl
3.702987,-0.0179,0.0034,0.091,0.0013,0.0023,-0.0036,-28.9262,-31.842,-7.8934,,adl
3.707179,-0.0179,0.0034,0.091,0.0013,0.0023,-0.0036,-28.9262,-31.842,-7.8934,,adl
3.709347,-0.0179,0.0034,0.091,0.0013,0.0023,-0.0036,-28.9262,-31.842,-7.8934,,adl
3.710805,-0.0179,0.0034,0.091,0.0013,0.0023,-0.0036,-28.9262,-31.842,-7.8934,,adl
3.712287,-0.0179,0.0034,0.091,0.0153,0.0043,0.0055,-28.9262,-31.842,-7.8934,,adl
3.720456,0.0136,0.036,-0.0497,0.0153,0.0043,0.0055,-28.9262,-31.842,-7.8934,,adl
3.763629,0.0136,0.036,-0.0497,0.0153,0.0043,0.0055,-28.9506,-31.781,-7.93,,adl
3.771746,0.0136,0.036,-0.0497,0.0153,0.0043,0.0055,-28.9994,-31.7688,-7.8934,,adl
3.777381,0.0136,0.036,-0.0497,0.0153,0.0043,0.0055,-28.9994,-31.7688,-7.8934,,adl
3.778482,0.0136,0.036,-0.0497,0.0153,0.0043,0.0055,-28.9994,-31.7688,-7.8934,,adl
3.780229,0.0136,0.036,-0.0497,0.0153,0.0043,0.0055,-28.9994,-31.7688,-7.8934,,adl
3.781218,0.0136,0.036,-0.0497,0.0153,0.0043,0.0055,-28.9994,-31.7688,-7.8934,,adl
3.78209,0.0136,0.036,-0.0497,-0.0273,0.0124,0.0019,-28.9994,-31.7688,-7.8934,,adl
3.790428,0.0262,-0.0201,-0.0307,-0.0273,0.0124,0.0019,-28.9994,-31.7688,-7.8934,,adl
3.82048,0.0262,-0.0201,-0.0307,-0.0273,0.0124,0.0019,-28.9994,-31.7688,-7.808,,adl
3.84183,0.0262,-0.0201,-0.0307,-0.0273,0.0124,0.0019,-28.9994,-31.7688,-7.808,,adl
3.844831,0.0262,-0.0201,-0.0307,-0.0273,0.0124,0.0019,-28.9994,-31.7688,-7.808,,adl
3.847854,0.0262,-0.0201,-0.0307,-0.0273,0.0124,0.0019,-28.9994,-31.7688,-7.808,,adl
3.85244,0.0262,-0.0201,-0.0307,-0.0015,-0.0059,-0.0083,-28.9994,-31.7688,-7.808,,adl
3.863966,-0.035,0.0056,0.0918,-0.0015,-0.0059,-0.0083,-28.9994,-31.7688,-7.808,,adl
3.871352,-0.035,0.0056,0.0918,-0.0015,-0.0059,-0.0083,-29.0238,-31.7566,-7.7836,,adl
3.908797,-0.035,0.0056,0.0918,-0.0015,-0.0059,-0.0083,-29.0238,-31.7566,-7.7836,,adl
3.913672,-0.035,0.0056,0.0918,-0.0015,-0.0059,-0.0083,-29.0238,-31.7566,-7.7836,,adl
3.916569,-0.035,0.0056,0.0918,-0.0015,-0.0059,-0.0083,-29.0238,-31.7566,-7.7836,,adl
3.920805,-0.035,0.0056,0.0918,0.0471,-0.0368,-0.0451,-29.0238,-31.7566,-7.7836,,adl
3.922493,-0.035,0.0056,0.0918,0.0471,-0.0368,-0.0451,-29.0238,-31.7566,-7.8324,,adl
3.930123,0.0022,0.041,-0.0225,0.0471,-0.0368,-0.0451,-29.0238,-31.7566,-7.8324,,adl
3.971146,0.0022,0.041,-0.0225,0.0471,-0.0368,-0.0451,-29.0116,-31.8176,-7.7592,,adl
3.974596,0.0022,0.041,-0.0225,0.0471,-0.0368,-0.0451,-29.0116,-31.8176,-7.7592,,adl
3.97619,0.0022,0.041,-0.0225,0.0471,-0.0368,-0.0451,-29.0116,-31.8176,-7.7592,,adl
3.977707,0.0022,0.041,-0.0225,0.0471,-0.0368,-0.0451,-29.0116,-31.8176,-7.7592,,adl
3.979521,0.0022,0.041,-0.0225,0.0471,-0.0368,-0.0451,-29.0116,-31.8176,-7.7592,,adl
3.989844,0.0022,0.041,-0.0225,0.0397,0.0244,-0.0457,-29.0116,-31.8176,-7.7592,,adl
3.999781,0.0406,-0.0424,-0.0349,0.0397,0.0244,-0.0457,-29.0116,-31.8176,-7.7592,,adl
4.020397,0.0406,-0.0424,-0.0349,0.0397,0.0244,-0.0457,-28.975,-31.8908,-7.7836,,adl
4.041247,0.0406,-0.0424,-0.0349,0.0397,0.0244,-0.0457,-28.975,-31.8908,-7.7836,,adl
4.044367,0.0406,-0.0424,-0.0349,0.0397,0.0244,-0.0457,-28.975,-31.8908,-7.7836,,adl
4.046466,0.0406,-0.0424,-0.0349,0.0397,0.0244,-0.0457,-28.975,-31.8908,-7.7836,,adl
4.061563,0.0406,-0.0424,-0.0349,0.0182,-0.0218,-0.0031,-28.975,-31.8908,-7.7836,,adl
4.066031,0.0406,-0.0424,-0.0349,0.0182,-0.0218,-0.0031,-28.9628,-31.964,-7.7592,,adl
4.076328,-0.074,-0.0321,-0.0123,0.0182,-0.0218,-0.0031,-28.9628,-31.964,-7.7592,,adl
4.110927,-0.074,-0.0321,-0.0123,0.0182,-0.0218,-0.0031,-28.9628,-31.964,-7.7592,,adl
4.114918,-0.074,-0.0321,-0.0123,0.0182,-0.0218,-0.0031,-28.9628,-31.964,-7.7592,,adl
4.117383,-0.074,-0.0321,-0.0123,0.0182,-0.0218,-0.0031,-28.9628,-31.964,-7.7592,,adl
4.119939,-0.074,-0.0321,-0.0123,0.0182,-0.0218,-0.0031,-28.9628,-31.964,-7.7592,,adl
4.130664,-0.074,-0.0321,-0.0123,0.0182,-0.0218,-0.0031,-28.914,-32.0006,-7.7104,,adl
4.132962,-0.074,-0.0321,-0.0123,0.1445,-0.1012,0.1148,-28.914,-32.0006,-7.7104,,adl
4.141351,-0.1505,-0.0523,0.0485,0.1445,-0.1012,0.1148,-28.914,-32.0006,-7.7104,,adl
4.175373,-0.1505,-0.0523,0.0485,0.1445,-0.1012,0.1148,-28.914,-32.0006,-7.7104,,adl
4.178796,-0.1505,-0.0523,0.0485,0.1445,-0.1012,0.1148,-28.914,-32.0006,-7.7104,,adl
4.18094,-0.1505,-0.0523,0.0485,0.1445,-0.1012,0.1148,-28.914,-32.0006,-7.7104,,adl
4.191125,-0.1505,-0.0523,0.0485,0.1445,-0.1012,0.1148,-28.9262,-32.0128,-7.6372,,adl
4.198813,-0.1505,-0.0523,0.0485,0.0344,-0.026,0.1192,-28.9262,-32.0128,-7.6372,,adl
4.208926,0.2236,-0.0169,-0.0699,0.0344,-0.026,0.1192,-28.9262,-32.0128,-7.6372,,adl
4.242494,0.2236,-0.0169,-0.0699,0.0344,-0.026,0.1192,-28.9262,-32.0128,-7.6372,,adl
4.246726,0.2236,-0.0169,-0.0699,0.0344,-0.026,0.1192,-28.9262,-32.0128,-7.6372,,adl
4.249218,0.2236,-0.0169,-0.0699,0.0344,-0.026,0.1192,-28.9262,-32.0128,-7.6372,,adl
4.251417,0.2236,-0.0169,-0.0699,0.0344,-0.026,0.1192,-28.975,-32.0006,-7.5884,,adl
4.270018,0.2236,-0.0169,-0.0699,0.0241,0.0153,0.0152,-28.975,-32.0006,-7.5884,,adl
4.279838,0.1751,0.1564,0.0976,0.0241,0.0153,0.0152,-28.975,-32.0006,-7.5884,,adl
4.309854,0.1751,0.1564,0.0976,0.0241,0.0153,0.0152,-29.0238,-31.9762,-7.503,,adl
4.312897,0.1751,0.1564,0.0976,0.0241,0.0153,0.0152,-29.0238,-31.9762,-7.503,,adl
4.314115,0.1751,0.1564,0.0976,0.0241,0.0153,0.0152,-29.0238,-31.9762,-7.503,,adl
4.315992,0.1751,0.1564,0.0976,0.0241,0.0153,0.0152,-29.0238,-31.9762,-7.503,,adl
4.317647,0.1751,0.1564,0.0976,0.0241,0.0153,0.0152,-29.0238,-31.9762,-7.503,,adl
4.340397,0.1751,0.1564,0.0976,0.0272,0.0328,-0.0453,-29.0238,-31.9762,-7.503,,adl
4.348955,-0.1932,-0.1007,-0.1049,0.0272,0.0328,-0.0453,-29.0238,-31.9762,-7.503,,adl
4.370014,-0.1932,-0.1007,-0.1049,0.0272,0.0328,-0.0453,-29.0726,-32.0006,-7.3322,,adl
4.374619,-0.1932,-0.1007,-0.1049,0.0272,0.0328,-0.0453,-29.0726,-32.0006,-7.3322,,adl
4.376206,-0.1932,-0.1007,-0.1049,0.0272,0.0328,-0.0453,-29.0726,-32.0006,-7.3322,,adl
4.377458,-0.1932,-0.1007,-0.1049,0.0272,0.0328,-0.0453,-29.0726,-32.0006,-7.3322,,adl
4.409224,-0.1932,-0.1007,-0.1049,0.0316,0.0092,-0.0435,-29.0726,-32.0006,-7.3322,,adl
4.419717,-0.2727,-0.0637,-0.0592,0.0316,0.0092,-0.0435,-29.0726,-32.0006,-7.3322,,adl
4.430986,-0.2727,-0.0637,-0.0592,0.0316,0.0092,-0.0435,-29.0848,-31.9396,-7.2224,,adl
4.442331,-0.2727,-0.0637,-0.0592,0.0316,0.0092,-0.0435,-29.0848,-31.9396,-7.2224,,adl
4.445486,-0.2727,-0.0637,-0.0592,0.0316,0.0092,-0.0435,-29.0848,-31.9396,-7.2224,,adl
4.447737,-0.2727,-0.0637,-0.0592,0.0316,0.0092,-0.0435,-29.0848,-31.9396,-7.2224,,adl
4.480087,-0.2727,-0.0637,-0.0592,0.0027,0.0076,-0.0154,-29.0848,-31.9396,-7.2224,,adl
4.490435,-0.2727,-0.0637,-0.0592,0.0027,0.0076,-0.0154,-29.158,-31.9152,-7.0638,,adl
4.493891,-0.042,0.0546,0.0471,0.0027,0.0076,-0.0154,-29.158,-31.9152,-7.0638,,adl
4.509271,-0.042,0.0546,0.0471,0.0027,0.0076,-0.0154,-29.158,-31.9152,-7.0638,,adl
4.511069,-0.042,0.0546,0.0471,0.0027,0.0076,-0.0154,-29.158,-31.9152,-7.0638,,adl
4.512418,-0.042,0.0546,0.0471,0.0027,0.0076,-0.0154,-29.158,-31.9152,-7.0638,,adl
4.51366,-0.042,0.0546,0.0471,0.0027,0.0076,-0.0154,-29.158,-31.9152,-7.0638,,adl
4.54998,-0.042,0.0546,0.0471,-0.0293,0.0197,0.0076,-29.158,-31.9152,-7.0638,,adl
4.553026,-0.042,0.0546,0.0471,-0.0293,0.0197,0.0076,-29.1824,-31.8664,-6.954,,adl
4.559177,0.2245,0.0257,0.0974,-0.0293,0.0197,0.0076,-29.1824,-31.8664,-6.954,,adl
4.57648,0.2245,0.0257,0.0974,-0.0293,0.0197,0.0076,-29.1824,-31.8664,-6.954,,adl
4.577617,0.2245,0.0257,0.0974,-0.0293,0.0197,0.0076,-29.1824,-31.8664,-6.954,,adl
4.578347,0.2245,0.0257,0.0974,-0.0293,0.0197,0.0076,-29.1824,-31.8664,-6.954,,adl
4.609407,0.2245,0.0257,0.0974,-0.0293,0.0197,0.0076,-29.2312,-31.9152,-6.8564,,adl
4.62001,0.2245,0.0257,0.0974,-0.0011,-0.0044,0.0338,-29.2312,-31.9152,-6.8564,,adl
4.632749,0.1848,0.0597,-0.0173,-0.0011,-0.0044,0.0338,-29.2312,-31.9152,-6.8564,,adl
4.641743,0.1848,0.0597,-0.0173,-0.0011,-0.0044,0.0338,-29.2312,-31.9152,-6.8564,,adl
4.643268,0.1848,0.0597,-0.0173,-0.0011,-0.0044,0.0338,-29.2312,-31.9152,-6.8564,,adl
4.644141,0.1848,0.0597,-0.0173,-0.0011,-0.0044,0.0338,-29.2312,-31.9152,-6.8564,,adl
4.669825,0.1848,0.0597,-0.0173,-0.0011,-0.0044,0.0338,-29.2434,-31.9274,-6.8564,,adl
4.689374,0.1848,0.0597,-0.0173,0.0123,0.0012,0.0178,-29.2434,-31.9274,-6.8564,,adl
4.703332,-0.0053,-0.0161,-0.0568,0.0123,0.0012,0.0178,-29.2434,-31.9274,-6.8564,,adl
4.712599,-0.0053,-0.0161,-0.0568,0.0123,0.0012,0.0178,-29.2434,-31.9274,-6.8564,,adl
4.714833,-0.0053,-0.0161,-0.0568,0.0123,0.0012,0.0178,-29.2434,-31.9274,-6.8564,,adl
4.716541,-0.0053,-0.0161,-0.0568,0.0123,0.0012,0.0178,-29.2434,-31.9274,-6.8564,,adl
4.719691,-0.0053,-0.0161,-0.0568,0.0123,0.0012,0.0178,-29.2434,-31.9274,-6.8564,,adl
4.728766,-0.0053,-0.0161,-0.0568,0.0123,0.0012,0.0178,-29.2556,-31.9396,-6.893,,adl
4.757256,-0.0053,-0.0161,-0.0568,0.0095,-0.0103,0.0056,-29.2556,-31.9396,-6.893,,adl
4.769281,-0.1736,-0.0259,0.0096,0.0095,-0.0103,0.0056,-29.2556,-31.9396,-6.893,,adl
4.777028,-0.1736,-0.0259,0.0096,0.0095,-0.0103,0.0056,-29.2556,-31.9396,-6.893,,adl
4.779682,-0.1736,-0.0259,0.0096,0.0095,-0.0103,0.0056,-29.2556,-31.9396,-6.893,,adl
4.781812,-0.1736,-0.0259,0.0096,0.0095,-0.0103,0.0056,-29.2556,-31.9396,-6.893,,adl
4.787647,-0.1736,-0.0259,0.0096,0.0095,-0.0103,0.0056,-29.2312,-31.9152,-6.893,,adl
4.827855,-0.1736,-0.0259,0.0096,-0.0057,0.0031,-0.0027,-29.2312,-31.9152,-6.893,,adl
4.837193,-0.0649,-0.0101,-0.0298,-0.0057,0.0031,-0.0027,-29.2312,-31.9152,-6.893,,adl
4.840981,-0.0649,-0.0101,-0.0298,-0.0057,0.0031,-0.0027,-29.2312,-31.9152,-6.893,,adl
4.843798,-0.0649,-0.0101,-0.0298,-0.0057,0.0031,-0.0027,-29.2312,-31.9152,-6.893,,adl
4.847685,-0.0649,-0.0101,-0.0298,-0.0057,0.0031,-0.0027,-29.2312,-31.9152,-6.893,,adl
4.850383,-0.0649,-0.0101,-0.0298,-0.0057,0.0031,-0.0027,-29.2068,-31.9274,-6.9052,,adl
4.897493,-0.0649,-0.0101,-0.0298,-0.0011,0.0177,-0.0136,-29.2068,-31.9274,-6.9052,,adl
4.907228,-0.0649,-0.0101,-0.0298,-0.0011,0.0177,-0.0136,-29.2556,-31.9396,-6.954,,adl
4.909953,0.0688,0.044,0.0272,-0.0011,0.0177,-0.0136,-29.2556,-31.9396,-6.954,,adl
4.912739,0.0688,0.044,0.0272,-0.0011,0.0177,-0.0136,-29.2556,-31.9396,-6.954,,adl
4.915511,0.0688,0.044,0.0272,-0.0011,0.0177,-0.0136,-29.2556,-31.9396,-6.954,,adl
4.918021,0.0688,0.044,0.0272,-0.0011,0.0177,-0.0136,-29.2556,-31.9396,-6.954,,adl
4.920572,0.0688,0.044,0.0272,-0.0011,0.0177,-0.0136,-29.2556,-31.9396,-6.954,,adl
4.967596,0.0688,0.044,0.0272,-0.0011,0.0177,-0.0136,-29.28,-31.903,-7.0272,,adl
4.971318,0.0688,0.044,0.0272,0.0609,-0.0152,-0.0016,-29.28,-31.903,-7.0272,,adl
4.981747,0.0688,0.044,0.0272,0.0609,-0.0152,-0.0016,-29.28,-31.903,-7.0272,,adl
4.984378,0.0688,0.044,0.0272,0.0609,-0.0152,-0.0016,-29.28,-31.903,-7.0272,,adl
4.986905,0.0688,0.044,0.0272,0.0609,-0.0152,-0.0016,-29.28,-31.903,-7.0272,,adl
4.988277,0.0326,-0.0064,0.0103,0.0609,-0.0152,-0.0016,-29.28,-31.903,-7.0272,,adl
5.028651,0.0326,-0.0064,0.0103,0.0609,-0.0152,-0.0016,-29.3532,-31.8908,-7.1126,,adl
5.037506,0.0326,-0.0064,0.0103,-0.0019,-0.0037,0.0113,-29.3532,-31.8908,-7.1126,,adl
5.041568,0.0326,-0.0064,0.0103,-0.0019,-0.0037,0.0113,-29.3532,-31.8908,-7.1126,,adl
5.044452,0.0326,-0.0064,0.0103,-0.0019,-0.0037,0.0113,-29.3532,-31.8908,-7.1126,,adl
5.047554,0.0326,-0.0064,0.0103,-0.0019,-0.0037,0.0113,-29.3532,-31.8908,-7.1126,,adl
5.050086,-0.0162,-0.0156,-0.0414,-0.0019,-0.0037,0.0113,-29.3532,-31.8908,-7.1126,,adl
5.087767,-0.0162,-0.0156,-0.0414,-0.0019,-0.0037,0.0113,-29.3654,-31.8176,-7.1736,,adl
5.108125,-0.0162,-0.0156,-0.0414,-0.0093,0.0073,0.0063,-29.3654,-31.8176,-7.1736,,adl
5.111059,-0.0162,-0.0156,-0.0414,-0.0093,0.0073,0.0063,-29.3654,-31.8176,-7.1736,,adl
5.113199,-0.0162,-0.0156,-0.0414,-0.0093,0.0073,0.0063,-29.3654,-31.8176,-7.1736,,adl
5.115762,-0.0162,-0.0156,-0.0414,-0.0093,0.0073,0.0063,-29.3654,-31.8176,-7.1736,,adl
5.118101,-0.0162,-0.0156,-0.0414,-0.0093,0.0073,0.0063,-29.3654,-31.8176,-7.1736,,adl
5.119513,-0.0323,0.0078,0.0057,-0.0093,0.0073,0.0063,-29.3654,-31.8176,-7.1736,,adl
5.147583,-0.0323,0.0078,0.0057,-0.0093,0.0073,0.0063,-29.3776,-31.7932,-7.1614,,adl
5.176179,-0.0323,0.0078,0.0057,-0.0229,0.0201,0.0009,-29.3776,-31.7932,-7.1614,,adl
5.178822,-0.0323,0.0078,0.0057,-0.0229,0.0201,0.0009,-29.3776,-31.7932,-7.1614,,adl
5.181207,-0.0323,0.0078,0.0057,-0.0229,0.0201,0.0009,-29.3776,-31.7932,-7.1614,,adl
5.183367,-0.0323,0.0078,0.0057,-0.0229,0.0201,0.0009,-29.3776,-31.7932,-7.1614,,adl
5.1889,0.0251,0.0348,-0.0201,-0.0229,0.0201,0.0009,-29.3776,-31.7932,-7.1614,,adl
5.207011,0.0251,0.0348,-0.0201,-0.0229,0.0201,0.0009,-29.3532,-31.8054,-7.1248,,adl
5.243132,0.0251,0.0348,-0.0201,-0.0229,0.0201,0.0009,-29.3532,-31.8054,-7.1248,,adl
5.245831,0.0251,0.0348,-0.0201,-0.0229,0.0201,0.0009,-29.3532,-31.8054,-7.1248,,adl
5.248096,0.0251,0.0348,-0.0201,-0.0229,0.0201,0.0009,-29.3532,-31.8054,-7.1248,,adl
5.250957,0.0251,0.0348,-0.0201,-0.0084,-0.0197,0.0093,-29.3532,-31.8054,-7.1248,,adl
5.26006,-0.0142,0.0177,0.0418,-0.0084,-0.0197,0.0093,-29.3532,-31.8054,-7.1248,,adl
5.266299,-0.0142,0.0177,0.0418,-0.0084,-0.0197,0.0093,-29.3898,-31.8176,-7.1492,,adl
5.308675,-0.0142,0.0177,0.0418,-0.0084,-0.0197,0.0093,-29.3898,-31.8176,-7.1492,,adl
5.312031,-0.0142,0.0177,0.0418,-0.0084,-0.0197,0.0093,-29.3898,-31.8176,-7.1492,,adl
5.31446,-0.0142,0.0177,0.0418,-0.0084,-0.0197,0.0093,-29.3898,-31.8176,-7.1492,,adl
5.31697,-0.0142,0.0177,0.0418,-0.0084,-0.0197,0.0093,-29.3898,-31.8176,-7.1492,,adl
5.319603,-0.0142,0.0177,0.0418,0.0447,-0.0192,0.0055,-29.3898,-31.8176,-7.1492,,adl
5.326051,-0.0142,0.0177,0.0418,0.0447,-0.0192,0.0055,-29.4264,-31.781,-7.198,,adl
5.327641,-0.0106,-0.0133,0.0755,0.0447,-0.0192,0.0055,-29.4264,-31.781,-7.198,,adl
5.376675,-0.0106,-0.0133,0.0755,0.0447,-0.0192,0.0055,-29.4264,-31.781,-7.198,,adl
5.379645,-0.0106,-0.0133,0.0755,0.0447,-0.0192,0.0055,-29.4264,-31.781,-7.198,,adl
5.381699,-0.0106,-0.0133,0.0755,0.0447,-0.0192,0.0055,-29.4264,-31.781,-7.198,,adl
5.386704,-0.0106,-0.0133,0.0755,0.0447,-0.0192,0.0055,-29.4264,-31.7566,-7.198,,adl
5.388815,-0.0106,-0.0133,0.0755,0.0631,-0.0257,-0.012,-29.4264,-31.7566,-7.198,,adl
5.39829,-0.0019,0.064,-0.0746,0.0631,-0.0257,-0.012,-29.4264,-31.7566,-7.198,,adl
5.443519,-0.0019,0.064,-0.0746,0.0631,-0.0257,-0.012,-29.4264,-31.7566,-7.198,,adl
5.448012,-0.0019,0.064,-0.0746,0.0631,-0.0257,-0.012,-29.4264,-31.7566,-7.198,,adl
5.45072,-0.0019,0.064,-0.0746,0.0631,-0.0257,-0.012,-29.4264,-31.7566,-7.198,,adl
5.453213,-0.0019,0.064,-0.0746,0.0631,-0.0257,-0.012,-29.4386,-31.7566,-7.1248,,adl
5.456248,-0.0019,0.064,-0.0746,0.0891,-0.0277,-0.0088,-29.4386,-31.7566,-7.1248,,adl
5.46573,0.007,-0.1326,0.0107,0.0891,-0.0277,-0.0088,-29.4386,-31.7566,-7.1248,,adl
5.50703,0.007,-0.1326,0.0107,0.0891,-0.0277,-0.0088,-29.4386,-31.7444,-7.0394,,adl
5.511194,0.007,-0.1326,0.0107,0.0891,-0.0277,-0.0088,-29.4386,-31.7444,-7.0394,,adl
5.513637,0.007,-0.1326,0.0107,0.0891,-0.0277,-0.0088,-29.4386,-31.7444,-7.0394,,adl
5.5163,0.007,-0.1326,0.0107,0.0891,-0.0277,-0.0088,-29.4386,-31.7444,-7.0394,,adl
5.518754,0.007,-0.1326,0.0107,0.0891,-0.0277,-0.0088,-29.4386,-31.7444,-7.0394,,adl
5.526174,0.007,-0.1326,0.0107,0.0397,-0.0117,-0.0153,-29.4386,-31.7444,-7.0394,,adl
5.536007,-0.0047,-0.0659,0.0041,0.0397,-0.0117,-0.0153,-29.4386,-31.7444,-7.0394,,adl
5.565979,-0.0047,-0.0659,0.0041,0.0397,-0.0117,-0.0153,-29.4874,-31.7688,-6.9662,,adl
5.575237,-0.0047,-0.0659,0.0041,0.0397,-0.0117,-0.0153,-29.4874,-31.7688,-6.9662,,adl
5.577968,-0.0047,-0.0659,0.0041,0.0397,-0.0117,-0.0153,-29.4874,-31.7688,-6.9662,,adl
5.580518,-0.0047,-0.0659,0.0041,0.0397,-0.0117,-0.0153,-29.4874,-31.7688,-6.9662,,adl
5.596168,-0.0047,-0.0659,0.0041,0.0273,-0.0201,0.0055,-29.4874,-31.7688,-6.9662,,adl
5.606066,-0.0429,0.0691,-0.0229,0.0273,-0.0201,0.0055,-29.4874,-31.7688,-6.9662,,adl
5.625603,-0.0429,0.0691,-0.0229,0.0273,-0.0201,0.0055,-29.463,-31.7932,-6.893,,adl
5.643108,-0.0429,0.0691,-0.0229,0.0273,-0.0201,0.0055,-29.463,-31.7932,-6.893,,adl
5.646165,-0.0429,0.0691,-0.0229,0.0273,-0.0201,0.0055,-29.463,-31.7932,-6.893,,adl
5.648974,-0.0429,0.0691,-0.0229,0.0273,-0.0201,0.0055,-29.463,-31.7932,-6.893,,adl
5.666195,-0.0429,0.0691,-0.0229,0.0383,-0.0256,0.0116,-29.463,-31.7932,-6.893,,adl
5.675116,-0.0206,0.0194,0.0042,0.0383,-0.0256,0.0116,-29.463,-31.7932,-6.893,,adl
5.684373,-0.0206,0.0194,0.0042,0.0383,-0.0256,0.0116,-29.4752,-31.8054,-6.8198,,adl
5.708796,-0.0206,0.0194,0.0042,0.0383,-0.0256,0.0116,-29.4752,-31.8054,-6.8198,,adl
5.712023,-0.0206,0.0194,0.0042,0.0383,-0.0256,0.0116,-29.4752,-31.8054,-6.8198,,adl
5.714132,-0.0206,0.0194,0.0042,0.0383,-0.0256,0.0116,-29.4752,-31.8054,-6.8198,,adl
5.716861,-0.0206,0.0194,0.0042,0.0383,-0.0256,0.0116,-29.4752,-31.8054,-6.8198,,adl
5.734298,-0.0206,0.0194,0.0042,0.0233,-0.0048,0.0144,-29.4752,-31.8054,-6.8198,,adl
5.744202,-0.0206,0.0194,0.0042,0.0233,-0.0048,0.0144,-29.4752,-31.842,-6.6978,,adl
5.747915,0.0522,-0.0423,0.0194,0.0233,-0.0048,0.0144,-29.4752,-31.842,-6.6978,,adl
5.774504,0.0522,-0.0423,0.0194,0.0233,-0.0048,0.0144,-29.4752,-31.842,-6.6978,,adl
5.777232,0.0522,-0.0423,0.0194,0.0233,-0.0048,0.0144,-29.4752,-31.842,-6.6978,,adl
5.779039,0.0522,-0.0423,0.0194,0.0233,-0.0048,0.0144,-29.4752,-31.842,-6.6978,,adl
5.804268,0.0522,-0.0423,0.0194,0.0233,-0.0048,0.0144,-29.4874,-31.8908,-6.5636,,adl
5.807832,0.0522,-0.0423,0.0194,0.0044,0.0032,-0.0053,-29.4874,-31.8908,-6.5636,,adl
5.817728,0.0171,0.056,-0.0505,0.0044,0.0032,-0.0053,-29.4874,-31.8908,-6.5636,,adl
5.841953,0.0171,0.056,-0.0505,0.0044,0.0032,-0.0053,-29.4874,-31.8908,-6.5636,,adl
5.845195,0.0171,0.056,-0.0505,0.0044,0.0032,-0.0053,-29.4874,-31.8908,-6.5636,,adl
5.847363,0.0171,0.056,-0.0505,0.0044,0.0032,-0.0053,-29.4874,-31.8908,-6.5636,,adl
5.863746,0.0171,0.056,-0.0505,0.0044,0.0032,-0.0053,-29.4996,-31.9152,-6.466,,adl
5.873545,0.0171,0.056,-0.0505,-0.0065,0.0101,-0.0165,-29.4996,-31.9152,-6.466,,adl
5.885703,0.0089,0.0252,-0.0253,-0.0065,0.0101,-0.0165,-29.4996,-31.9152,-6.466,,adl
5.908539,0.0089,0.0252,-0.0253,-0.0065,0.0101,-0.0165,-29.4996,-31.9152,-6.466,,adl
5.910512,0.0089,0.0252,-0.0253,-0.0065,0.0101,-0.0165,-29.4996,-31.9152,-6.466,,adl
5.912451,0.0089,0.0252,-0.0253,-0.0065,0.0101,-0.0165,-29.4996,-31.9152,-6.466,,adl
5.914256,0.0089,0.0252,-0.0253,-0.0065,0.0101,-0.0165,-29.4996,-31.9152,-6.466,,adl
5.923404,0.0089,0.0252,-0.0253,-0.0065,0.0101,-0.0165,-29.4996,-31.9274,-6.4172,,adl
5.944486,0.0089,0.0252,-0.0253,-0.0222,-0.0025,-0.0041,-29.4996,-31.9274,-6.4172,,adl
5.95438,-0.117,-0.018,0.0316,-0.0222,-0.0025,-0.0041,-29.4996,-31.9274,-6.4172,,adl
5.975465,-0.117,-0.018,0.0316,-0.0222,-0.0025,-0.0041,-29.4996,-31.9274,-6.4172,,adl
5.979396,-0.117,-0.018,0.0316,-0.0222,-0.0025,-0.0041,-29.4996,-31.9274,-6.4172,,adl
5.98218,-0.117,-0.018,0.0316,-0.0222,-0.0025,-0.0041,-29.4996,-31.9274,-6.4172,,adl
5.98533,-0.117,-0.018,0.0316,-0.0222,-0.0025,-0.0041,-29.463,-31.9518,-6.2708,,adl
6.014227,-0.117,-0.018,0.0316,0.0027,-0.0313,0.0005,-29.463,-31.9518,-6.2708,,adl
6.030138,-0.0065,-0.0219,-0.0599,0.0027,-0.0313,0.0005,-29.463,-31.9518,-6.2708,,adl
6.043339,-0.0065,-0.0219,-0.0599,0.0027,-0.0313,0.0005,-29.3898,-32.0006,-6.1732,,adl
6.046495,-0.0065,-0.0219,-0.0599,0.0027,-0.0313,0.0005,-29.3898,-32.0006,-6.1732,,adl
6.049781,-0.0065,-0.0219,-0.0599,0.0027,-0.0313,0.0005,-29.3898,-32.0006,-6.1732,,adl
6.052089,-0.0065,-0.0219,-0.0599,0.0027,-0.0313,0.0005,-29.3898,-32.0006,-6.1732,,adl
6.054234,-0.0065,-0.0219,-0.0599,0.0027,-0.0313,0.0005,-29.3898,-32.0006,-6.1732,,adl
6.084695,-0.0065,-0.0219,-0.0599,-0.0095,0.0043,0.0049,-29.3898,-32.0006,-6.1732,,adl
6.098109,0.0737,0.0812,0.0438,-0.0095,0.0043,0.0049,-29.3898,-32.0006,-6.1732,,adl
6.105254,0.0737,0.0812,0.0438,-0.0095,0.0043,0.0049,-29.3898,-32.0372,-6.0634,,adl
6.107539,0.0737,0.0812,0.0438,-0.0095,0.0043,0.0049,-29.3898,-32.0372,-6.0634,,adl
6.109014,0.0737,0.0812,0.0438,-0.0095,0.0043,0.0049,-29.3898,-32.0372,-6.0634,,adl
6.110495,0.0737,0.0812,0.0438,-0.0095,0.0043,0.0049,-29.3898,-32.0372,-6.0634,,adl
6.154902,0.0737,0.0812,0.0438,-0.0142,0.0097,0.0043,-29.3898,-32.0372,-6.0634,,adl
6.164023,0.0737,0.0812,0.0438,-0.0142,0.0097,0.0043,-29.4142,-32.0372,-6.039,,adl
6.16728,0.0493,-0.0066,0.0137,-0.0142,0.0097,0.0043,-29.4142,-32.0372,-6.039,,adl
6.176287,0.0493,-0.0066,0.0137,-0.0142,0.0097,0.0043,-29.4142,-32.0372,-6.039,,adl
6.179816,0.0493,-0.0066,0.0137,-0.0142,0.0097,0.0043,-29.4142,-32.0372,-6.039,,adl
6.181964,0.0493,-0.0066,0.0137,-0.0142,0.0097,0.0043,-29.4142,-32.0372,-6.039,,adl
6.222506,0.0493,-0.0066,0.0137,-0.0148,0.0073,0.0028,-29.4142,-32.0372,-6.039,,adl
6.22585,0.0493,-0.0066,0.0137,-0.0148,0.0073,0.0028,-29.4142,-32.0616,-6.0512,,adl
6.233597,0.0171,0.0194,-0.0127,-0.0148,0.0073,0.0028,-29.4142,-32.0616,-6.0512,,adl
6.242039,0.0171,0.0194,-0.0127,-0.0148,0.0073,0.0028,-29.4142,-32.0616,-6.0512,,adl
6.244769,0.0171,0.0194,-0.0127,-0.0148,0.0073,0.0028,-29.4142,-32.0616,-6.0512,,adl
6.24759,0.0171,0.0194,-0.0127,-0.0148,0.0073,0.0028,-29.4142,-32.0616,-6.0512,,adl
6.24966,0.0171,0.0194,-0.0127,-0.0148,0.0073,0.0028,-29.4142,-32.0616,-6.0512,,adl
6.284076,0.0171,0.0194,-0.0127,-0.0148,0.0073,0.0028,-29.3898,-32.0372,-6.0512,,adl
6.293863,0.0171,0.0194,-0.0127,-0.0051,0.0091,0.0009,-29.3898,-32.0372,-6.0512,,adl
6.305821,-0.0744,0.0077,0.0089,-0.0051,0.0091,0.0009,-29.3898,-32.0372,-6.0512,,adl
6.308899,-0.0744,0.0077,0.0089,-0.0051,0.0091,0.0009,-29.3898,-32.0372,-6.0512,,adl
6.312767,-0.0744,0.0077,0.0089,-0.0051,0.0091,0.0009,-29.3898,-32.0372,-6.0512,,adl
6.315087,-0.0744,0.0077,0.0089,-0.0051,0.0091,0.0009,-29.3898,-32.0372,-6.0512,,adl
6.343721,-0.0744,0.0077,0.0089,-0.0051,0.0091,0.0009,-29.3776,-32.0372,-6.0634,,adl
6.363247,-0.0744,0.0077,0.0089,-0.0292,0.0087,0.0024,-29.3776,-32.0372,-6.0634,,adl
6.372327,-0.0267,-0.0234,-0.0349,-0.0292,0.0087,0.0024,-29.3776,-32.0372,-6.0634,,adl
6.374182,-0.0267,-0.0234,-0.0349,-0.0292,0.0087,0.0024,-29.3776,-32.0372,-6.0634,,adl
6.375564,-0.0267,-0.0234,-0.0349,-0.0292,0.0087,0.0024,-29.3776,-32.0372,-6.0634,,adl
6.376839,-0.0267,-0.0234,-0.0349,-0.0292,0.0087,0.0024,-29.3776,-32.0372,-6.0634,,adl
6.403422,-0.0267,-0.0234,-0.0349,-0.0292,0.0087,0.0024,-29.3654,-32.025,-6.1,,adl
6.433011,-0.0267,-0.0234,-0.0349,-0.0257,-0.0156,0.0052,-29.3654,-32.025,-6.1,,adl
6.443289,0.0307,0.0263,0.0372,-0.0257,-0.0156,0.0052,-29.3654,-32.025,-6.1,,adl
6.445939,0.0307,0.0263,0.0372,-0.0257,-0.0156,0.0052,-29.3654,-32.025,-6.1,,adl
6.448594,0.0307,0.0263,0.0372,-0.0257,-0.0156,0.0052,-29.3654,-32.025,-6.1,,adl
6.451111,0.0307,0.0263,0.0372,-0.0257,-0.0156,0.0052,-29.3654,-32.025,-6.1,,adl
6.452453,0.0307,0.0263,0.0372,-0.0257,-0.0156,0.0052,-29.3654,-32.025,-6.1,,adl
6.462096,0.0307,0.0263,0.0372,-0.0257,-0.0156,0.0052,-29.3654,-32.0006,-6.2464,,adl
6.503157,0.0307,0.0263,0.0372,-0.0073,-0.0053,-0.0083,-29.3654,-32.0006,-6.2464,,adl
6.508154,0.0307,0.0263,0.0372,-0.0073,-0.0053,-0.0083,-29.3654,-32.0006,-6.2464,,adl
6.51097,0.0307,0.0263,0.0372,-0.0073,-0.0053,-0.0083,-29.3654,-32.0006,-6.2464,,adl
6.51253,0.0307,0.0263,0.0372,-0.0073,-0.0053,-0.0083,-29.3654,-32.0006,-6.2464,,adl
6.514212,0.0479,0.0089,0.0571,-0.0073,-0.0053,-0.0083,-29.3654,-32.0006,-6.2464,,adl
6.521776,0.0479,0.0089,0.0571,-0.0073,-0.0053,-0.0083,-29.402,-31.964,-6.3196,,adl
6.572553,0.0479,0.0089,0.0571,-0.0481,0.0229,-0.0016,-29.402,-31.964,-6.3196,,adl
6.575814,0.0479,0.0089,0.0571,-0.0481,0.0229,-0.0016,-29.402,-31.964,-6.3196,,adl
6.57762,0.0479,0.0089,0.0571,-0.0481,0.0229,-0.0016,-29.402,-31.964,-6.3196,,adl
6.579488,0.0479,0.0089,0.0571,-0.0481,0.0229,-0.0016,-29.402,-31.964,-6.3196,,adl
6.581796,0.0479,0.0089,0.0571,-0.0481,0.0229,-0.0016,-29.4264,-31.964,-6.466,,adl
6.58364,-0.0186,-0.0193,-0.0326,-0.0481,0.0229,-0.0016,-29.4264,-31.964,-6.466,,adl
6.643213,-0.0186,-0.0193,-0.0326,-0.0831,0.047,0.0077,-29.4264,-31.964,-6.466,,adl
6.645909,-0.0186,-0.0193,-0.0326,-0.0831,0.047,0.0077,-29.3898,-31.9518,-6.5392,,adl
6.649373,-0.0186,-0.0193,-0.0326,-0.0831,0.047,0.0077,-29.3898,-31.9518,-6.5392,,adl
6.651457,-0.0186,-0.0193,-0.0326,-0.0831,0.047,0.0077,-29.3898,-31.9518,-6.5392,,adl
6.653308,-0.0186,-0.0193,-0.0326,-0.0831,0.047,0.0077,-29.3898,-31.9518,-6.5392,,adl
6.655283,-0.0186,-0.0193,-0.0326,-0.0831,0.047,0.0077,-29.3898,-31.9518,-6.5392,,adl
6.656561,-0.0242,0.0873,-0.0327,-0.0831,0.047,0.0077,-29.3898,-31.9518,-6.5392,,adl
6.703615,-0.0242,0.0873,-0.0327,-0.0831,0.047,0.0077,-29.341,-31.9274,-6.6124,,adl
6.707765,-0.0242,0.0873,-0.0327,-0.0831,0.047,0.0077,-29.341,-31.9274,-6.6124,,adl
6.709964,-0.0242,0.0873,-0.0327,-0.0831,0.047,0.0077,-29.341,-31.9274,-6.6124,,adl
6.712131,-0.0242,0.0873,-0.0327,-0.0831,0.047,0.0077,-29.341,-31.9274,-6.6124,,adl
6.714177,-0.0242,0.0873,-0.0327,-0.0959,0.0293,0.028,-29.341,-31.9274,-6.6124,,adl
6.721327,0.0003,0.0333,-0.0233,-0.0959,0.0293,0.028,-29.341,-31.9274,-6.6124,,adl
6.772469,0.0003,0.0333,-0.0233,-0.0959,0.0293,0.028,-29.341,-31.903,-6.71,,adl
6.776351,0.0003,0.0333,-0.0233,-0.0959,0.0293,0.028,-29.341,-31.903,-6.71,,adl
6.778463,0.0003,0.0333,-0.0233,-0.0959,0.0293,0.028,-29.341,-31.903,-6.71,,adl
6.781179,0.0003,0.0333,-0.0233,-0.0959,0.0293,0.028,-29.341,-31.903,-6.71,,adl
6.783452,0.0003,0.0333,-0.0233,-0.1071,0.0116,0.0325,-29.341,-31.903,-6.71,,adl
6.791151,0.0488,-0.021,0.026,-0.1071,0.0116,0.0325,-29.341,-31.903,-6.71,,adl
6.832203,0.0488,-0.021,0.026,-0.1071,0.0116,0.0325,-29.341,-31.842,-6.8564,,adl
6.842892,0.0488,-0.021,0.026,-0.1071,0.0116,0.0325,-29.341,-31.842,-6.8564,,adl
6.845696,0.0488,-0.021,0.026,-0.1071,0.0116,0.0325,-29.341,-31.842,-6.8564,,adl
6.848083,0.0488,-0.021,0.026,-0.1071,0.0116,0.0325,-29.341,-31.842,-6.8564,,adl
6.850178,0.0488,-0.021,0.026,-0.1071,0.0116,0.0325,-29.341,-31.842,-6.8564,,adl
6.852433,0.0488,-0.021,0.026,-0.1474,0.0129,0.0378,-29.341,-31.842,-6.8564,,adl
6.861523,0.0063,0.0404,0.0751,-0.1474,0.0129,0.0378,-29.341,-31.842,-6.8564,,adl
6.891404,0.0063,0.0404,0.0751,-0.1474,0.0129,0.0378,-29.3532,-31.7932,-7.0272,,adl
6.909812,0.0063,0.0404,0.0751,-0.1474,0.0129,0.0378,-29.3532,-31.7932,-7.0272,,adl
6.913101,0.0063,0.0404,0.0751,-0.1474,0.0129,0.0378,-29.3532,-31.7932,-7.0272,,adl
6.915742,0.0063,0.0404,0.0751,-0.1474,0.0129,0.0378,-29.3532,-31.7932,-7.0272,,adl
6.92058,0.0063,0.0404,0.0751,-0.0253,0.0334,0.0177,-29.3532,-31.7932,-7.0272,,adl
6.931297,-0.0046,0.0129,-0.0326,-0.0253,0.0334,0.0177,-29.3532,-31.7932,-7.0272,,adl
6.951319,-0.0046,0.0129,-0.0326,-0.0253,0.0334,0.0177,-29.3898,-31.7322,-7.2346,,adl
6.976434,-0.0046,0.0129,-0.0326,-0.0253,0.0334,0.0177,-29.3898,-31.7322,-7.2346,,adl
6.979233,-0.0046,0.0129,-0.0326,-0.0253,0.0334,0.0177,-29.3898,-31.7322,-7.2346,,adl
6.981407,-0.0046,0.0129,-0.0326,-0.0253,0.0334,0.0177,-29.3898,-31.7322,-7.2346,,adl
6.991241,-0.0046,0.0129,-0.0326,-0.0434,0.0059,0.002,-29.3898,-31.7322,-7.2346,,adl
7.000878,-0.0035,0.01,-0.0344,-0.0434,0.0059,0.002,-29.3898,-31.7322,-7.2346,,adl
7.010647,-0.0035,0.01,-0.0344,-0.0434,0.0059,0.002,-29.4386,-31.6468,-7.442,,adl
7.042675,-0.0035,0.01,-0.0344,-0.0434,0.0059,0.002,-29.4386,-31.6468,-7.442,,adl
7.045331,-0.0035,0.01,-0.0344,-0.0434,0.0059,0.002,-29.4386,-31.6468,-7.442,,adl
7.047678,-0.0035,0.01,-0.0344,-0.0434,0.0059,0.002,-29.4386,-31.6468,-7.442,,adl
7.049775,-0.0035,0.01,-0.0344,-0.0434,0.0059,0.002,-29.4386,-31.6468,-7.442,,adl
7.059649,-0.0035,0.01,-0.0344,0.006,0.0154,-0.0099,-29.4386,-31.6468,-7.442,,adl
7.071041,-0.0035,0.01,-0.0344,0.006,0.0154,-0.0099,-29.4508,-31.5492,-7.6006,,adl
7.074223,-0.029,-0.004,-0.0005,0.006,0.0154,-0.0099,-29.4508,-31.5492,-7.6006,,adl
7.110061,-0.029,-0.004,-0.0005,0.006,0.0154,-0.0099,-29.4508,-31.5492,-7.6006,,adl
7.113262,-0.029,-0.004,-0.0005,0.006,0.0154,-0.0099,-29.4508,-31.5492,-7.6006,,adl
7.115512,-0.029,-0.004,-0.0005,0.006,0.0154,-0.0099,-29.4508,-31.5492,-7.6006,,adl
7.130833,-0.029,-0.004,-0.0005,0.006,0.0154,-0.0099,-29.463,-31.4882,-7.7592,,adl
7.133817,-0.029,-0.004,-0.0005,-0.0069,0.008,-0.0004,-29.463,-31.4882,-7.7592,,adl
7.140312,-0.0022,-0.0072,-0.0495,-0.0069,0.008,-0.0004,-29.463,-31.4882,-7.7592,,adl
7.176406,-0.0022,-0.0072,-0.0495,-0.0069,0.008,-0.0004,-29.463,-31.4882,-7.7592,,adl
7.17892,-0.0022,-0.0072,-0.0495,-0.0069,0.008,-0.0004,-29.463,-31.4882,-7.7592,,adl
7.180388,-0.0022,-0.0072,-0.0495,-0.0069,0.008,-0.0004,-29.463,-31.4882,-7.7592,,adl
7.188841,-0.0022,-0.0072,-0.0495,-0.0069,0.008,-0.0004,-29.5118,-31.415,-7.8934,,adl
7.199992,-0.0022,-0.0072,-0.0495,-0.0044,0.0065,-0.002,-29.5118,-31.415,-7.8934,,adl
7.209708,-0.0012,-0.0134,0.0459,-0.0044,0.0065,-0.002,-29.5118,-31.415,-7.8934,,adl
7.242871,-0.0012,-0.0134,0.0459,-0.0044,0.0065,-0.002,-29.5118,-31.415,-7.8934,,adl
7.246006,-0.0012,-0.0134,0.0459,-0.0044,0.0065,-0.002,-29.5118,-31.415,-7.8934,,adl
7.24957,-0.0012,-0.0134,0.0459,-0.0044,0.0065,-0.002,-29.5118,-31.415,-7.8934,,adl
7.252445,-0.0012,-0.0134,0.0459,-0.0044,0.0065,-0.002,-29.5118,-31.415,-7.8934,,adl
7.255057,-0.0012,-0.0134,0.0459,-0.0044,0.0065,-0.002,-29.524,-31.3784,-8.0154,,adl
7.269907,-0.0012,-0.0134,0.0459,-0.0051,0.0031,-0.0013,-29.524,-31.3784,-8.0154,,adl
7.278069,0.0073,-0.0259,-0.0594,-0.0051,0.0031,-0.0013,-29.524,-31.3784,-8.0154,,adl
7.309707,0.0073,-0.0259,-0.0594,-0.0051,0.0031,-0.0013,-29.5362,-31.3784,-8.0398,,adl
7.313659,0.0073,-0.0259,-0.0594,-0.0051,0.0031,-0.0013,-29.5362,-31.3784,-8.0398,,adl
7.316214,0.0073,-0.0259,-0.0594,-0.0051,0.0031,-0.0013,-29.5362,-31.3784,-8.0398,,adl
7.318831,0.0073,-0.0259,-0.0594,-0.0051,0.0031,-0.0013,-29.5362,-31.3784,-8.0398,,adl
7.339984,0.0073,-0.0259,-0.0594,-0.0015,0.0005,-0.0011,-29.5362,-31.3784,-8.0398,,adl
7.349887,-0.0286,-0.0371,0.039,-0.0015,0.0005,-0.0011,-29.5362,-31.3784,-8.0398,,adl
7.370263,-0.0286,-0.0371,0.039,-0.0015,0.0005,-0.0011,-29.4996,-31.4272,-7.9666,,adl
7.374508,-0.0286,-0.0371,0.039,-0.0015,0.0005,-0.0011,-29.4996,-31.4272,-7.9666,,adl
7.377618,-0.0286,-0.0371,0.039,-0.0015,0.0005,-0.0011,-29.4996,-31.4272,-7.9666,,adl
7.381029,-0.0286,-0.0371,0.039,-0.0015,0.0005,-0.0011,-29.4996,-31.4272,-7.9666,,adl
7.4095,-0.0286,-0.0371,0.039,-0.0172,-0.0101,0.0017,-29.4996,-31.4272,-7.9666,,adl
7.426363,0.0009,0.0422,-0.0061,-0.0172,-0.0101,0.0017,-29.4996,-31.4272,-7.9666,,adl
7.429294,0.0009,0.0422,-0.0061,-0.0172,-0.0101,0.0017,-29.4508,-31.4394,-7.9056,,adl
7.442316,0.0009,0.0422,-0.0061,-0.0172,-0.0101,0.0017,-29.4508,-31.4394,-7.9056,,adl
7.445061,0.0009,0.0422,-0.0061,-0.0172,-0.0101,0.0017,-29.4508,-31.4394,-7.9056,,adl
7.447789,0.0009,0.0422,-0.0061,-0.0172,-0.0101,0.0017,-29.4508,-31.4394,-7.9056,,adl
7.449673,0.0009,0.0422,-0.0061,-0.0172,-0.0101,0.0017,-29.4508,-31.4394,-7.9056,,adl
7.479154,0.0009,0.0422,-0.0061,-0.0093,-0.0067,-0.0091,-29.4508,-31.4394,-7.9056,,adl
7.492954,0.0009,0.0422,-0.0061,-0.0093,-0.0067,-0.0091,-29.463,-31.4394,-7.9056,,adl
7.496234,0.0131,-0.0169,-0.0045,-0.0093,-0.0067,-0.0091,-29.463,-31.4394,-7.9056,,adl
7.508796,0.0131,-0.0169,-0.0045,-0.0093,-0.0067,-0.0091,-29.463,-31.4394,-7.9056,,adl
7.510409,0.0131,-0.0169,-0.0045,-0.0093,-0.0067,-0.0091,-29.463,-31.4394,-7.9056,,adl
7.511775,0.0131,-0.0169,-0.0045,-0.0093,-0.0067,-0.0091,-29.463,-31.4394,-7.9056,,adl
7.550208,0.0131,-0.0169,-0.0045,-0.0093,-0.0067,-0.0091,-29.3776,-31.4394,-7.93,,adl
7.554281,0.0131,-0.0169,-0.0045,-0.0419,-0.0021,-0.0115,-29.3776,-31.4394,-7.93,,adl
7.558504,0.0012,-0.0115,-0.0219,-0.0419,-0.0021,-0.0115,-29.3776,-31.4394,-7.93,,adl
7.577115,0.0012,-0.0115,-0.0219,-0.0419,-0.0021,-0.0115,-29.3776,-31.4394,-7.93,,adl
7.579064,0.0012,-0.0115,-0.0219,-0.0419,-0.0021,-0.0115,-29.3776,-31.4394,-7.93,,adl
7.58019,0.0012,-0.0115,-0.0219,-0.0419,-0.0021,-0.0115,-29.3776,-31.4394,-7.93,,adl
7.608967,0.0012,-0.0115,-0.0219,-0.0419,-0.0021,-0.0115,-29.402,-31.4394,-7.9666,,adl
7.618642,0.0012,-0.0115,-0.0219,-0.1278,0.0063,-0.0269,-29.402,-31.4394,-7.9666,,adl
7.628036,-0.029,0.0233,-0.0167,-0.1278,0.0063,-0.0269,-29.402,-31.4394,-7.9666,,adl
7.641415,-0.029,0.0233,-0.0167,-0.1278,0.0063,-0.0269,-29.402,-31.4394,-7.9666,,adl
7.642639,-0.029,0.0233,-0.0167,-0.1278,0.0063,-0.0269,-29.402,-31.4394,-7.9666,,adl
7.643352,-0.029,0.0233,-0.0167,-0.1278,0.0063,-0.0269,-29.402,-31.4394,-7.9666,,adl
7.644015,-0.029,0.0233,-0.0167,-0.1278,0.0063,-0.0269,-29.402,-31.4394,-7.9666,,adl
7.667741,-0.029,0.0233,-0.0167,-0.1278,0.0063,-0.0269,-29.3654,-31.4516,-8.0276,,adl
7.687626,-0.029,0.0233,-0.0167,-0.1972,-0.0344,-0.0059,-29.3654,-31.4516,-8.0276,,adl
7.697116,-0.0667,0.0251,0.1349,-0.1972,-0.0344,-0.0059,-29.3654,-31.4516,-8.0276,,adl
7.707943,-0.0667,0.0251,0.1349,-0.1972,-0.0344,-0.0059,-29.3654,-31.4516,-8.0276,,adl
7.710643,-0.0667,0.0251,0.1349,-0.1972,-0.0344,-0.0059,-29.3654,-31.4516,-8.0276,,adl
7.713029,-0.0667,0.0251,0.1349,-0.1972,-0.0344,-0.0059,-29.3654,-31.4516,-8.0276,,adl
7.727068,-0.0667,0.0251,0.1349,-0.1972,-0.0344,-0.0059,-29.3654,-31.4272,-8.0886,,adl
7.757042,-0.0667,0.0251,0.1349,-0.0336,0.0005,-0.0023,-29.3654,-31.4272,-8.0886,,adl
7.771853,0.039,0.2303,-0.0151,-0.0336,0.0005,-0.0023,-29.3654,-31.4272,-8.0886,,adl
7.776019,0.039,0.2303,-0.0151,-0.0336,0.0005,-0.0023,-29.3654,-31.4272,-8.0886,,adl
7.778684,0.039,0.2303,-0.0151,-0.0336,0.0005,-0.0023,-29.3654,-31.4272,-8.0886,,adl
7.78116,0.039,0.2303,-0.0151,-0.0336,0.0005,-0.0023,-29.3654,-31.4272,-8.0886,,adl
7.786395,0.039,0.2303,-0.0151,-0.0336,0.0005,-0.0023,-29.341,-31.3418,-8.2716,,adl
7.827265,0.039,0.2303,-0.0151,0.0246,0.0036,-0.0085,-29.341,-31.3418,-8.2716,,adl
7.838821,0.0399,-0.0941,-0.1368,0.0246,0.0036,-0.0085,-29.341,-31.3418,-8.2716,,adl
7.841651,0.0399,-0.0941,-0.1368,0.0246,0.0036,-0.0085,-29.341,-31.3418,-8.2716,,adl
7.843419,0.0399,-0.0941,-0.1368,0.0246,0.0036,-0.0085,-29.341,-31.3418,-8.2716,,adl
7.844583,0.0399,-0.0941,-0.1368,0.0246,0.0036,-0.0085,-29.341,-31.3418,-8.2716,,adl
7.845785,0.0399,-0.0941,-0.1368,0.0246,0.0036,-0.0085,-29.341,-31.3418,-8.2716,,adl
7.847806,0.0399,-0.0941,-0.1368,0.0246,0.0036,-0.0085,-29.3776,-31.2808,-8.4668,,adl
7.896957,0.0399,-0.0941,-0.1368,0.0149,-0.0073,-0.0052,-29.3776,-31.2808,-8.4668,,adl
7.908358,0.0399,-0.0941,-0.1368,0.0149,-0.0073,-0.0052,-29.3776,-31.2686,-8.5888,,adl
7.912266,-0.0346,-0.1366,0.1087,0.0149,-0.0073,-0.0052,-29.3776,-31.2686,-8.5888,,adl
7.915157,-0.0346,-0.1366,0.1087,0.0149,-0.0073,-0.0052,-29.3776,-31.2686,-8.5888,,adl
7.916636,-0.0346,-0.1366,0.1087,0.0149,-0.0073,-0.0052,-29.3776,-31.2686,-8.5888,,adl
7.917983,-0.0346,-0.1366,0.1087,0.0149,-0.0073,-0.0052,-29.3776,-31.2686,-8.5888,,adl
7.968514,-0.0346,-0.1366,0.1087,0.0149,-0.0073,-0.0052,-29.341,-31.2564,-8.662,,adl
7.971638,-0.0346,-0.1366,0.1087,0.0742,-0.0017,-0.0037,-29.341,-31.2564,-8.662,,adl
7.974147,-0.0346,-0.1366,0.1087,0.0742,-0.0017,-0.0037,-29.341,-31.2564,-8.662,,adl
7.976547,-0.0346,-0.1366,0.1087,0.0742,-0.0017,-0.0037,-29.341,-31.2564,-8.662,,adl
7.978707,-0.0346,-0.1366,0.1087,0.0742,-0.0017,-0.0037,-29.341,-31.2564,-8.662,,adl
7.980832,-0.0227,-0.0391,-0.122,0.0742,-0.0017,-0.0037,-29.341,-31.2564,-8.662,,adl
8.027859,-0.0227,-0.0391,-0.122,0.0742,-0.0017,-0.0037,-29.402,-31.2442,-8.723,,adl
8.036991,-0.0227,-0.0391,-0.122,0.032,0.002,0.0016,-29.402,-31.2442,-8.723,,adl
8.041191,-0.0227,-0.0391,-0.122,0.032,0.002,0.0016,-29.402,-31.2442,-8.723,,adl
8.043269,-0.0227,-0.0391,-0.122,0.032,0.002,0.0016,-29.402,-31.2442,-8.723,,adl
8.045134,-0.0227,-0.0391,-0.122,0.032,0.002,0.0016,-29.402,-31.2442,-8.723,,adl
8.046873,-0.0227,-0.0391,-0.122,0.032,0.002,0.0016,-29.402,-31.2442,-8.723,,adl
8.048281,0.0004,-0.0157,0.0536,0.032,0.002,0.0016,-29.402,-31.2442,-8.723,,adl
8.087794,0.0004,-0.0157,0.0536,0.032,0.002,0.0016,-29.3654,-31.2442,-8.7718,,adl
8.107974,0.0004,-0.0157,0.0536,0.0493,0.0039,0.0072,-29.3654,-31.2442,-8.7718,,adl
8.110418,0.0004,-0.0157,0.0536,0.0493,0.0039,0.0072,-29.3654,-31.2442,-8.7718,,adl
8.112315,0.0004,-0.0157,0.0536,0.0493,0.0039,0.0072,-29.3654,-31.2442,-8.7718,,adl
8.114218,0.0004,-0.0157,0.0536,0.0493,0.0039,0.0072,-29.3654,-31.2442,-8.7718,,adl
8.117029,0.0123,-0.0158,-0.0187,0.0493,0.0039,0.0072,-29.3654,-31.2442,-8.7718,,adl
8.147606,0.0123,-0.0158,-0.0187,0.0493,0.0039,0.0072,-29.3776,-31.2442,-8.8084,,adl
8.177295,0.0123,-0.0158,-0.0187,0.0309,-0.0015,-0.0004,-29.3776,-31.2442,-8.8084,,adl
8.179265,0.0123,-0.0158,-0.0187,0.0309,-0.0015,-0.0004,-29.3776,-31.2442,-8.8084,,adl
8.180181,0.0123,-0.0158,-0.0187,0.0309,-0.0015,-0.0004,-29.3776,-31.2442,-8.8084,,adl
8.181037,0.0123,-0.0158,-0.0187,0.0309,-0.0015,-0.0004,-29.3776,-31.2442,-8.8084,,adl
8.181943,0.0123,-0.0158,-0.0187,0.0309,-0.0015,-0.0004,-29.3776,-31.2442,-8.8084,,adl
8.187016,0.0055,-0.0085,-0.0015,0.0309,-0.0015,-0.0004,-29.3776,-31.2442,-8.8084,,adl
8.205427,0.0055,-0.0085,-0.0015,0.0309,-0.0015,-0.0004,-29.3532,-31.293,-8.784,,adl
8.243255,0.0055,-0.0085,-0.0015,0.0309,-0.0015,-0.0004,-29.3532,-31.293,-8.784,,adl
8.246643,0.0055,-0.0085,-0.0015,0.0309,-0.0015,-0.0004,-29.3532,-31.293,-8.784,,adl
8.249162,0.0055,-0.0085,-0.0015,0.0309,-0.0015,-0.0004,-29.3532,-31.293,-8.784,,adl
8.251861,0.0055,-0.0085,-0.0015,0.0233,-0.0059,-0.0061,-29.3532,-31.293,-8.784,,adl
8.257034,-0.0236,0.0004,0.0309,0.0233,-0.0059,-0.0061,-29.3532,-31.293,-8.784,,adl
8.266797,-0.0236,0.0004,0.0309,0.0233,-0.0059,-0.0061,-29.3898,-31.3784,-8.6864,,adl
8.309964,-0.0236,0.0004,0.0309,0.0233,-0.0059,-0.0061,-29.3898,-31.3784,-8.6864,,adl
8.313916,-0.0236,0.0004,0.0309,0.0233,-0.0059,-0.0061,-29.3898,-31.3784,-8.6864,,adl
8.31739,-0.0236,0.0004,0.0309,0.0233,-0.0059,-0.0061,-29.3898,-31.3784,-8.6864,,adl
8.320049,-0.0236,0.0004,0.0309,0.032,0.0164,-0.0107,-29.3898,-31.3784,-8.6864,,adl
8.32687,-0.0236,0.0004,0.0309,0.032,0.0164,-0.0107,-29.3776,-31.3784,-8.6498,,adl
8.328142,-0.0014,-0.0166,-0.0078,0.032,0.0164,-0.0107,-29.3776,-31.3784,-8.6498,,adl
8.375551,-0.0014,-0.0166,-0.0078,0.032,0.0164,-0.0107,-29.3776,-31.3784,-8.6498,,adl
8.378364,-0.0014,-0.0166,-0.0078,0.032,0.0164,-0.0107,-29.3776,-31.3784,-8.6498,,adl
8.380601,-0.0014,-0.0166,-0.0078,0.032,0.0164,-0.0107,-29.3776,-31.3784,-8.6498,,adl
8.382813,-0.0014,-0.0166,-0.0078,0.032,0.0164,-0.0107,-29.3776,-31.3784,-8.6498,,adl
8.385447,-0.0014,-0.0166,-0.0078,0.032,0.0164,-0.0107,-29.341,-31.3784,-8.6498,,adl
8.38773,-0.0014,-0.0166,-0.0078,-0.0103,0.0134,0.0052,-29.341,-31.3784,-8.6498,,adl
8.395887,-0.0093,-0.007,0.014,-0.0103,0.0134,0.0052,-29.341,-31.3784,-8.6498,,adl
8.441977,-0.0093,-0.007,0.014,-0.0103,0.0134,0.0052,-29.341,-31.3784,-8.6498,,adl
8.444853,-0.0093,-0.007,0.014,-0.0103,0.0134,0.0052,-29.341,-31.3784,-8.6498,,adl
8.446032,-0.0093,-0.007,0.014,-0.0103,0.0134,0.0052,-29.341,-31.3784,-8.6498,,adl
8.447215,-0.0093,-0.007,0.014,-0.0103,0.0134,0.0052,-29.2922,-31.3784,-8.601,,adl
8.454215,-0.0093,-0.007,0.014,-0.0108,0.0025,0.0104,-29.2922,-31.3784,-8.601,,adl
8.465225,0.0271,0.033,0.0162,-0.0108,0.0025,0.0104,-29.2922,-31.3784,-8.601,,adl
8.504996,0.0271,0.033,0.0162,-0.0108,0.0025,0.0104,-29.3166,-31.4272,-8.5278,,adl
8.509329,0.0271,0.033,0.0162,-0.0108,0.0025,0.0104,-29.3166,-31.4272,-8.5278,,adl
8.511653,0.0271,0.033,0.0162,-0.0108,0.0025,0.0104,-29.3166,-31.4272,-8.5278,,adl
8.514189,0.0271,0.033,0.0162,-0.0108,0.0025,0.0104,-29.3166,-31.4272,-8.5278,,adl
8.524484,0.0271,0.033,0.0162,-0.0836,-0.0031,0.0076,-29.3166,-31.4272,-8.5278,,adl
8.534271,0.0001,-0.0077,0.0277,-0.0836,-0.0031,0.0076,-29.3166,-31.4272,-8.5278,,adl
8.564502,0.0001,-0.0077,0.0277,-0.0836,-0.0031,0.0076,-29.3166,-31.4394,-8.4912,,adl
8.57508,0.0001,-0.0077,0.0277,-0.0836,-0.0031,0.0076,-29.3166,-31.4394,-8.4912,,adl
8.578197,0.0001,-0.0077,0.0277,-0.0836,-0.0031,0.0076,-29.3166,-31.4394,-8.4912,,adl
8.580888,0.0001,-0.0077,0.0277,-0.0836,-0.0031,0.0076,-29.3166,-31.4394,-8.4912,,adl
8.58346,0.0001,-0.0077,0.0277,-0.0836,-0.0031,0.0076,-29.3166,-31.4394,-8.4912,,adl
8.594227,0.0001,-0.0077,0.0277,-0.1762,0.0033,-0.0052,-29.3166,-31.4394,-8.4912,,adl
8.607095,0.0032,0.0384,0.0971,-0.1762,0.0033,-0.0052,-29.3166,-31.4394,-8.4912,,adl
8.623904,0.0032,0.0384,0.0971,-0.1762,0.0033,-0.0052,-29.28,-31.4638,-8.4424,,adl
8.64167,0.0032,0.0384,0.0971,-0.1762,0.0033,-0.0052,-29.28,-31.4638,-8.4424,,adl
8.645063,0.0032,0.0384,0.0971,-0.1762,0.0033,-0.0052,-29.28,-31.4638,-8.4424,,adl
8.647872,0.0032,0.0384,0.0971,-0.1762,0.0033,-0.0052,-29.28,-31.4638,-8.4424,,adl
8.664571,0.0032,0.0384,0.0971,-0.0531,0.0036,-0.0072,-29.28,-31.4638,-8.4424,,adl
8.675019,-0.0443,0.0672,0.0516,-0.0531,0.0036,-0.0072,-29.28,-31.4638,-8.4424,,adl
8.683982,-0.0443,0.0672,0.0516,-0.0531,0.0036,-0.0072,-29.2678,-31.476,-8.4302,,adl
8.709108,-0.0443,0.0672,0.0516,-0.0531,0.0036,-0.0072,-29.2678,-31.476,-8.4302,,adl
8.713107,-0.0443,0.0672,0.0516,-0.0531,0.0036,-0.0072,-29.2678,-31.476,-8.4302,,adl
8.715431,-0.0443,0.0672,0.0516,-0.0531,0.0036,-0.0072,-29.2678,-31.476,-8.4302,,adl
8.733826,-0.0443,0.0672,0.0516,-0.0325,0.0081,-0.0051,-29.2678,-31.476,-8.4302,,adl
8.745633,-0.0443,0.0672,0.0516,-0.0325,0.0081,-0.0051,-29.2068,-31.5004,-8.4668,,adl
8.748756,0.0112,-0.0417,-0.0712,-0.0325,0.0081,-0.0051,-29.2068,-31.5004,-8.4668,,adl
8.775883,0.0112,-0.0417,-0.0712,-0.0325,0.0081,-0.0051,-29.2068,-31.5004,-8.4668,,adl
8.777828,0.0112,-0.0417,-0.0712,-0.0325,0.0081,-0.0051,-29.2068,-31.5004,-8.4668,,adl
8.780072,0.0112,-0.0417,-0.0712,-0.0325,0.0081,-0.0051,-29.2068,-31.5004,-8.4668,,adl
8.782737,0.0112,-0.0417,-0.0712,-0.0325,0.0081,-0.0051,-29.2068,-31.5004,-8.4668,,adl
8.804767,0.0112,-0.0417,-0.0712,-0.0325,0.0081,-0.0051,-29.219,-31.4882,-8.54,,adl
8.80799,0.0112,-0.0417,-0.0712,-0.0005,0.0004,-0.004,-29.219,-31.4882,-8.54,,adl
8.814383,-0.0034,0.0148,-0.0287,-0.0005,0.0004,-0.004,-29.219,-31.4882,-8.54,,adl
8.842891,-0.0034,0.0148,-0.0287,-0.0005,0.0004,-0.004,-29.219,-31.4882,-8.54,,adl
8.84592,-0.0034,0.0148,-0.0287,-0.0005,0.0004,-0.004,-29.219,-31.4882,-8.54,,adl
8.848585,-0.0034,0.0148,-0.0287,-0.0005,0.0004,-0.004,-29.219,-31.4882,-8.54,,adl
8.86463,-0.0034,0.0148,-0.0287,-0.0005,0.0004,-0.004,-29.219,-31.4638,-8.662,,adl
8.874106,-0.0034,0.0148,-0.0287,0.0397,-0.0023,-0.0016,-29.219,-31.4638,-8.662,,adl
8.888391,0.0138,0.0672,-0.0537,0.0397,-0.0023,-0.0016,-29.219,-31.4638,-8.662,,adl
8.908106,0.0138,0.0672,-0.0537,0.0397,-0.0023,-0.0016,-29.219,-31.4638,-8.662,,adl
8.911439,0.0138,0.0672,-0.0537,0.0397,-0.0023,-0.0016,-29.219,-31.4638,-8.662,,adl
8.914783,0.0138,0.0672,-0.0537,0.0397,-0.0023,-0.0016,-29.219,-31.4638,-8.662,,adl
8.924144,0.0138,0.0672,-0.0537,0.0397,-0.0023,-0.0016,-29.2556,-31.415,-8.784,,adl
8.944076,0.0138,0.0672,-0.0537,-0.0025,-0.0091,-0.0027,-29.2556,-31.415,-8.784,,adl
8.95472,-0.0111,-0.0573,-0.0061,-0.0025,-0.0091,-0.0027,-29.2556,-31.415,-8.784,,adl
8.974882,-0.0111,-0.0573,-0.0061,-0.0025,-0.0091,-0.0027,-29.2556,-31.415,-8.784,,adl
8.977562,-0.0111,-0.0573,-0.0061,-0.0025,-0.0091,-0.0027,-29.2556,-31.415,-8.784,,adl
8.979524,-0.0111,-0.0573,-0.0061,-0.0025,-0.0091,-0.0027,-29.2556,-31.415,-8.784,,adl
8.981709,-0.0111,-0.0573,-0.0061,-0.0025,-0.0091,-0.0027,-29.2556,-31.415,-8.784,,adl
8.983795,-0.0111,-0.0573,-0.0061,-0.0025,-0.0091,-0.0027,-29.219,-31.354,-8.8816,,adl
9.014121,-0.0111,-0.0573,-0.0061,0.0358,0.0036,-0.0063,-29.219,-31.354,-8.8816,,adl
9.024243,-0.0081,-0.0414,-0.0135,0.0358,0.0036,-0.0063,-29.219,-31.354,-8.8816,,adl
9.042405,-0.0081,-0.0414,-0.0135,0.0358,0.0036,-0.0063,-29.219,-31.3418,-8.967,,adl
9.044523,-0.0081,-0.0414,-0.0135,0.0358,0.0036,-0.0063,-29.219,-31.3418,-8.967,,adl
9.046945,-0.0081,-0.0414,-0.0135,0.0358,0.0036,-0.0063,-29.219,-31.3418,-8.967,,adl
9.047994,-0.0081,-0.0414,-0.0135,0.0358,0.0036,-0.0063,-29.219,-31.3418,-8.967,,adl
9.084442,-0.0081,-0.0414,-0.0135,0.0141,-0.0024,-0.0003,-29.219,-31.3418,-8.967,,adl
9.100119,-0.0132,0.0116,-0.0026,0.0141,-0.0024,-0.0003,-29.219,-31.3418,-8.967,,adl
9.103464,-0.0132,0.0116,-0.0026,0.0141,-0.0024,-0.0003,-29.2312,-31.3174,-9.028,,adl
9.109619,-0.0132,0.0116,-0.0026,0.0141,-0.0024,-0.0003,-29.2312,-31.3174,-9.028,,adl
9.113121,-0.0132,0.0116,-0.0026,0.0141,-0.0024,-0.0003,-29.2312,-31.3174,-9.028,,adl
9.115294,-0.0132,0.0116,-0.0026,0.0141,-0.0024,-0.0003,-29.2312,-31.3174,-9.028,,adl
9.152623,-0.0132,0.0116,-0.0026,0.0154,-0.0059,0.0028,-29.2312,-31.3174,-9.028,,adl
9.165171,-0.0132,0.0116,-0.0026,0.0154,-0.0059,0.0028,-29.2312,-31.2686,-9.1134,,adl
9.167876,0.0111,-0.0304,0.0182,0.0154,-0.0059,0.0028,-29.2312,-31.2686,-9.1134,,adl
9.175452,0.0111,-0.0304,0.0182,0.0154,-0.0059,0.0028,-29.2312,-31.2686,-9.1134,,adl
9.178221,0.0111,-0.0304,0.0182,0.0154,-0.0059,0.0028,-29.2312,-31.2686,-9.1134,,adl
9.182226,0.0111,-0.0304,0.0182,0.0154,-0.0059,0.0028,-29.2312,-31.2686,-9.1134,,adl
9.184433,0.0111,-0.0304,0.0182,0.0154,-0.0059,0.0028,-29.2312,-31.2686,-9.1134,,adl
9.222758,0.0111,-0.0304,0.0182,0.0044,0.0029,0.0032,-29.2312,-31.2686,-9.1134,,adl
9.225105,0.0111,-0.0304,0.0182,0.0044,0.0029,0.0032,-29.2678,-31.232,-9.1256,,adl
9.23381,-0.0025,-0.0078,-0.0186,0.0044,0.0029,0.0032,-29.2678,-31.232,-9.1256,,adl
9.241669,-0.0025,-0.0078,-0.0186,0.0044,0.0029,0.0032,-29.2678,-31.232,-9.1256,,adl
9.243949,-0.0025,-0.0078,-0.0186,0.0044,0.0029,0.0032,-29.2678,-31.232,-9.1256,,adl
9.245413,-0.0025,-0.0078,-0.0186,0.0044,0.0029,0.0032,-29.2678,-31.232,-9.1256,,adl
9.283555,-0.0025,-0.0078,-0.0186,0.0044,0.0029,0.0032,-29.2556,-31.2442,-9.0768,,adl
9.292655,-0.0025,-0.0078,-0.0186,0.0091,0.0005,0.0052,-29.2556,-31.2442,-9.0768,,adl
9.303056,-0.0119,0.0184,0.0151,0.0091,0.0005,0.0052,-29.2556,-31.2442,-9.0768,,adl
9.308785,-0.0119,0.0184,0.0151,0.0091,0.0005,0.0052,-29.2556,-31.2442,-9.0768,,adl
9.311204,-0.0119,0.0184,0.0151,0.0091,0.0005,0.0052,-29.2556,-31.2442,-9.0768,,adl
9.313487,-0.0119,0.0184,0.0151,0.0091,0.0005,0.0052,-29.2556,-31.2442,-9.0768,,adl
9.342472,-0.0119,0.0184,0.0151,0.0091,0.0005,0.0052,-29.2922,-31.2442,-9.028,,adl
9.363041,-0.0119,0.0184,0.0151,-0.0021,0.0025,0.0011,-29.2922,-31.2442,-9.028,,adl
9.378082,0.0011,-0.0121,0.0012,-0.0021,0.0025,0.0011,-29.2922,-31.2442,-9.028,,adl
9.379299,0.0011,-0.0121,0.0012,-0.0021,0.0025,0.0011,-29.2922,-31.2442,-9.028,,adl
9.380079,0.0011,-0.0121,0.0012,-0.0021,0.0025,0.0011,-29.2922,-31.2442,-9.028,,adl
9.380853,0.0011,-0.0121,0.0012,-0.0021,0.0025,0.0011,-29.2922,-31.2442,-9.028,,adl
9.381598,0.0011,-0.0121,0.0012,-0.0021,0.0025,0.0011,-29.2922,-31.2442,-9.028,,adl
9.402418,0.0011,-0.0121,0.0012,-0.0021,0.0025,0.0011,-29.3044,-31.293,-8.9792,,adl
9.432328,0.0011,-0.0121,0.0012,0.043,0.0172,-0.0011,-29.3044,-31.293,-8.9792,,adl
9.447096,0.0022,0.0013,0.0023,0.043,0.0172,-0.0011,-29.3044,-31.293,-8.9792,,adl
9.450015,0.0022,0.0013,0.0023,0.043,0.0172,-0.0011,-29.3044,-31.293,-8.9792,,adl
9.451584,0.0022,0.0013,0.0023,0.043,0.0172,-0.0011,-29.3044,-31.293,-8.9792,,adl
9.452807,0.0022,0.0013,0.0023,0.043,0.0172,-0.0011,-29.3044,-31.293,-8.9792,,adl
9.461095,0.0022,0.0013,0.0023,0.043,0.0172,-0.0011,-29.3044,-31.3052,-9.0036,,adl
9.503001,0.0022,0.0013,0.0023,0.0107,0.0084,0.0007,-29.3044,-31.3052,-9.0036,,adl
9.512915,0.0022,0.0013,0.0023,0.0107,0.0084,0.0007,-29.3044,-31.3052,-9.0036,,adl
9.515015,0.0022,0.0013,0.0023,0.0107,0.0084,0.0007,-29.3044,-31.3052,-9.0036,,adl
9.517005,0.0022,0.0013,0.0023,0.0107,0.0084,0.0007,-29.3044,-31.3052,-9.0036,,adl
9.519549,-0.0081,-0.0595,-0.0254,0.0107,0.0084,0.0007,-29.3044,-31.3052,-9.0036,,adl
9.522441,-0.0081,-0.0595,-0.0254,0.0107,0.0084,0.0007,-29.3166,-31.2808,-8.967,,adl
9.569468,-0.0081,-0.0595,-0.0254,0.0107,0.0084,0.0007,-29.3166,-31.2686,-8.9914,,adl
9.572235,-0.0081,-0.0595,-0.0254,0.0107,0.0084,0.0007,-29.3044,-31.293,-8.9792,,adl
9.574002,-0.0081,-0.0595,-0.0254,0.0229,-0.0021,-0.0012,-29.3044,-31.293,-8.9792,,adl
9.582975,0.0085,0.0465,0.0291,0.0229,-0.0021,-0.0012,-29.3044,-31.293,-8.9792,,adl
9.584485,0.0085,0.0465,0.0291,0.0229,-0.0021,-0.0012,-29.3044,-31.293,-8.9792,,adl
9.585837,0.0085,0.0465,0.0291,0.0229,-0.0021,-0.0012,-29.3044,-31.293,-8.9792,,adl
9.587337,0.0085,0.0465,0.0291,0.0229,-0.0021,-0.0012,-29.3044,-31.293,-8.9792,,adl
9.588713,0.0085,0.0465,0.0291,0.0229,-0.0021,-0.0012,-29.3044,-31.293,-8.9792,,adl
9.62273,0.0085,0.0465,0.0291,0.0229,-0.0021,-0.0012,-29.2922,-31.2564,-9.0402,,adl
9.642106,0.0085,0.0465,0.0291,0.0043,-0.0033,-0.0016,-29.2922,-31.2564,-9.0402,,adl
9.645784,0.0085,0.0465,0.0291,0.0043,-0.0033,-0.0016,-29.2922,-31.2564,-9.0402,,adl
9.648736,0.0085,0.0465,0.0291,0.0043,-0.0033,-0.0016,-29.2922,-31.2564,-9.0402,,adl
9.652743,0.0085,0.0465,0.0291,0.0043,-0.0033,-0.0016,-29.2922,-31.2564,-9.0402,,adl
9.655418,-0.0054,-0.0236,-0.0083,0.0043,-0.0033,-0.0016,-29.2922,-31.2564,-9.0402,,adl
9.670567,-0.0054,-0.0236,-0.0083,0.0043,-0.0033,-0.0016,-29.2922,-31.293,-9.0646,,adl
9.708293,-0.0054,-0.0236,-0.0083,0.0043,-0.0033,-0.0016,-29.2922,-31.293,-9.0646,,adl
9.711462,-0.0054,-0.0236,-0.0083,0.0043,-0.0033,-0.0016,-29.2922,-31.293,-9.0646,,adl
9.713683,-0.0054,-0.0236,-0.0083,0.0043,-0.0033,-0.0016,-29.2922,-31.293,-9.0646,,adl
9.720269,-0.0054,-0.0236,-0.0083,0.008,0.004,0.0,-29.2922,-31.293,-9.0646,,adl
9.721642,-0.0054,0.0005,0.0035,0.008,0.004,0.0,-29.2922,-31.293,-9.0646,,adl
9.722873,-0.0054,0.0005,0.0035,0.008,0.004,0.0,-29.2922,-31.293,-9.089,,adl
9.770807,-0.0054,0.0005,0.0035,0.008,0.004,0.0,-29.3166,-31.293,-9.0646,,adl
9.775805,-0.0054,0.0005,0.0035,0.008,0.004,0.0,-29.3166,-31.293,-9.0646,,adl
9.777808,-0.0054,0.0005,0.0035,0.008,0.004,0.0,-29.3166,-31.293,-9.0646,,adl
9.780202,-0.0054,0.0005,0.0035,0.008,0.004,0.0,-29.3166,-31.293,-9.0646,,adl
9.781921,-0.0054,0.0005,0.0035,0.008,0.004,0.0,-29.3166,-31.293,-9.0646,,adl
9.783996,-0.0054,0.0005,0.0035,0.0036,-0.0015,-0.0016,-29.3166,-31.293,-9.0646,,adl
9.791107,-0.008,0.0109,0.0031,0.0036,-0.0015,-0.0016,-29.3166,-31.293,-9.0646,,adl
9.820682,-0.008,0.0109,0.0031,0.0036,-0.0015,-0.0016,-29.28,-31.3296,-8.967,,adl
9.84185,-0.008,0.0109,0.0031,0.0036,-0.0015,-0.0016,-29.28,-31.3296,-8.967,,adl
9.844984,-0.008,0.0109,0.0031,0.0036,-0.0015,-0.0016,-29.28,-31.3296,-8.967,,adl
9.847802,-0.008,0.0109,0.0031,0.0036,-0.0015,-0.0016,-29.28,-31.3296,-8.967,,adl
9.851011,-0.008,0.0109,0.0031,0.0068,0.0012,0.0008,-29.28,-31.3296,-8.967,,adl
9.859334,0.0078,-0.0007,-0.0082,0.0068,0.0012,0.0008,-29.28,-31.3296,-8.967,,adl
9.869353,0.0078,-0.0007,-0.0082,0.0068,0.0012,0.0008,-29.2922,-31.415,-8.9426,,adl
9.91023,0.0078,-0.0007,-0.0082,0.0068,0.0012,0.0008,-29.2922,-31.415,-8.9426,,adl
9.912695,0.0078,-0.0007,-0.0082,0.0068,0.0012,0.0008,-29.2922,-31.415,-8.9426,,adl
9.914344,0.0078,-0.0007,-0.0082,0.0068,0.0012,0.0008,-29.2922,-31.415,-8.9426,,adl
9.91614,0.0078,-0.0007,-0.0082,0.0068,0.0012,0.0008,-29.2922,-31.415,-8.9426,,adl
9.922043,0.0078,-0.0007,-0.0082,0.0069,-0.0037,0.0021,-29.2922,-31.415,-8.9426,,adl
9.927121,0.0078,-0.0007,-0.0082,0.0069,-0.0037,0.0021,-29.28,-31.3784,-8.9182,,adl
9.930722,-0.0111,-0.0009,0.0085,0.0069,-0.0037,0.0021,-29.28,-31.3784,-8.9182,,adl
9.970099,-0.0111,-0.0009,0.0085,0.0069,-0.0037,0.0021,-29.28,-31.354,-8.9304,,adl
9.974431,-0.0111,-0.0009,0.0085,0.0069,-0.0037,0.0021,-29.28,-31.354,-8.9304,,adl
9.976738,-0.0111,-0.0009,0.0085,0.0069,-0.0037,0.0021,-29.28,-31.354,-8.9304,,adl
9.978958,-0.0111,-0.0009,0.0085,0.0069,-0.0037,0.0021,-29.28,-31.354,-8.9304,,adl
9.991286,-0.0111,-0.0009,0.0085,0.0077,-0.0011,0.0007,-29.28,-31.354,-8.9304,,adl
10.000307,-0.0013,-0.0031,-0.0108,0.0077,-0.0011,0.0007,-29.28,-31.354,-8.9304,,adl
10.020054,-0.0013,-0.0031,-0.0108,0.0077,-0.0011,0.0007,-29.3166,-31.3784,-8.906,,adl
10.043244,-0.0013,-0.0031,-0.0108,0.0077,-0.0011,0.0007,-29.3166,-31.3784,-8.906,,adl
10.046047,-0.0013,-0.0031,-0.0108,0.0077,-0.0011,0.0007,-29.3166,-31.3784,-8.906,,adl
10.048263,-0.0013,-0.0031,-0.0108,0.0077,-0.0011,0.0007,-29.3166,-31.3784,-8.906,,adl
10.060194,-0.0013,-0.0031,-0.0108,0.014,-0.0024,0.0001,-29.3166,-31.3784,-8.906,,adl
10.070722,-0.0042,0.0173,0.002,0.014,-0.0024,0.0001,-29.3166,-31.3784,-8.906,,adl
10.073172,-0.0042,0.0173,0.002,0.014,-0.0024,0.0001,-29.28,-31.354,-8.8694,,adl
10.110088,-0.0042,0.0173,0.002,0.014,-0.0024,0.0001,-29.28,-31.354,-8.8694,,adl
10.112918,-0.0042,0.0173,0.002,0.014,-0.0024,0.0001,-29.28,-31.354,-8.8694,,adl
10.115251,-0.0042,0.0173,0.002,0.014,-0.0024,0.0001,-29.28,-31.354,-8.8694,,adl
10.117349,-0.0042,0.0173,0.002,0.014,-0.0024,0.0001,-29.28,-31.354,-8.8694,,adl
10.122063,-0.0042,0.0173,0.002,0.014,-0.0024,0.0001,-29.2922,-31.3662,-8.8206,,adl
10.129705,-0.0042,0.0173,0.002,0.0056,-0.0055,0.0031,-29.2922,-31.3662,-8.8206,,adl
10.139691,-0.0044,-0.018,-0.0117,0.0056,-0.0055,0.0031,-29.2922,-31.3662,-8.8206,,adl
10.171322,-0.0044,-0.018,-0.0117,0.0056,-0.0055,0.0031,-29.2312,-31.4028,-8.723,,adl
10.174521,-0.0044,-0.018,-0.0117,0.0056,-0.0055,0.0031,-29.2312,-31.4028,-8.723,,adl
10.177052,-0.0044,-0.018,-0.0117,0.0056,-0.0055,0.0031,-29.2312,-31.4028,-8.723,,adl
10.179211,-0.0044,-0.018,-0.0117,0.0056,-0.0055,0.0031,-29.2312,-31.4028,-8.723,,adl
10.199836,-0.0044,-0.018,-0.0117,0.002,-0.0011,-0.0008,-29.2312,-31.4028,-8.723,,adl
10.216074,0.0042,0.0143,0.0108,0.002,-0.0011,-0.0008,-29.2312,-31.4028,-8.723,,adl
10.224934,0.0042,0.0143,0.0108,0.002,-0.0011,-0.0008,-29.2434,-31.415,-8.723,,adl
10.242301,0.0042,0.0143,0.0108,0.002,-0.0011,-0.0008,-29.2434,-31.415,-8.723,,adl
10.244032,0.0042,0.0143,0.0108,0.002,-0.0011,-0.0008,-29.2434,-31.415,-8.723,,adl
10.24495,0.0042,0.0143,0.0108,0.002,-0.0011,-0.0008,-29.2434,-31.415,-8.723,,adl
10.268392,0.0042,0.0143,0.0108,0.002,-0.0011,-0.0008,-29.1946,-31.4272,-8.6254,,adl
10.271176,0.0042,0.0143,0.0108,0.0563,0.019,-0.0052,-29.1946,-31.4272,-8.6254,,adl
10.281045,-0.0091,0.0193,0.0023,0.0563,0.019,-0.0052,-29.1946,-31.4272,-8.6254,,adl
10.308656,-0.0091,0.0193,0.0023,0.0563,0.019,-0.0052,-29.1946,-31.4272,-8.6254,,adl
10.311508,-0.0091,0.0193,0.0023,0.0563,0.019,-0.0052,-29.1946,-31.4272,-8.6254,,adl
10.313793,-0.0091,0.0193,0.0023,0.0563,0.019,-0.0052,-29.1946,-31.4272,-8.6254,,adl
10.316102,-0.0091,0.0193,0.0023,0.0563,0.019,-0.0052,-29.1946,-31.4272,-8.6254,,adl
10.321129,-0.0091,0.0193,0.0023,0.0563,0.019,-0.0052,-29.158,-31.476,-8.54,,adl
10.339749,-0.0091,0.0193,0.0023,0.0276,0.0172,-0.0023,-29.158,-31.476,-8.54,,adl
10.349171,-0.0034,-0.088,-0.0433,0.0276,0.0172,-0.0023,-29.158,-31.476,-8.54,,adl
10.371146,-0.0034,-0.088,-0.0433,0.0276,0.0172,-0.0023,-29.2068,-31.476,-8.4302,,adl
10.374981,-0.0034,-0.088,-0.0433,0.0276,0.0172,-0.0023,-29.2068,-31.476,-8.4302,,adl
10.377224,-0.0034,-0.088,-0.0433,0.0276,0.0172,-0.0023,-29.2068,-31.476,-8.4302,,adl
10.379776,-0.0034,-0.088,-0.0433,0.0276,0.0172,-0.0023,-29.2068,-31.476,-8.4302,,adl
10.409052,-0.0034,-0.088,-0.0433,0.0471,0.0008,0.0032,-29.2068,-31.476,-8.4302,,adl
10.419056,0.0067,0.0571,0.0182,0.0471,0.0008,0.0032,-29.2068,-31.476,-8.4302,,adl
10.421009,0.0067,0.0571,0.0182,0.0471,0.0008,0.0032,-29.1946,-31.5004,-8.3814,,adl
10.441661,0.0067,0.0571,0.0182,0.0471,0.0008,0.0032,-29.1946,-31.5004,-8.3814,,adl
10.4446,0.0067,0.0571,0.0182,0.0471,0.0008,0.0032,-29.1946,-31.5004,-8.3814,,adl
10.44628,0.0067,0.0571,0.0182,0.0471,0.0008,0.0032,-29.1946,-31.5004,-8.3814,,adl
10.470961,0.0067,0.0571,0.0182,0.0471,0.0008,0.0032,-29.1946,-31.5126,-8.3448,,adl
10.479033,0.0067,0.0571,0.0182,0.0141,0.022,0.0023,-29.1946,-31.5126,-8.3448,,adl
10.488881,0.0023,-0.0115,-0.0055,0.0141,0.022,0.0023,-29.1946,-31.5126,-8.3448,,adl
10.508524,0.0023,-0.0115,-0.0055,0.0141,0.022,0.0023,-29.1946,-31.5126,-8.3448,,adl
10.510665,0.0023,-0.0115,-0.0055,0.0141,0.022,0.0023,-29.1946,-31.5126,-8.3448,,adl
10.512367,0.0023,-0.0115,-0.0055,0.0141,0.022,0.0023,-29.1946,-31.5126,-8.3448,,adl
10.514018,0.0023,-0.0115,-0.0055,0.0141,0.022,0.0023,-29.1946,-31.5126,-8.3448,,adl
10.522236,0.0023,-0.0115,-0.0055,0.0141,0.022,0.0023,-29.1336,-31.5614,-8.3448,,adl
10.549228,0.0023,-0.0115,-0.0055,0.0119,0.0164,0.0031,-29.1336,-31.5614,-8.3448,,adl
10.558199,0.0275,0.0416,0.0356,0.0119,0.0164,0.0031,-29.1336,-31.5614,-8.3448,,adl
10.570455,0.0275,0.0416,0.0356,0.0119,0.0164,0.0031,-29.1458,-31.5248,-8.4058,,adl
10.575495,0.0275,0.0416,0.0356,0.0119,0.0164,0.0031,-29.1458,-31.5248,-8.4058,,adl
10.576107,0.0275,0.0416,0.0356,0.0119,0.0164,0.0031,-29.1458,-31.5248,-8.4058,,adl
10.576656,0.0275,0.0416,0.0356,0.0119,0.0164,0.0031,-29.1458,-31.5248,-8.4058,,adl
10.619215,0.0275,0.0416,0.0356,-0.0007,0.0051,0.0001,-29.1458,-31.5248,-8.4058,,adl
10.622698,0.0275,0.0416,0.0356,-0.0007,0.0051,0.0001,-29.1824,-31.5004,-8.4424,,adl
10.632834,-0.0227,-0.0323,-0.0198,-0.0007,0.0051,0.0001,-29.1824,-31.5004,-8.4424,,adl
10.64279,-0.0227,-0.0323,-0.0198,-0.0007,0.0051,0.0001,-29.1824,-31.5004,-8.4424,,adl
10.64531,-0.0227,-0.0323,-0.0198,-0.0007,0.0051,0.0001,-29.1824,-31.5004,-8.4424,,adl
10.64753,-0.0227,-0.0323,-0.0198,-0.0007,0.0051,0.0001,-29.1824,-31.5004,-8.4424,,adl
10.671082,-0.0227,-0.0323,-0.0198,-0.0007,0.0051,0.0001,-29.2434,-31.415,-8.54,,adl
10.687772,-0.0227,-0.0323,-0.0198,-0.0057,0.0029,-0.0001,-29.2434,-31.415,-8.54,,adl
10.697836,-0.0133,0.0003,-0.0054,-0.0057,0.0029,-0.0001,-29.2434,-31.415,-8.54,,adl
10.709528,-0.0133,0.0003,-0.0054,-0.0057,0.0029,-0.0001,-29.2434,-31.415,-8.54,,adl
10.71217,-0.0133,0.0003,-0.0054,-0.0057,0.0029,-0.0001,-29.2434,-31.415,-8.54,,adl
10.714281,-0.0133,0.0003,-0.0054,-0.0057,0.0029,-0.0001,-29.2434,-31.415,-8.54,,adl
10.716728,-0.0133,0.0003,-0.0054,-0.0057,0.0029,-0.0001,-29.2434,-31.415,-8.54,,adl
10.722327,-0.0133,0.0003,-0.0054,-0.0057,0.0029,-0.0001,-29.28,-31.4394,-8.6132,,adl
10.757868,-0.0133,0.0003,-0.0054,-0.0635,-0.0027,0.002,-29.28,-31.4394,-8.6132,,adl
10.775352,-0.0132,-0.0019,0.0268,-0.0635,-0.0027,0.002,-29.28,-31.4394,-8.6132,,adl
10.778085,-0.0132,-0.0019,0.0268,-0.0635,-0.0027,0.002,-29.2678,-31.4638,-8.723,,adl
10.780795,-0.0132,-0.0019,0.0268,-0.0635,-0.0027,0.002,-29.2678,-31.4638,-8.723,,adl
10.783151,-0.0132,-0.0019,0.0268,-0.0635,-0.0027,0.002,-29.2678,-31.4638,-8.723,,adl
10.784557,-0.0132,-0.0019,0.0268,-0.0635,-0.0027,0.002,-29.2678,-31.4638,-8.723,,adl
10.82007,-0.0132,-0.0019,0.0268,-0.0635,-0.0027,0.002,-29.2068,-31.4516,-8.7474,,adl
10.827668,-0.0132,-0.0019,0.0268,-0.0442,-0.0039,0.0016,-29.2068,-31.4516,-8.7474,,adl
10.837225,0.0052,0.0526,0.0382,-0.0442,-0.0039,0.0016,-29.2068,-31.4516,-8.7474,,adl
10.841033,0.0052,0.0526,0.0382,-0.0442,-0.0039,0.0016,-29.2068,-31.4516,-8.7474,,adl
10.843629,0.0052,0.0526,0.0382,-0.0442,-0.0039,0.0016,-29.2068,-31.4516,-8.7474,,adl
10.844832,0.0052,0.0526,0.0382,-0.0442,-0.0039,0.0016,-29.2068,-31.4516,-8.7474,,adl
10.871058,0.0052,0.0526,0.0382,-0.0442,-0.0039,0.0016,-29.2556,-31.4516,-8.7352,,adl
10.897924,0.0052,0.0526,0.0382,-0.0374,-0.0055,0.0007,-29.2556,-31.4516,-8.7352,,adl
10.908521,-0.0078,0.0063,-0.0245,-0.0374,-0.0055,0.0007,-29.2556,-31.4516,-8.7352,,adl
10.911768,-0.0078,0.0063,-0.0245,-0.0374,-0.0055,0.0007,-29.2556,-31.4516,-8.7352,,adl
10.914229,-0.0078,0.0063,-0.0245,-0.0374,-0.0055,0.0007,-29.2556,-31.4516,-8.7352,,adl
10.917147,-0.0078,0.0063,-0.0245,-0.0374,-0.0055,0.0007,-29.2556,-31.4516,-8.7352,,adl
10.92031,-0.0078,0.0063,-0.0245,-0.0374,-0.0055,0.0007,-29.2556,-31.4516,-8.7352,,adl
10.923289,-0.0078,0.0063,-0.0245,-0.0374,-0.0055,0.0007,-29.3288,-31.3662,-8.8206,,adl
10.967433,-0.0078,0.0063,-0.0245,-0.068,-0.0025,-0.0003,-29.3288,-31.3662,-8.8206,,adl
10.971059,-0.0078,0.0063,-0.0245,-0.068,-0.0025,-0.0003,-29.3776,-31.354,-8.8816,,adl
10.975136,-0.0078,0.0063,-0.0245,-0.068,-0.0025,-0.0003,-29.3776,-31.354,-8.8816,,adl
10.97814,-0.0078,0.0063,-0.0245,-0.068,-0.0025,-0.0003,-29.3776,-31.354,-8.8816,,adl
10.98122,-0.0078,0.0063,-0.0245,-0.068,-0.0025,-0.0003,-29.3776,-31.354,-8.8816,,adl
10.984207,-0.0181,0.003,0.005,-0.068,-0.0025,-0.0003,-29.3776,-31.354,-8.8816,,adl
11.021149,-0.0181,0.003,0.005,-0.068,-0.0025,-0.0003,-29.3654,-31.3418,-8.9426,,adl
11.036646,-0.0181,0.003,0.005,-0.0549,-0.0069,0.0032,-29.3654,-31.3418,-8.9426,,adl
11.041123,-0.0181,0.003,0.005,-0.0549,-0.0069,0.0032,-29.3654,-31.3418,-8.9426,,adl
11.043537,-0.0181,0.003,0.005,-0.0549,-0.0069,0.0032,-29.3654,-31.3418,-8.9426,,adl
11.046036,-0.0181,0.003,0.005,-0.0549,-0.0069,0.0032,-29.3654,-31.3418,-8.9426,,adl
11.047686,-0.0056,0.0421,0.0241,-0.0549,-0.0069,0.0032,-29.3654,-31.3418,-8.9426,,adl
11.070859,-0.0056,0.0421,0.0241,-0.0549,-0.0069,0.0032,-29.3654,-31.354,-8.9792,,adl
11.107134,-0.0056,0.0421,0.0241,-0.0332,0.0,-0.0012,-29.3654,-31.354,-8.9792,,adl
11.111081,-0.0056,0.0421,0.0241,-0.0332,0.0,-0.0012,-29.3654,-31.354,-8.9792,,adl
11.113222,-0.0056,0.0421,0.0241,-0.0332,0.0,-0.0012,-29.3654,-31.354,-8.9792,,adl
11.11493,-0.0056,0.0421,0.0241,-0.0332,0.0,-0.0012,-29.3654,-31.354,-8.9792,,adl
11.116417,-0.0056,0.0421,0.0241,-0.0332,0.0,-0.0012,-29.3654,-31.354,-8.9792,,adl
11.118049,0.0004,0.0161,-0.0003,-0.0332,0.0,-0.0012,-29.3654,-31.354,-8.9792,,adl
11.119685,0.0004,0.0161,-0.0003,-0.0332,0.0,-0.0012,-29.4142,-31.3418,-9.0646,,adl
11.172902,0.0004,0.0161,-0.0003,-0.0332,0.0,-0.0012,-29.3288,-31.3052,-9.1866,,adl
11.177361,0.0004,0.0161,-0.0003,-0.0346,0.01,-0.0015,-29.3288,-31.3052,-9.1866,,adl
11.183543,0.0004,0.0161,-0.0003,-0.0346,0.01,-0.0015,-29.3288,-31.3052,-9.1866,,adl
11.186322,0.0004,0.0161,-0.0003,-0.0346,0.01,-0.0015,-29.3288,-31.3052,-9.1866,,adl
11.188915,0.0004,0.0161,-0.0003,-0.0346,0.01,-0.0015,-29.3288,-31.3052,-9.1866,,adl
11.191229,0.0194,-0.0227,-0.0194,-0.0346,0.01,-0.0015,-29.3288,-31.3052,-9.1866,,adl
11.221793,0.0194,-0.0227,-0.0194,-0.0346,0.01,-0.0015,-29.3654,-31.3052,-9.2476,,adl
11.24322,0.0194,-0.0227,-0.0194,-0.0346,0.01,-0.0015,-29.3654,-31.3052,-9.2476,,adl
11.24716,0.0194,-0.0227,-0.0194,-0.0346,0.01,-0.0015,-29.3654,-31.3052,-9.2476,,adl
11.249673,0.0194,-0.0227,-0.0194,-0.0346,0.01,-0.0015,-29.3654,-31.3052,-9.2476,,adl
11.252061,0.0194,-0.0227,-0.0194,-0.0027,0.0001,-0.0019,-29.3654,-31.3052,-9.2476,,adl
11.256409,-0.0347,0.0137,-0.0138,-0.0027,0.0001,-0.0019,-29.3654,-31.3052,-9.2476,,adl
11.285966,-0.0347,0.0137,-0.0138,-0.0027,0.0001,-0.0019,-29.3654,-31.2686,-9.3574,,adl
11.309894,-0.0347,0.0137,-0.0138,-0.0027,0.0001,-0.0019,-29.3654,-31.2686,-9.3574,,adl
11.313164,-0.0347,0.0137,-0.0138,-0.0027,0.0001,-0.0019,-29.3654,-31.2686,-9.3574,,adl
11.315814,-0.0347,0.0137,-0.0138,-0.0027,0.0001,-0.0019,-29.3654,-31.2686,-9.3574,,adl
11.318271,-0.0347,0.0137,-0.0138,-0.0027,0.0001,-0.0019,-29.3654,-31.2686,-9.3574,,adl
11.320835,-0.0347,0.0137,-0.0138,0.017,-0.0049,-0.0023,-29.3654,-31.2686,-9.3574,,adl
11.328143,0.0021,0.0354,-0.0057,0.017,-0.0049,-0.0023,-29.3654,-31.2686,-9.3574,,adl
11.344017,0.0021,0.0354,-0.0057,0.017,-0.0049,-0.0023,-29.3288,-31.3052,-9.3086,,adl
11.375878,0.0021,0.0354,-0.0057,0.017,-0.0049,-0.0023,-29.3288,-31.3052,-9.3086,,adl
11.379228,0.0021,0.0354,-0.0057,0.017,-0.0049,-0.0023,-29.3288,-31.3052,-9.3086,,adl
11.381741,0.0021,0.0354,-0.0057,0.017,-0.0049,-0.0023,-29.3288,-31.3052,-9.3086,,adl
11.38678,0.0021,0.0354,-0.0057,0.0314,-0.006,-0.0064,-29.3288,-31.3052,-9.3086,,adl
11.395537,0.0048,-0.0465,-0.0315,0.0314,-0.006,-0.0064,-29.3288,-31.3052,-9.3086,,adl
11.40534,0.0048,-0.0465,-0.0315,0.0314,-0.006,-0.0064,-29.2922,-31.3052,-9.3208,,adl
11.443431,0.0048,-0.0465,-0.0315,0.0314,-0.006,-0.0064,-29.2922,-31.3052,-9.3208,,adl
11.446842,0.0048,-0.0465,-0.0315,0.0314,-0.006,-0.0064,-29.2922,-31.3052,-9.3208,,adl
11.449371,0.0048,-0.0465,-0.0315,0.0314,-0.006,-0.0064,-29.2922,-31.3052,-9.3208,,adl
11.455259,0.0048,-0.0465,-0.0315,-0.0057,-0.0357,-0.0192,-29.2922,-31.3052,-9.3208,,adl
11.46828,0.0048,-0.0465,-0.0315,-0.0057,-0.0357,-0.0192,-29.2556,-31.3296,-9.3086,,adl
11.469506,-0.0169,0.0066,0.0142,-0.0057,-0.0357,-0.0192,-29.2556,-31.3296,-9.3086,,adl
11.510212,-0.0169,0.0066,0.0142,-0.0057,-0.0357,-0.0192,-29.2556,-31.3296,-9.3086,,adl
11.513212,-0.0169,0.0066,0.0142,-0.0057,-0.0357,-0.0192,-29.2556,-31.3296,-9.3086,,adl
11.515852,-0.0169,0.0066,0.0142,-0.0057,-0.0357,-0.0192,-29.2556,-31.3296,-9.3086,,adl
11.518685,-0.0169,0.0066,0.0142,-0.0057,-0.0357,-0.0192,-29.2556,-31.3296,-9.3086,,adl
11.525474,-0.0169,0.0066,0.0142,-0.0057,-0.0357,-0.0192,-29.1702,-31.3906,-9.1988,,adl
11.528337,-0.0169,0.0066,0.0142,0.0097,-0.0202,-0.0083,-29.1702,-31.3906,-9.1988,,adl
11.533943,-0.0183,0.0035,0.056,0.0097,-0.0202,-0.0083,-29.1702,-31.3906,-9.1988,,adl
11.57653,-0.0183,0.0035,0.056,0.0097,-0.0202,-0.0083,-29.1702,-31.3906,-9.1988,,adl
11.580064,-0.0183,0.0035,0.056,0.0097,-0.0202,-0.0083,-29.1702,-31.3906,-9.1988,,adl
11.582654,-0.0183,0.0035,0.056,0.0097,-0.0202,-0.0083,-29.1702,-31.3906,-9.1988,,adl
11.585304,-0.0183,0.0035,0.056,0.0097,-0.0202,-0.0083,-29.1214,-31.4028,-9.089,,adl
11.594333,-0.0183,0.0035,0.056,0.0158,-0.0202,-0.0016,-29.1214,-31.4028,-9.089,,adl
11.605538,-0.0051,0.0113,-0.0314,0.0158,-0.0202,-0.0016,-29.1214,-31.4028,-9.089,,adl
11.642938,-0.0051,0.0113,-0.0314,0.0158,-0.0202,-0.0016,-29.158,-31.4394,-8.9548,,adl
11.646262,-0.0051,0.0113,-0.0314,0.0158,-0.0202,-0.0016,-29.158,-31.4394,-8.9548,,adl
11.64905,-0.0051,0.0113,-0.0314,0.0158,-0.0202,-0.0016,-29.158,-31.4394,-8.9548,,adl
11.651656,-0.0051,0.0113,-0.0314,0.0158,-0.0202,-0.0016,-29.158,-31.4394,-8.9548,,adl
11.665014,-0.0051,0.0113,-0.0314,0.0128,-0.008,0.0032,-29.158,-31.4394,-8.9548,,adl
11.677609,-0.0076,-0.0723,-0.0283,0.0128,-0.008,0.0032,-29.158,-31.4394,-8.9548,,adl
11.70351,-0.0076,-0.0723,-0.0283,0.0128,-0.008,0.0032,-29.1336,-31.4516,-8.906,,adl
11.707596,-0.0076,-0.0723,-0.0283,0.0128,-0.008,0.0032,-29.1336,-31.4516,-8.906,,adl
11.709849,-0.0076,-0.0723,-0.0283,0.0128,-0.008,0.0032,-29.1336,-31.4516,-8.906,,adl
11.712113,-0.0076,-0.0723,-0.0283,0.0128,-0.008,0.0032,-29.1336,-31.4516,-8.906,,adl
11.714162,-0.0076,-0.0723,-0.0283,0.0128,-0.008,0.0032,-29.1336,-31.4516,-8.906,,adl
11.73316,-0.0076,-0.0723,-0.0283,0.0236,0.0015,-0.0013,-29.1336,-31.4516,-8.906,,adl
11.74444,0.0138,0.0328,-0.0162,0.0236,0.0015,-0.0013,-29.1336,-31.4516,-8.906,,adl
11.766124,0.0138,0.0328,-0.0162,0.0236,0.0015,-0.0013,-29.0726,-31.4882,-8.8328,,adl
11.781038,0.0138,0.0328,-0.0162,0.0236,0.0015,-0.0013,-29.0726,-31.4882,-8.8328,,adl
11.782459,0.0138,0.0328,-0.0162,0.0236,0.0015,-0.0013,-29.0726,-31.4882,-8.8328,,adl
11.783353,0.0138,0.0328,-0.0162,0.0236,0.0015,-0.0013,-29.0726,-31.4882,-8.8328,,adl
11.804655,0.0138,0.0328,-0.0162,0.0212,0.0008,-0.0025,-29.0726,-31.4882,-8.8328,,adl
11.814206,-0.0007,-0.0063,-0.0187,0.0212,0.0008,-0.0025,-29.0726,-31.4882,-8.8328,,adl
11.820892,-0.0007,-0.0063,-0.0187,0.0212,0.0008,-0.0025,-29.0848,-31.5126,-8.784,,adl
11.843576,-0.0007,-0.0063,-0.0187,0.0212,0.0008,-0.0025,-29.0848,-31.5126,-8.784,,adl
11.847042,-0.0007,-0.0063,-0.0187,0.0212,0.0008,-0.0025,-29.0848,-31.5126,-8.784,,adl
11.84919,-0.0007,-0.0063,-0.0187,0.0212,0.0008,-0.0025,-29.0848,-31.5126,-8.784,,adl
11.851532,-0.0007,-0.0063,-0.0187,0.0212,0.0008,-0.0025,-29.0848,-31.5126,-8.784,,adl
11.871129,-0.0007,-0.0063,-0.0187,0.0212,0.0008,-0.0025,-29.0726,-31.5248,-8.7596,,adl
11.873783,-0.0007,-0.0063,-0.0187,0.0091,0.0052,0.0033,-29.0726,-31.5248,-8.7596,,adl
11.889334,-0.0139,-0.0407,-0.0119,0.0091,0.0052,0.0033,-29.0726,-31.5248,-8.7596,,adl
11.908981,-0.0139,-0.0407,-0.0119,0.0091,0.0052,0.0033,-29.0726,-31.5248,-8.7596,,adl
11.911223,-0.0139,-0.0407,-0.0119,0.0091,0.0052,0.0033,-29.0726,-31.5248,-8.7596,,adl
11.912992,-0.0139,-0.0407,-0.0119,0.0091,0.0052,0.0033,-29.0726,-31.5248,-8.7596,,adl
11.921508,-0.0139,-0.0407,-0.0119,0.0091,0.0052,0.0033,-29.1092,-31.537,-8.7474,,adl
11.94374,-0.0139,-0.0407,-0.0119,0.0344,0.0176,-0.0016,-29.1092,-31.537,-8.7474,,adl
11.956245,-0.0076,0.0309,0.0193,0.0344,0.0176,-0.0016,-29.1092,-31.537,-8.7474,,adl
11.971191,-0.0076,0.0309,0.0193,0.0344,0.0176,-0.0016,-29.097,-31.4394,-8.8816,,adl
11.974439,-0.0076,0.0309,0.0193,0.0344,0.0176,-0.0016,-29.097,-31.4394,-8.8816,,adl
11.977659,-0.0076,0.0309,0.0193,0.0344,0.0176,-0.0016,-29.097,-31.4394,-8.8816,,adl
11.980329,-0.0076,0.0309,0.0193,0.0344,0.0176,-0.0016,-29.097,-31.4394,-8.8816,,adl
12.012507,-0.0076,0.0309,0.0193,0.0485,0.0254,-0.002,-29.097,-31.4394,-8.8816,,adl
12.021208,-0.0076,0.0309,0.0193,0.0485,0.0254,-0.002,-29.1092,-31.3784,-8.8816,,adl
12.023841,0.0414,-0.0484,0.0003,0.0485,0.0254,-0.002,-29.1092,-31.3784,-8.8816,,adl
12.043145,0.0414,-0.0484,0.0003,0.0485,0.0254,-0.002,-29.1092,-31.3784,-8.8816,,adl
12.046469,0.0414,-0.0484,0.0003,0.0485,0.0254,-0.002,-29.1092,-31.3784,-8.8816,,adl
12.048974,0.0414,-0.0484,0.0003,0.0485,0.0254,-0.002,-29.1092,-31.3784,-8.8816,,adl
12.051486,0.0414,-0.0484,0.0003,0.0485,0.0254,-0.002,-29.1092,-31.3784,-8.8816,,adl
12.069495,0.0414,-0.0484,0.0003,0.0485,0.0254,-0.002,-29.0848,-31.4394,-8.8694,,adl
12.083974,0.0414,-0.0484,0.0003,0.0202,0.0103,0.0023,-29.0848,-31.4394,-8.8694,,adl
12.093137,0.0008,0.0088,-0.0014,0.0202,0.0103,0.0023,-29.0848,-31.4394,-8.8694,,adl
12.109444,0.0008,0.0088,-0.0014,0.0202,0.0103,0.0023,-29.0848,-31.4394,-8.8694,,adl
12.11233,0.0008,0.0088,-0.0014,0.0202,0.0103,0.0023,-29.0848,-31.4394,-8.8694,,adl
12.114309,0.0008,0.0088,-0.0014,0.0202,0.0103,0.0023,-29.0848,-31.4394,-8.8694,,adl
12.121037,0.0008,0.0088,-0.0014,0.0202,0.0103,0.0023,-29.1214,-31.4028,-8.8206,,adl
12.153004,0.0008,0.0088,-0.0014,0.0202,0.0019,0.0041,-29.1214,-31.4028,-8.8206,,adl
12.164302,-0.0107,0.0259,0.0068,0.0202,0.0019,0.0041,-29.1214,-31.4028,-8.8206,,adl
12.171343,-0.0107,0.0259,0.0068,0.0202,0.0019,0.0041,-29.158,-31.4028,-8.8816,,adl
12.175615,-0.0107,0.0259,0.0068,0.0202,0.0019,0.0041,-29.158,-31.4028,-8.8816,,adl
12.177832,-0.0107,0.0259,0.0068,0.0202,0.0019,0.0041,-29.158,-31.4028,-8.8816,,adl
12.180213,-0.0107,0.0259,0.0068,0.0202,0.0019,0.0041,-29.158,-31.4028,-8.8816,,adl
12.222369,-0.0107,0.0259,0.0068,0.0202,0.0019,0.0041,-29.1702,-31.4272,-8.8694,,adl
12.224841,-0.0107,0.0259,0.0068,0.035,0.0017,0.0017,-29.1702,-31.4272,-8.8694,,adl
12.232582,-0.0074,-0.033,0.0036,0.035,0.0017,0.0017,-29.1702,-31.4272,-8.8694,,adl
12.24449,-0.0074,-0.033,0.0036,0.035,0.0017,0.0017,-29.1702,-31.4272,-8.8694,,adl
12.245426,-0.0074,-0.033,0.0036,0.035,0.0017,0.0017,-29.1702,-31.4272,-8.8694,,adl
12.245967,-0.0074,-0.033,0.0036,0.035,0.0017,0.0017,-29.1702,-31.4272,-8.8694,,adl
12.246455,-0.0074,-0.033,0.0036,0.035,0.0017,0.0017,-29.1702,-31.4272,-8.8694,,adl
12.271489,-0.0074,-0.033,0.0036,0.035,0.0017,0.0017,-29.219,-31.4028,-8.8084,,adl
12.292602,-0.0074,-0.033,0.0036,0.0244,0.0097,-0.0003,-29.219,-31.4028,-8.8084,,adl
12.302784,0.0127,-0.0081,-0.0228,0.0244,0.0097,-0.0003,-29.219,-31.4028,-8.8084,,adl
12.31045,0.0127,-0.0081,-0.0228,0.0244,0.0097,-0.0003,-29.219,-31.4028,-8.8084,,adl
12.312973,0.0127,-0.0081,-0.0228,0.0244,0.0097,-0.0003,-29.219,-31.4028,-8.8084,,adl
12.315415,0.0127,-0.0081,-0.0228,0.0244,0.0097,-0.0003,-29.219,-31.4028,-8.8084,,adl
12.32021,0.0127,-0.0081,-0.0228,0.0244,0.0097,-0.0003,-29.219,-31.354,-8.7962,,adl
12.362811,0.0127,-0.0081,-0.0228,0.0177,0.0001,0.0017,-29.219,-31.354,-8.7962,,adl
12.371149,0.0127,-0.0081,-0.0228,0.0177,0.0001,0.0017,-29.3166,-31.4272,-8.6864,,adl
12.372088,-0.0108,0.0149,0.0091,0.0177,0.0001,0.0017,-29.3166,-31.4272,-8.6864,,adl
12.378077,-0.0108,0.0149,0.0091,0.0177,0.0001,0.0017,-29.3166,-31.4272,-8.6864,,adl
12.37951,-0.0108,0.0149,0.0091,0.0177,0.0001,0.0017,-29.3166,-31.4272,-8.6864,,adl
12.380836,-0.0108,0.0149,0.0091,0.0177,0.0001,0.0017,-29.3166,-31.4272,-8.6864,,adl
12.421781,-0.0108,0.0149,0.0091,0.0177,0.0001,0.0017,-29.3044,-31.5004,-8.601,,adl
12.432483,-0.0108,0.0149,0.0091,0.0035,-0.0091,0.0031,-29.3044,-31.5004,-8.601,,adl
12.446199,0.0063,0.0056,0.0367,0.0035,-0.0091,0.0031,-29.3044,-31.5004,-8.601,,adl
12.448609,0.0063,0.0056,0.0367,0.0035,-0.0091,0.0031,-29.3044,-31.5004,-8.601,,adl
12.450519,0.0063,0.0056,0.0367,0.0035,-0.0091,0.0031,-29.3044,-31.5004,-8.601,,adl
12.45228,0.0063,0.0056,0.0367,0.0035,-0.0091,0.0031,-29.3044,-31.5004,-8.601,,adl
12.45383,0.0063,0.0056,0.0367,0.0035,-0.0091,0.0031,-29.3044,-31.5004,-8.601,,adl
12.471621,0.0063,0.0056,0.0367,0.0035,-0.0091,0.0031,-29.3166,-31.4882,-8.5766,,adl
12.50157,0.0063,0.0056,0.0367,0.0031,-0.0101,0.0049,-29.3166,-31.4882,-8.5766,,adl
12.508137,0.0063,0.0056,0.0367,0.0031,-0.0101,0.0049,-29.3166,-31.4882,-8.5766,,adl
12.510323,0.0063,0.0056,0.0367,0.0031,-0.0101,0.0049,-29.3166,-31.4882,-8.5766,,adl
12.512607,0.0063,0.0056,0.0367,0.0031,-0.0101,0.0049,-29.3166,-31.4882,-8.5766,,adl
12.51474,-0.0007,-0.0035,-0.0265,0.0031,-0.0101,0.0049,-29.3166,-31.4882,-8.5766,,adl
12.521762,-0.0007,-0.0035,-0.0265,0.0031,-0.0101,0.0049,-29.2556,-31.5126,-8.54,,adl
12.572488,-0.0007,-0.0035,-0.0265,0.0031,-0.0101,0.0049,-29.28,-31.5004,-8.5156,,adl
12.576538,-0.0007,-0.0035,-0.0265,0.0059,-0.0047,0.0019,-29.28,-31.5004,-8.5156,,adl
12.57889,-0.0007,-0.0035,-0.0265,0.0059,-0.0047,0.0019,-29.28,-31.5004,-8.5156,,adl
12.581031,-0.0007,-0.0035,-0.0265,0.0059,-0.0047,0.0019,-29.28,-31.5004,-8.5156,,adl
12.583081,-0.0007,-0.0035,-0.0265,0.0059,-0.0047,0.0019,-29.28,-31.5004,-8.5156,,adl
12.584272,-0.0193,0.0074,0.0195,0.0059,-0.0047,0.0019,-29.28,-31.5004,-8.5156,,adl
12.621717,-0.0193,0.0074,0.0195,0.0059,-0.0047,0.0019,-29.2556,-31.4882,-8.5278,,adl
12.640296,-0.0193,0.0074,0.0195,-0.0129,-0.0048,0.002,-29.2556,-31.4882,-8.5278,,adl
12.642014,-0.0193,0.0074,0.0195,-0.0129,-0.0048,0.002,-29.2556,-31.4882,-8.5278,,adl
12.643475,-0.0193,0.0074,0.0195,-0.0129,-0.0048,0.002,-29.2556,-31.4882,-8.5278,,adl
12.644974,-0.0193,0.0074,0.0195,-0.0129,-0.0048,0.002,-29.2556,-31.4882,-8.5278,,adl
12.646473,-0.0193,0.0074,0.0195,-0.0129,-0.0048,0.002,-29.2556,-31.4882,-8.5278,,adl
12.652571,-0.0035,-0.0024,-0.0095,-0.0129,-0.0048,0.002,-29.2556,-31.4882,-8.5278,,adl
12.670178,-0.0035,-0.0024,-0.0095,-0.0129,-0.0048,0.002,-29.2556,-31.4882,-8.6376,,adl
12.710159,-0.0035,-0.0024,-0.0095,-0.0449,-0.0023,0.0033,-29.2556,-31.4882,-8.6376,,adl
12.713475,-0.0035,-0.0024,-0.0095,-0.0449,-0.0023,0.0033,-29.2556,-31.4882,-8.6376,,adl
12.716248,-0.0035,-0.0024,-0.0095,-0.0449,-0.0023,0.0033,-29.2556,-31.4882,-8.6376,,adl
12.719411,-0.0035,-0.0024,-0.0095,-0.0449,-0.0023,0.0033,-29.2556,-31.4882,-8.6376,,adl
12.722948,-0.0062,0.0104,0.0152,-0.0449,-0.0023,0.0033,-29.2556,-31.4882,-8.6376,,adl
12.725443,-0.0062,0.0104,0.0152,-0.0449,-0.0023,0.0033,-29.219,-31.5492,-8.5888,,adl
12.768874,-0.0062,0.0104,0.0152,-0.0449,-0.0023,0.0033,-29.1458,-31.5614,-8.5644,,adl
12.773147,-0.0062,0.0104,0.0152,-0.0449,-0.0023,0.0033,-29.1458,-31.5614,-8.5644,,adl
12.773449,-0.0062,0.0104,0.0152,-0.0449,-0.0023,0.0033,-29.1458,-31.5614,-8.5644,,adl
12.773698,-0.0062,0.0104,0.0152,-0.0449,-0.0023,0.0033,-29.1458,-31.5614,-8.5644,,adl
12.778116,-0.0062,0.0104,0.0152,-0.0696,0.0115,-0.0029,-29.1458,-31.5614,-8.5644,,adl
12.790307,-0.0043,0.0401,0.0285,-0.0696,0.0115,-0.0029,-29.1458,-31.5614,-8.5644,,adl
12.820804,-0.0043,0.0401,0.0285,-0.0696,0.0115,-0.0029,-29.158,-31.5492,-8.5766,,adl
12.842671,-0.0043,0.0401,0.0285,-0.0696,0.0115,-0.0029,-29.158,-31.5492,-8.5766,,adl
12.843878,-0.0043,0.0401,0.0285,-0.0696,0.0115,-0.0029,-29.158,-31.5492,-8.5766,,adl
12.844691,-0.0043,0.0401,0.0285,-0.0696,0.0115,-0.0029,-29.158,-31.5492,-8.5766,,adl
12.845472,-0.0043,0.0401,0.0285,-0.0696,0.0115,-0.0029,-29.158,-31.5492,-8.5766,,adl
12.849903,-0.0043,0.0401,0.0285,-0.0603,0.0206,-0.002,-29.158,-31.5492,-8.5766,,adl
12.859787,0.0229,0.0283,0.0359,-0.0603,0.0206,-0.002,-29.158,-31.5492,-8.5766,,adl
12.870216,0.0229,0.0283,0.0359,-0.0603,0.0206,-0.002,-29.1702,-31.537,-8.6254,,adl
12.90859,0.0229,0.0283,0.0359,-0.0603,0.0206,-0.002,-29.1702,-31.537,-8.6254,,adl
12.909992,0.0229,0.0283,0.0359,-0.0603,0.0206,-0.002,-29.1702,-31.537,-8.6254,,adl
12.910824,0.0229,0.0283,0.0359,-0.0603,0.0206,-0.002,-29.1702,-31.537,-8.6254,,adl
12.92016,0.0229,0.0283,0.0359,-0.0603,0.0206,-0.002,-29.2068,-31.5736,-8.6986,,adl
12.921203,0.0229,0.0283,0.0359,-0.0506,0.0036,0.0056,-29.2068,-31.5736,-8.6986,,adl
12.929304,-0.0204,0.0074,-0.0297,-0.0506,0.0036,0.0056,-29.2068,-31.5736,-8.6986,,adl
12.972401,-0.0204,0.0074,-0.0297,-0.0506,0.0036,0.0056,-29.1824,-31.5736,-8.7108,,adl
12.973734,-0.0204,0.0074,-0.0297,-0.0506,0.0036,0.0056,-29.1824,-31.5736,-8.7108,,adl
12.974422,-0.0204,0.0074,-0.0297,-0.0506,0.0036,0.0056,-29.1824,-31.5736,-8.7108,,adl
12.975307,-0.0204,0.0074,-0.0297,-0.0506,0.0036,0.0056,-29.1824,-31.5736,-8.7108,,adl
12.988343,-0.0204,0.0074,-0.0297,-0.0502,-0.0073,0.0059,-29.1824,-31.5736,-8.7108,,adl
12.998171,0.0001,0.0465,0.0188,-0.0502,-0.0073,0.0059,-29.1824,-31.5736,-8.7108,,adl
13.022301,0.0001,0.0465,0.0188,-0.0502,-0.0073,0.0059,-29.1458,-31.5614,-8.6376,,adl
13.042315,0.0001,0.0465,0.0188,-0.0502,-0.0073,0.0059,-29.1458,-31.5614,-8.6376,,adl
13.043705,0.0001,0.0465,0.0188,-0.0502,-0.0073,0.0059,-29.1458,-31.5614,-8.6376,,adl
13.044483,0.0001,0.0465,0.0188,-0.0502,-0.0073,0.0059,-29.1458,-31.5614,-8.6376,,adl
13.04523,0.0001,0.0465,0.0188,-0.0502,-0.0073,0.0059,-29.1458,-31.5614,-8.6376,,adl
13.063569,0.0001,0.0465,0.0188,-0.0353,-0.0037,0.0009,-29.1458,-31.5614,-8.6376,,adl
13.064949,0.0001,0.0465,0.0188,-0.0353,-0.0037,0.0009,-29.0238,-31.598,-8.5644,,adl
13.067406,-0.0004,-0.0105,-0.0099,-0.0353,-0.0037,0.0009,-29.0238,-31.598,-8.5644,,adl
13.109382,-0.0004,-0.0105,-0.0099,-0.0353,-0.0037,0.0009,-29.0238,-31.598,-8.5644,,adl
13.110523,-0.0004,-0.0105,-0.0099,-0.0353,-0.0037,0.0009,-29.0238,-31.598,-8.5644,,adl
13.111562,-0.0004,-0.0105,-0.0099,-0.0353,-0.0037,0.0009,-29.0238,-31.598,-8.5644,,adl
13.129294,-0.0004,-0.0105,-0.0099,-0.0353,-0.0037,0.0009,-29.0116,-31.5614,-8.5888,,adl
13.130676,-0.0004,-0.0105,-0.0099,-0.0479,0.0063,-0.0019,-29.0116,-31.5614,-8.5888,,adl
13.138721,-0.0043,0.0015,-0.0249,-0.0479,0.0063,-0.0019,-29.0116,-31.5614,-8.5888,,adl
13.177822,-0.0043,0.0015,-0.0249,-0.0479,0.0063,-0.0019,-29.0116,-31.5614,-8.5888,,adl
13.179412,-0.0043,0.0015,-0.0249,-0.0479,0.0063,-0.0019,-29.0116,-31.5614,-8.5888,,adl
13.180191,-0.0043,0.0015,-0.0249,-0.0479,0.0063,-0.0019,-29.0116,-31.5614,-8.5888,,adl
13.190637,-0.0043,0.0015,-0.0249,-0.0479,0.0063,-0.0019,-29.0604,-31.5126,-8.7474,,adl
13.198523,-0.0043,0.0015,-0.0249,-0.0441,-0.0055,0.0017,-29.0604,-31.5126,-8.7474,,adl
13.208843,0.0012,0.0348,0.0131,-0.0441,-0.0055,0.0017,-29.0604,-31.5126,-8.7474,,adl
13.244028,0.0012,0.0348,0.0131,-0.0441,-0.0055,0.0017,-29.0604,-31.5126,-8.7474,,adl
13.245643,0.0012,0.0348,0.0131,-0.0441,-0.0055,0.0017,-29.0604,-31.5126,-8.7474,,adl
13.24659,0.0012,0.0348,0.0131,-0.0441,-0.0055,0.0017,-29.0604,-31.5126,-8.7474,,adl
13.247477,0.0012,0.0348,0.0131,-0.0441,-0.0055,0.0017,-29.0604,-31.5126,-8.7474,,adl
13.248419,0.0012,0.0348,0.0131,-0.0441,-0.0055,0.0017,-29.0726,-31.4394,-8.906,,adl
13.269115,0.0012,0.0348,0.0131,-0.0332,-0.0092,0.0009,-29.0726,-31.4394,-8.906,,adl
13.280103,-0.0145,-0.0027,0.0119,-0.0332,-0.0092,0.0009,-29.0726,-31.4394,-8.906,,adl
13.309391,-0.0145,-0.0027,0.0119,-0.0332,-0.0092,0.0009,-29.097,-31.3906,-8.9792,,adl
13.312871,-0.0145,-0.0027,0.0119,-0.0332,-0.0092,0.0009,-29.097,-31.3906,-8.9792,,adl
13.315335,-0.0145,-0.0027,0.0119,-0.0332,-0.0092,0.0009,-29.097,-31.3906,-8.9792,,adl
13.317389,-0.0145,-0.0027,0.0119,-0.0332,-0.0092,0.0009,-29.097,-31.3906,-8.9792,,adl
13.339191,-0.0145,-0.0027,0.0119,-0.0316,-0.0064,-0.0003,-29.097,-31.3906,-8.9792,,adl
13.351543,0.0106,-0.0086,-0.0183,-0.0316,-0.0064,-0.0003,-29.097,-31.3906,-8.9792,,adl
13.368249,0.0106,-0.0086,-0.0183,-0.0316,-0.0064,-0.0003,-29.0726,-31.3418,-9.0036,,adl
13.373848,0.0106,-0.0086,-0.0183,-0.0316,-0.0064,-0.0003,-29.0726,-31.3418,-9.0036,,adl
13.375782,0.0106,-0.0086,-0.0183,-0.0316,-0.0064,-0.0003,-29.0726,-31.3418,-9.0036,,adl
13.377738,0.0106,-0.0086,-0.0183,-0.0316,-0.0064,-0.0003,-29.0726,-31.3418,-9.0036,,adl
13.408932,0.0106,-0.0086,-0.0183,-0.0232,-0.0117,0.0007,-29.0726,-31.3418,-9.0036,,adl
13.41864,-0.0032,0.0038,0.0011,-0.0232,-0.0117,0.0007,-29.0726,-31.3418,-9.0036,,adl
13.428307,-0.0032,0.0038,0.0011,-0.0232,-0.0117,0.0007,-29.0726,-31.3296,-9.0402,,adl
13.441072,-0.0032,0.0038,0.0011,-0.0232,-0.0117,0.0007,-29.0726,-31.3296,-9.0402,,adl
13.442407,-0.0032,0.0038,0.0011,-0.0232,-0.0117,0.0007,-29.0726,-31.3296,-9.0402,,adl
13.443477,-0.0032,0.0038,0.0011,-0.0232,-0.0117,0.0007,-29.0726,-31.3296,-9.0402,,adl
13.444404,-0.0032,0.0038,0.0011,-0.0232,-0.0117,0.0007,-29.0726,-31.3296,-9.0402,,adl
13.478513,-0.0032,0.0038,0.0011,-0.0228,-0.0048,0.0005,-29.0726,-31.3296,-9.0402,,adl
13.488727,-0.021,-0.0092,-0.011,-0.0228,-0.0048,0.0005,-29.0726,-31.3296,-9.0402,,adl
13.49167,-0.021,-0.0092,-0.011,-0.0228,-0.0048,0.0005,-29.1214,-31.293,-9.211,,adl
13.509889,-0.021,-0.0092,-0.011,-0.0228,-0.0048,0.0005,-29.1214,-31.293,-9.211,,adl
13.513846,-0.021,-0.0092,-0.011,-0.0228,-0.0048,0.0005,-29.1214,-31.293,-9.211,,adl
13.516588,-0.021,-0.0092,-0.011,-0.0228,-0.0048,0.0005,-29.1214,-31.293,-9.211,,adl
13.548851,-0.021,-0.0092,-0.011,-0.0228,-0.0048,0.0005,-29.2434,-31.232,-9.3208,,adl
13.552151,-0.021,-0.0092,-0.011,-0.0188,-0.0092,0.0039,-29.2434,-31.232,-9.3208,,adl
13.559612,-0.0166,0.0082,0.0027,-0.0188,-0.0092,0.0039,-29.2434,-31.232,-9.3208,,adl
13.576386,-0.0166,0.0082,0.0027,-0.0188,-0.0092,0.0039,-29.2434,-31.232,-9.3208,,adl
13.577777,-0.0166,0.0082,0.0027,-0.0188,-0.0092,0.0039,-29.2434,-31.232,-9.3208,,adl
13.578721,-0.0166,0.0082,0.0027,-0.0188,-0.0092,0.0039,-29.2434,-31.232,-9.3208,,adl
13.579599,-0.0166,0.0082,0.0027,-0.0188,-0.0092,0.0039,-29.2434,-31.232,-9.3208,,adl
13.608173,-0.0166,0.0082,0.0027,-0.0188,-0.0092,0.0039,-29.2678,-31.1954,-9.4794,,adl
13.617736,-0.0166,0.0082,0.0027,0.0261,0.0063,-0.0019,-29.2678,-31.1954,-9.4794,,adl
13.630832,0.0122,0.0224,-0.0182,0.0261,0.0063,-0.0019,-29.2678,-31.1954,-9.4794,,adl
13.641833,0.0122,0.0224,-0.0182,0.0261,0.0063,-0.0019,-29.2678,-31.1954,-9.4794,,adl
13.645485,0.0122,0.0224,-0.0182,0.0261,0.0063,-0.0019,-29.2678,-31.1954,-9.4794,,adl
13.647932,0.0122,0.0224,-0.0182,0.0261,0.0063,-0.0019,-29.2678,-31.1954,-9.4794,,adl
13.667213,0.0122,0.0224,-0.0182,0.0261,0.0063,-0.0019,-29.28,-31.1832,-9.4916,,adl
13.68805,0.0122,0.0224,-0.0182,0.0621,0.0027,-0.0008,-29.28,-31.1832,-9.4916,,adl
13.697609,0.01,-0.0703,-0.0319,0.0621,0.0027,-0.0008,-29.28,-31.1832,-9.4916,,adl
13.709405,0.01,-0.0703,-0.0319,0.0621,0.0027,-0.0008,-29.28,-31.1832,-9.4916,,adl
13.711973,0.01,-0.0703,-0.0319,0.0621,0.0027,-0.0008,-29.28,-31.1832,-9.4916,,adl
13.714114,0.01,-0.0703,-0.0319,0.0621,0.0027,-0.0008,-29.28,-31.1832,-9.4916,,adl
13.727397,0.01,-0.0703,-0.0319,0.0621,0.0027,-0.0008,-29.28,-31.1954,-9.4672,,adl
13.75734,0.01,-0.0703,-0.0319,0.0867,-0.0004,0.0,-29.28,-31.1954,-9.4672,,adl
13.767764,-0.0016,-0.0014,-0.0524,0.0867,-0.0004,0.0,-29.28,-31.1954,-9.4672,,adl
13.777863,-0.0016,-0.0014,-0.0524,0.0867,-0.0004,0.0,-29.28,-31.1954,-9.4672,,adl
13.7806,-0.0016,-0.0014,-0.0524,0.0867,-0.0004,0.0,-29.28,-31.1954,-9.4672,,adl
13.783019,-0.0016,-0.0014,-0.0524,0.0867,-0.0004,0.0,-29.28,-31.1954,-9.4672,,adl
13.787507,-0.0016,-0.0014,-0.0524,0.0867,-0.0004,0.0,-29.28,-31.2076,-9.4306,,adl
13.827324,-0.0016,-0.0014,-0.0524,0.1096,-0.006,0.0011,-29.28,-31.2076,-9.4306,,adl
13.839407,-0.0171,-0.0236,-0.0222,0.1096,-0.006,0.0011,-29.28,-31.2076,-9.4306,,adl
13.843486,-0.0171,-0.0236,-0.0222,0.1096,-0.006,0.0011,-29.28,-31.2076,-9.4306,,adl
13.845935,-0.0171,-0.0236,-0.0222,0.1096,-0.006,0.0011,-29.28,-31.2076,-9.4306,,adl
13.84875,-0.0171,-0.0236,-0.0222,0.1096,-0.006,0.0011,-29.28,-31.2076,-9.4306,,adl
13.851133,-0.0171,-0.0236,-0.0222,0.1096,-0.006,0.0011,-29.28,-31.2076,-9.4306,,adl
13.853564,-0.0171,-0.0236,-0.0222,0.1096,-0.006,0.0011,-29.28,-31.171,-9.455,,adl
13.898962,-0.0171,-0.0236,-0.0222,0.0859,-0.0069,0.0005,-29.28,-31.171,-9.455,,adl
13.907735,-0.0171,-0.0236,-0.0222,0.0859,-0.0069,0.0005,-29.28,-31.171,-9.394,,adl
13.9115,0.0022,-0.0721,-0.0266,0.0859,-0.0069,0.0005,-29.28,-31.171,-9.394,,adl
13.913958,0.0022,-0.0721,-0.0266,0.0859,-0.0069,0.0005,-29.28,-31.171,-9.394,,adl
13.915655,0.0022,-0.0721,-0.0266,0.0859,-0.0069,0.0005,-29.28,-31.171,-9.394,,adl
13.916794,0.0022,-0.0721,-0.0266,0.0859,-0.0069,0.0005,-29.28,-31.171,-9.394,,adl
13.967663,0.0022,-0.0721,-0.0266,0.0859,-0.0069,0.0005,-29.28,-31.1832,-9.3452,,adl
13.970939,0.0022,-0.0721,-0.0266,0.0635,0.002,-0.0011,-29.28,-31.1832,-9.3452,,adl
13.97997,-0.0199,-0.021,0.0082,0.0635,0.002,-0.0011,-29.28,-31.1832,-9.3452,,adl
13.982616,-0.0199,-0.021,0.0082,0.0635,0.002,-0.0011,-29.28,-31.1832,-9.3452,,adl
13.984654,-0.0199,-0.021,0.0082,0.0635,0.002,-0.0011,-29.28,-31.1832,-9.3452,,adl
13.98685,-0.0199,-0.021,0.0082,0.0635,0.002,-0.0011,-29.28,-31.1832,-9.3452,,adl
13.988123,-0.0199,-0.021,0.0082,0.0635,0.002,-0.0011,-29.28,-31.1832,-9.3452,,adl
14.026283,-0.0199,-0.021,0.0082,0.0635,0.002,-0.0011,-29.2556,-31.232,-9.1866,,adl
14.036282,-0.0199,-0.021,0.0082,0.0469,0.0025,-0.0009,-29.2556,-31.232,-9.1866,,adl
14.042967,-0.0199,-0.021,0.0082,0.0469,0.0025,-0.0009,-29.2556,-31.232,-9.1866,,adl
14.045392,-0.0199,-0.021,0.0082,0.0469,0.0025,-0.0009,-29.2556,-31.232,-9.1866,,adl
14.0474,-0.0199,-0.021,0.0082,0.0469,0.0025,-0.0009,-29.2556,-31.232,-9.1866,,adl
14.049197,0.0162,0.0134,0.0408,0.0469,0.0025,-0.0009,-29.2556,-31.232,-9.1866,,adl
14.087045,0.0162,0.0134,0.0408,0.0469,0.0025,-0.0009,-29.2556,-31.2808,-9.0158,,adl
14.106417,0.0162,0.0134,0.0408,0.0297,-0.0055,0.0019,-29.2556,-31.2808,-9.0158,,adl
14.109377,0.0162,0.0134,0.0408,0.0297,-0.0055,0.0019,-29.2556,-31.2808,-9.0158,,adl
14.112086,0.0162,0.0134,0.0408,0.0297,-0.0055,0.0019,-29.2556,-31.2808,-9.0158,,adl
14.114526,0.0162,0.0134,0.0408,0.0297,-0.0055,0.0019,-29.2556,-31.2808,-9.0158,,adl
14.116843,-0.0021,-0.0153,0.0351,0.0297,-0.0055,0.0019,-29.2556,-31.2808,-9.0158,,adl
14.146438,-0.0021,-0.0153,0.0351,0.0297,-0.0055,0.0019,-29.2556,-31.3174,-8.906,,adl
14.17543,-0.0021,-0.0153,0.0351,0.0166,-0.0017,0.0055,-29.2556,-31.3174,-8.906,,adl
14.177222,-0.0021,-0.0153,0.0351,0.0166,-0.0017,0.0055,-29.2556,-31.3174,-8.906,,adl
14.178329,-0.0021,-0.0153,0.0351,0.0166,-0.0017,0.0055,-29.2556,-31.3174,-8.906,,adl
14.180131,-0.0021,-0.0153,0.0351,0.0166,-0.0017,0.0055,-29.2556,-31.3174,-8.906,,adl
14.181871,-0.0021,-0.0153,0.0351,0.0166,-0.0017,0.0055,-29.2556,-31.3174,-8.906,,adl
14.185719,-0.0068,0.0033,0.0081,0.0166,-0.0017,0.0055,-29.2556,-31.3174,-8.906,,adl
14.20578,-0.0068,0.0033,0.0081,0.0166,-0.0017,0.0055,-29.2312,-31.3784,-8.8206,,adl
14.242505,-0.0068,0.0033,0.0081,0.0166,-0.0017,0.0055,-29.2312,-31.3784,-8.8206,,adl
14.245608,-0.0068,0.0033,0.0081,0.0166,-0.0017,0.0055,-29.2312,-31.3784,-8.8206,,adl
14.247939,-0.0068,0.0033,0.0081,0.0166,-0.0017,0.0055,-29.2312,-31.3784,-8.8206,,adl
14.250016,-0.0068,0.0033,0.0081,0.0056,-0.0071,0.0017,-29.2312,-31.3784,-8.8206,,adl
14.255645,0.0001,0.0126,0.0157,0.0056,-0.0071,0.0017,-29.2312,-31.3784,-8.8206,,adl
14.264651,0.0001,0.0126,0.0157,0.0056,-0.0071,0.0017,-29.2434,-31.4028,-8.6986,,adl
14.309428,0.0001,0.0126,0.0157,0.0056,-0.0071,0.0017,-29.2434,-31.4028,-8.6986,,adl
14.312533,0.0001,0.0126,0.0157,0.0056,-0.0071,0.0017,-29.2434,-31.4028,-8.6986,,adl
14.315299,0.0001,0.0126,0.0157,0.0056,-0.0071,0.0017,-29.2434,-31.4028,-8.6986,,adl
14.317481,0.0001,0.0126,0.0157,-0.0068,-0.0121,0.0045,-29.2434,-31.4028,-8.6986,,adl
14.326221,0.0001,0.0126,0.0157,-0.0068,-0.0121,0.0045,-29.2678,-31.4638,-8.601,,adl
14.327899,-0.0068,0.0098,0.0138,-0.0068,-0.0121,0.0045,-29.2678,-31.4638,-8.601,,adl
14.376817,-0.0068,0.0098,0.0138,-0.0068,-0.0121,0.0045,-29.2678,-31.4638,-8.601,,adl
14.380454,-0.0068,0.0098,0.0138,-0.0068,-0.0121,0.0045,-29.2678,-31.4638,-8.601,,adl
14.383129,-0.0068,0.0098,0.0138,-0.0068,-0.0121,0.0045,-29.2678,-31.4638,-8.601,,adl
14.385605,-0.0068,0.0098,0.0138,-0.0068,-0.0121,0.0045,-29.2678,-31.4638,-8.601,,adl
14.388141,-0.0068,0.0098,0.0138,-0.0059,-0.0032,-0.0011,-29.2678,-31.4638,-8.601,,adl
14.391332,-0.0068,0.0098,0.0138,-0.0059,-0.0032,-0.0011,-29.2922,-31.4516,-8.54,,adl
14.398714,-0.0052,0.0139,0.0109,-0.0059,-0.0032,-0.0011,-29.2922,-31.4516,-8.54,,adl
14.44224,-0.0052,0.0139,0.0109,-0.0059,-0.0032,-0.0011,-29.2922,-31.4516,-8.54,,adl
14.446435,-0.0052,0.0139,0.0109,-0.0059,-0.0032,-0.0011,-29.2922,-31.4516,-8.54,,adl
14.449438,-0.0052,0.0139,0.0109,-0.0059,-0.0032,-0.0011,-29.2922,-31.4516,-8.54,,adl
14.452409,-0.0052,0.0139,0.0109,-0.0059,-0.0032,-0.0011,-29.2556,-31.5248,-8.3936,,adl
14.455344,-0.0052,0.0139,0.0109,0.019,0.0156,-0.0032,-29.2556,-31.5248,-8.3936,,adl
14.463292,0.0023,0.0179,0.0079,0.019,0.0156,-0.0032,-29.2556,-31.5248,-8.3936,,adl
14.503888,0.0023,0.0179,0.0079,0.019,0.0156,-0.0032,-29.1946,-31.598,-8.235,,adl
14.508074,0.0023,0.0179,0.0079,0.019,0.0156,-0.0032,-29.1946,-31.598,-8.235,,adl
14.509561,0.0023,0.0179,0.0079,0.019,0.0156,-0.0032,-29.1946,-31.598,-8.235,,adl
14.510891,0.0023,0.0179,0.0079,0.019,0.0156,-0.0032,-29.1946,-31.598,-8.235,,adl
14.52327,0.0023,0.0179,0.0079,0.0075,0.0108,-0.0005,-29.1946,-31.598,-8.235,,adl
14.534325,-0.0086,-0.0478,-0.02,0.0075,0.0108,-0.0005,-29.1946,-31.598,-8.235,,adl
14.564596,-0.0086,-0.0478,-0.02,0.0075,0.0108,-0.0005,-29.1702,-31.6102,-8.174,,adl
14.576279,-0.0086,-0.0478,-0.02,0.0075,0.0108,-0.0005,-29.1702,-31.6102,-8.174,,adl
14.578987,-0.0086,-0.0478,-0.02,0.0075,0.0108,-0.0005,-29.1702,-31.6102,-8.174,,adl
14.581238,-0.0086,-0.0478,-0.02,0.0075,0.0108,-0.0005,-29.1702,-31.6102,-8.174,,adl
14.583577,-0.0086,-0.0478,-0.02,0.0075,0.0108,-0.0005,-29.1702,-31.6102,-8.174,,adl
14.594513,-0.0086,-0.0478,-0.02,-0.0119,-0.0068,0.0024,-29.1702,-31.6102,-8.174,,adl
14.603925,0.0115,0.062,0.0285,-0.0119,-0.0068,0.0024,-29.1702,-31.6102,-8.174,,adl
14.622975,0.0115,0.062,0.0285,-0.0119,-0.0068,0.0024,-29.158,-31.598,-8.174,,adl
14.643147,0.0115,0.062,0.0285,-0.0119,-0.0068,0.0024,-29.158,-31.598,-8.174,,adl
14.646789,0.0115,0.062,0.0285,-0.0119,-0.0068,0.0024,-29.158,-31.598,-8.174,,adl
14.649409,0.0115,0.062,0.0285,-0.0119,-0.0068,0.0024,-29.158,-31.598,-8.174,,adl
14.664273,0.0115,0.062,0.0285,-0.0378,-0.0095,0.0023,-29.158,-31.598,-8.174,,adl
14.67566,0.003,-0.0024,0.0112,-0.0378,-0.0095,0.0023,-29.158,-31.598,-8.174,,adl
14.684516,0.003,-0.0024,0.0112,-0.0378,-0.0095,0.0023,-29.1702,-31.598,-8.1496,,adl
14.710133,0.003,-0.0024,0.0112,-0.0378,-0.0095,0.0023,-29.1702,-31.598,-8.1496,,adl
14.713351,0.003,-0.0024,0.0112,-0.0378,-0.0095,0.0023,-29.1702,-31.598,-8.1496,,adl
14.715882,0.003,-0.0024,0.0112,-0.0378,-0.0095,0.0023,-29.1702,-31.598,-8.1496,,adl
14.734024,0.003,-0.0024,0.0112,-0.0489,0.0068,-0.0011,-29.1702,-31.598,-8.1496,,adl
14.747552,0.003,-0.0024,0.0112,-0.0489,0.0068,-0.0011,-29.1824,-31.5858,-8.1618,,adl
14.750792,-0.0074,0.0188,0.006,-0.0489,0.0068,-0.0011,-29.1824,-31.5858,-8.1618,,adl
14.775869,-0.0074,0.0188,0.006,-0.0489,0.0068,-0.0011,-29.1824,-31.5858,-8.1618,,adl
14.777306,-0.0074,0.0188,0.006,-0.0489,0.0068,-0.0011,-29.1824,-31.5858,-8.1618,,adl
14.77821,-0.0074,0.0188,0.006,-0.0489,0.0068,-0.0011,-29.1824,-31.5858,-8.1618,,adl
14.779331,-0.0074,0.0188,0.006,-0.0489,0.0068,-0.0011,-29.1824,-31.5858,-8.1618,,adl
14.804506,-0.0074,0.0188,0.006,-0.0611,0.0021,-0.0011,-29.1824,-31.5858,-8.1618,,adl
14.807881,-0.0074,0.0188,0.006,-0.0611,0.0021,-0.0011,-29.1458,-31.5736,-8.2106,,adl
14.813528,-0.0123,0.0341,0.0127,-0.0611,0.0021,-0.0011,-29.1458,-31.5736,-8.2106,,adl
14.843364,-0.0123,0.0341,0.0127,-0.0611,0.0021,-0.0011,-29.1458,-31.5736,-8.2106,,adl
14.846204,-0.0123,0.0341,0.0127,-0.0611,0.0021,-0.0011,-29.1458,-31.5736,-8.2106,,adl
14.848548,-0.0123,0.0341,0.0127,-0.0611,0.0021,-0.0011,-29.1458,-31.5736,-8.2106,,adl
14.866404,-0.0123,0.0341,0.0127,-0.0611,0.0021,-0.0011,-29.1214,-31.5736,-8.2594,,adl
14.873871,-0.0123,0.0341,0.0127,-0.0577,-0.0036,0.0008,-29.1214,-31.5736,-8.2594,,adl
14.88311,0.0047,0.0253,0.0083,-0.0577,-0.0036,0.0008,-29.1214,-31.5736,-8.2594,,adl
14.9079,0.0047,0.0253,0.0083,-0.0577,-0.0036,0.0008,-29.1214,-31.5736,-8.2594,,adl
14.910983,0.0047,0.0253,0.0083,-0.0577,-0.0036,0.0008,-29.1214,-31.5736,-8.2594,,adl
