time,ax,ay,az,wx,wy,wz,Bx,By,Bz,Unnamed: 10,label
0.042753,0.0,0.0,0.0,0.0,0.0,0.0,0.0,0.0,0.0,,adl
0.051664,0.0,0.0,0.0,0.0,0.0,0.0,-12.7002,6.0756,-42.151,,adl
0.078911,0.0,0.0,0.0,-0.0491,0.0434,0.0083,-12.7002,6.0756,-42.151,,adl
0.101743,0.0,0.0,0.0,-0.0491,0.0434,0.0083,-12.7002,6.0756,-42.151,,adl
0.102689,0.0,0.0,0.0,-0.0491,0.0434,0.0083,-12.7002,6.0756,-42.151,,adl
0.103322,0.0,0.0,0.0,-0.0491,0.0434,0.0083,-12.7002,6.0756,-42.151,,adl
0.118947,0.0,0.0,0.0,-0.0491,0.0434,0.0083,-12.8222,6.283,-42.3706,,adl
0.148855,0.0,0.0,0.0,-0.0835,0.0421,-0.0218,-12.8222,6.283,-42.3706,,adl
0.158585,0.0,0.0,0.0,-0.0835,0.0421,-0.0218,-12.8222,6.283,-42.3706,,adl
0.169178,0.0,0.0,0.0,-0.0835,0.0421,-0.0218,-12.8222,6.283,-42.3706,,adl
0.170102,0.0,0.0,0.0,-0.0835,0.0421,-0.0218,-12.8222,6.283,-42.3706,,adl
0.170912,0.0,0.0,0.0,-0.0835,0.0421,-0.0218,-12.8222,6.283,-42.3706,,adl
0.171692,0.0,0.0,0.0,-0.0835,0.0421,-0.0218,-12.8222,6.283,-42.3706,,adl
0.178362,0.0,0.0,0.0,-0.0835,0.0421,-0.0218,-12.8222,6.466,-42.5414,,adl
0.220248,0.0,0.0,0.0,-0.0711,-0.019,-0.0202,-12.8222,6.466,-42.5414,,adl
0.228199,-0.1099,0.0005,0.0248,-0.0711,-0.019,-0.0202,-12.8222,6.466,-42.5414,,adl
0.23389,-0.1099,0.0005,0.0248,-0.0711,-0.019,-0.0202,-12.8222,6.466,-42.5414,,adl
0.23497,-0.1099,0.0005,0.0248,-0.0711,-0.019,-0.0202,-12.8222,6.466,-42.5414,,adl
0.235905,-0.1099,0.0005,0.0248,-0.0711,-0.019,-0.0202,-12.8222,6.466,-42.5414,,adl
0.236832,-0.1099,0.0005,0.0248,-0.0711,-0.019,-0.0202,-12.871,6.6246,-42.639,,adl
0.289189,-0.1099,0.0005,0.0248,-0.0498,-0.0826,0.0138,-12.871,6.6246,-42.639,,adl
0.298893,-0.1099,0.0005,0.0248,-0.0498,-0.0826,0.0138,-12.871,6.7222,-42.6878,,adl
0.300057,-0.0804,-0.0125,0.0331,-0.0498,-0.0826,0.0138,-12.871,6.7222,-42.6878,,adl
0.30114,-0.0804,-0.0125,0.0331,-0.0498,-0.0826,0.0138,-12.871,6.7222,-42.6878,,adl
0.302052,-0.0804,-0.0125,0.0331,-0.0498,-0.0826,0.0138,-12.871,6.7222,-42.6878,,adl
0.302848,-0.0804,-0.0125,0.0331,-0.0498,-0.0826,0.0138,-12.871,6.7222,-42.6878,,adl
0.358696,-0.0804,-0.0125,0.0331,-0.0398,-0.0975,0.032,-12.871,6.7222,-42.6878,,adl
0.360256,-0.0804,-0.0125,0.0331,-0.0398,-0.0975,0.032,-12.9808,6.8076,-42.6878,,adl
0.368348,-0.0578,-0.0254,-0.0075,-0.0398,-0.0975,0.032,-12.9808,6.8076,-42.6878,,adl
0.369758,-0.0578,-0.0254,-0.0075,-0.0398,-0.0975,0.032,-12.9808,6.8076,-42.6878,,adl
0.370567,-0.0578,-0.0254,-0.0075,-0.0398,-0.0975,0.032,-12.9808,6.8076,-42.6878,,adl
0.371331,-0.0578,-0.0254,-0.0075,-0.0398,-0.0975,0.032,-12.9808,6.8076,-42.6878,,adl
0.372084,-0.0578,-0.0254,-0.0075,-0.0398,-0.0975,0.032,-12.9808,6.8076,-42.6878,,adl
0.418594,-0.0578,-0.0254,-0.0075,-0.0398,-0.0975,0.032,-13.1394,6.8686,-42.6634,,adl
0.427906,-0.0578,-0.0254,-0.0075,0.0206,-0.2009,0.0289,-13.1394,6.8686,-42.6634,,adl
0.435151,-0.0578,-0.0254,-0.0075,0.0206,-0.2009,0.0289,-13.1394,6.8686,-42.6634,,adl
0.435939,-0.0578,-0.0254,-0.0075,0.0206,-0.2009,0.0289,-13.1394,6.8686,-42.6634,,adl
0.436591,-0.0578,-0.0254,-0.0075,0.0206,-0.2009,0.0289,-13.1394,6.8686,-42.6634,,adl
0.437394,0.0808,-0.0376,-0.008,0.0206,-0.2009,0.0289,-13.1394,6.8686,-42.6634,,adl
0.478316,0.0808,-0.0376,-0.008,0.0206,-0.2009,0.0289,-13.2736,6.9296,-42.6268,,adl
0.499449,0.0808,-0.0376,-0.008,-0.0197,-0.0758,-0.0025,-13.2736,6.9296,-42.6268,,adl
0.500892,0.0808,-0.0376,-0.008,-0.0197,-0.0758,-0.0025,-13.2736,6.9296,-42.6268,,adl
0.501991,0.0808,-0.0376,-0.008,-0.0197,-0.0758,-0.0025,-13.2736,6.9296,-42.6268,,adl
0.502878,0.0808,-0.0376,-0.008,-0.0197,-0.0758,-0.0025,-13.2736,6.9296,-42.6268,,adl
0.507568,0.0622,-0.0576,-0.114,-0.0197,-0.0758,-0.0025,-13.2736,6.9296,-42.6268,,adl
0.537733,0.0622,-0.0576,-0.114,-0.0197,-0.0758,-0.0025,-13.4688,7.1126,-42.6268,,adl
0.568091,0.0622,-0.0576,-0.114,-0.0308,0.0879,-0.0001,-13.4688,7.1126,-42.6268,,adl
0.569665,0.0622,-0.0576,-0.114,-0.0308,0.0879,-0.0001,-13.4688,7.1126,-42.6268,,adl
0.570459,0.0622,-0.0576,-0.114,-0.0308,0.0879,-0.0001,-13.4688,7.1126,-42.6268,,adl
0.571247,0.0622,-0.0576,-0.114,-0.0308,0.0879,-0.0001,-13.4688,7.1126,-42.6268,,adl
0.572227,0.0622,-0.0576,-0.114,-0.0308,0.0879,-0.0001,-13.4688,7.1126,-42.6268,,adl
0.579318,0.2596,0.073,0.032,-0.0308,0.0879,-0.0001,-13.4688,7.1126,-42.6268,,adl
0.597695,0.2596,0.073,0.032,-0.0308,0.0879,-0.0001,-13.603,7.259,-42.6146,,adl
0.636415,0.2596,0.073,0.032,-0.0154,0.0804,0.0116,-13.603,7.259,-42.6146,,adl
0.638007,0.2596,0.073,0.032,-0.0154,0.0804,0.0116,-13.603,7.259,-42.6146,,adl
0.638657,0.2596,0.073,0.032,-0.0154,0.0804,0.0116,-13.603,7.259,-42.6146,,adl
0.639289,0.2596,0.073,0.032,-0.0154,0.0804,0.0116,-13.603,7.259,-42.6146,,adl
0.647637,-0.0128,-0.003,0.0486,-0.0154,0.0804,0.0116,-13.603,7.259,-42.6146,,adl
0.65662,-0.0128,-0.003,0.0486,-0.0154,0.0804,0.0116,-13.7616,7.3444,-42.5414,,adl
0.702552,-0.0128,-0.003,0.0486,-0.0154,0.0804,0.0116,-13.7616,7.3444,-42.5414,,adl
0.703612,-0.0128,-0.003,0.0486,-0.0154,0.0804,0.0116,-13.7616,7.3444,-42.5414,,adl
0.704229,-0.0128,-0.003,0.0486,-0.0154,0.0804,0.0116,-13.7616,7.3444,-42.5414,,adl
0.705688,-0.0128,-0.003,0.0486,0.0119,-0.0234,0.0108,-13.7616,7.3444,-42.5414,,adl
0.71711,-0.0128,-0.003,0.0486,0.0119,-0.0234,0.0108,-13.8592,7.381,-42.4438,,adl
0.718071,-0.1618,-0.068,-0.0084,0.0119,-0.0234,0.0108,-13.8592,7.381,-42.4438,,adl
0.770359,-0.1618,-0.068,-0.0084,0.0119,-0.0234,0.0108,-13.8592,7.381,-42.4438,,adl
0.771465,-0.1618,-0.068,-0.0084,0.0119,-0.0234,0.0108,-13.8592,7.381,-42.4438,,adl
0.772107,-0.1618,-0.068,-0.0084,0.0119,-0.0234,0.0108,-13.8592,7.381,-42.4438,,adl
0.772729,-0.1618,-0.068,-0.0084,0.0119,-0.0234,0.0108,-13.8592,7.381,-42.4438,,adl
0.777155,-0.1618,-0.068,-0.0084,0.0119,-0.0234,0.0108,-13.9934,7.442,-42.3584,,adl
0.778105,-0.1618,-0.068,-0.0084,0.0107,-0.0149,0.0071,-13.9934,7.442,-42.3584,,adl
0.786807,-0.0423,-0.005,-0.023,0.0107,-0.0149,0.0071,-13.9934,7.442,-42.3584,,adl
0.835872,-0.0423,-0.005,-0.023,0.0107,-0.0149,0.0071,-14.0422,7.4786,-42.3096,,adl
0.837436,-0.0423,-0.005,-0.023,0.0107,-0.0149,0.0071,-14.0422,7.4786,-42.3096,,adl
0.838117,-0.0423,-0.005,-0.023,0.0107,-0.0149,0.0071,-14.0422,7.4786,-42.3096,,adl
0.838768,-0.0423,-0.005,-0.023,0.0107,-0.0149,0.0071,-14.0422,7.4786,-42.3096,,adl
0.846511,-0.0423,-0.005,-0.023,0.0024,0.0274,0.0001,-14.0422,7.4786,-42.3096,,adl
0.85583,0.1178,0.0032,-0.0706,0.0024,0.0274,0.0001,-14.0422,7.4786,-42.3096,,adl
0.896677,0.1178,0.0032,-0.0706,0.0024,0.0274,0.0001,-13.969,7.4908,-42.212,,adl
0.900654,0.1178,0.0032,-0.0706,0.0024,0.0274,0.0001,-13.969,7.4908,-42.212,,adl
0.901242,0.1178,0.0032,-0.0706,0.0024,0.0274,0.0001,-13.969,7.4908,-42.212,,adl
0.901658,0.1178,0.0032,-0.0706,0.0024,0.0274,0.0001,-13.969,7.4908,-42.212,,adl
0.916278,0.1178,0.0032,-0.0706,-0.0044,0.0374,0.0011,-13.969,7.4908,-42.212,,adl
0.927932,0.0235,-0.0099,-0.0427,-0.0044,0.0374,0.0011,-13.969,7.4908,-42.212,,adl
0.957941,0.0235,-0.0099,-0.0427,-0.0044,0.0374,0.0011,-13.8836,7.4786,-42.1388,,adl
0.969385,0.0235,-0.0099,-0.0427,-0.0044,0.0374,0.0011,-13.8836,7.4786,-42.1388,,adl
0.970266,0.0235,-0.0099,-0.0427,-0.0044,0.0374,0.0011,-13.8836,7.4786,-42.1388,,adl
0.970931,0.0235,-0.0099,-0.0427,-0.0044,0.0374,0.0011,-13.8836,7.4786,-42.1388,,adl
0.971516,0.0235,-0.0099,-0.0427,-0.0044,0.0374,0.0011,-13.8836,7.4786,-42.1388,,adl
0.986117,0.0235,-0.0099,-0.0427,-0.002,0.0144,-0.0036,-13.8836,7.4786,-42.1388,,adl
0.996123,-0.0345,0.0048,-0.043,-0.002,0.0144,-0.0036,-13.8836,7.4786,-42.1388,,adl
1.016036,-0.0345,0.0048,-0.043,-0.002,0.0144,-0.0036,-13.8104,7.442,-42.09,,adl
1.036793,-0.0345,0.0048,-0.043,-0.002,0.0144,-0.0036,-13.8104,7.442,-42.09,,adl
1.038115,-0.0345,0.0048,-0.043,-0.002,0.0144,-0.0036,-13.8104,7.442,-42.09,,adl
1.038856,-0.0345,0.0048,-0.043,-0.002,0.0144,-0.0036,-13.8104,7.442,-42.09,,adl
1.058011,-0.0345,0.0048,-0.043,0.0081,0.0087,-0.0192,-13.8104,7.442,-42.09,,adl
1.066099,-0.0428,-0.0329,-0.0102,0.0081,0.0087,-0.0192,-13.8104,7.442,-42.09,,adl
1.077149,-0.0428,-0.0329,-0.0102,0.0081,0.0087,-0.0192,-13.786,7.4176,-42.1144,,adl
1.103938,-0.0428,-0.0329,-0.0102,0.0081,0.0087,-0.0192,-13.786,7.4176,-42.1144,,adl
1.105131,-0.0428,-0.0329,-0.0102,0.0081,0.0087,-0.0192,-13.786,7.4176,-42.1144,,adl
1.106038,-0.0428,-0.0329,-0.0102,0.0081,0.0087,-0.0192,-13.786,7.4176,-42.1144,,adl
1.126154,-0.0428,-0.0329,-0.0102,0.0021,0.0192,0.0138,-13.786,7.4176,-42.1144,,adl
1.13681,-0.0428,-0.0329,-0.0102,0.0021,0.0192,0.0138,-13.7372,7.3932,-42.1388,,adl
1.137757,-0.0514,-0.0011,-0.0909,0.0021,0.0192,0.0138,-13.7372,7.3932,-42.1388,,adl
1.17028,-0.0514,-0.0011,-0.0909,0.0021,0.0192,0.0138,-13.7372,7.3932,-42.1388,,adl
1.171004,-0.0514,-0.0011,-0.0909,0.0021,0.0192,0.0138,-13.7372,7.3932,-42.1388,,adl
1.171413,-0.0514,-0.0011,-0.0909,0.0021,0.0192,0.0138,-13.7372,7.3932,-42.1388,,adl
1.171862,-0.0514,-0.0011,-0.0909,0.0021,0.0192,0.0138,-13.7372,7.3932,-42.1388,,adl
1.195418,-0.0514,-0.0011,-0.0909,0.0021,0.0192,0.0138,-13.7006,7.4176,-42.1754,,adl
1.19635,-0.0514,-0.0011,-0.0909,0.0041,0.0055,0.0415,-13.7006,7.4176,-42.1754,,adl
1.205595,-0.0393,-0.0084,-0.0396,0.0041,0.0055,0.0415,-13.7006,7.4176,-42.1754,,adl
1.237642,-0.0393,-0.0084,-0.0396,0.0041,0.0055,0.0415,-13.7006,7.4176,-42.1754,,adl
1.238295,-0.0393,-0.0084,-0.0396,0.0041,0.0055,0.0415,-13.7006,7.4176,-42.1754,,adl
1.238693,-0.0393,-0.0084,-0.0396,0.0041,0.0055,0.0415,-13.7006,7.4176,-42.1754,,adl
1.255219,-0.0393,-0.0084,-0.0396,0.0041,0.0055,0.0415,-13.664,7.3932,-42.1754,,adl
1.264888,-0.0393,-0.0084,-0.0396,0.0023,-0.0298,0.0198,-13.664,7.3932,-42.1754,,adl
1.274983,-0.0867,-0.0308,0.0161,0.0023,-0.0298,0.0198,-13.664,7.3932,-42.1754,,adl
1.304706,-0.0867,-0.0308,0.0161,0.0023,-0.0298,0.0198,-13.664,7.3932,-42.1754,,adl
1.306008,-0.0867,-0.0308,0.0161,0.0023,-0.0298,0.0198,-13.664,7.3932,-42.1754,,adl
1.306642,-0.0867,-0.0308,0.0161,0.0023,-0.0298,0.0198,-13.664,7.3932,-42.1754,,adl
1.31372,-0.0867,-0.0308,0.0161,0.0023,-0.0298,0.0198,-13.664,7.381,-42.1632,,adl
1.336218,-0.0867,-0.0308,0.0161,-0.0005,-0.0148,0.0181,-13.664,7.381,-42.1632,,adl
1.344917,-0.0261,-0.0195,0.0034,-0.0005,-0.0148,0.0181,-13.664,7.381,-42.1632,,adl
1.369167,-0.0261,-0.0195,0.0034,-0.0005,-0.0148,0.0181,-13.664,7.381,-42.1632,,adl
1.370271,-0.0261,-0.0195,0.0034,-0.0005,-0.0148,0.0181,-13.664,7.381,-42.1632,,adl
1.371022,-0.0261,-0.0195,0.0034,-0.0005,-0.0148,0.0181,-13.664,7.381,-42.1632,,adl
1.371754,-0.0261,-0.0195,0.0034,-0.0005,-0.0148,0.0181,-13.664,7.381,-42.1632,,adl
1.374393,-0.0261,-0.0195,0.0034,-0.0005,-0.0148,0.0181,-13.7128,7.381,-42.2364,,adl
1.405167,-0.0261,-0.0195,0.0034,0.0097,-0.0197,0.021,-13.7128,7.381,-42.2364,,adl
1.416233,-0.0009,0.0557,-0.0229,0.0097,-0.0197,0.021,-13.7128,7.381,-42.2364,,adl
1.43587,-0.0009,0.0557,-0.0229,0.0097,-0.0197,0.021,-13.7494,7.3688,-42.2852,,adl
1.437187,-0.0009,0.0557,-0.0229,0.0097,-0.0197,0.021,-13.7494,7.3688,-42.2852,,adl
1.437899,-0.0009,0.0557,-0.0229,0.0097,-0.0197,0.021,-13.7494,7.3688,-42.2852,,adl
1.438525,-0.0009,0.0557,-0.0229,0.0097,-0.0197,0.021,-13.7494,7.3688,-42.2852,,adl
1.474375,-0.0009,0.0557,-0.0229,0.0161,-0.0228,0.02,-13.7494,7.3688,-42.2852,,adl
1.484524,-0.0128,0.0096,-0.0018,0.0161,-0.0228,0.02,-13.7494,7.3688,-42.2852,,adl
1.495394,-0.0128,0.0096,-0.0018,0.0161,-0.0228,0.02,-13.7738,7.3688,-42.3706,,adl
1.500857,-0.0128,0.0096,-0.0018,0.0161,-0.0228,0.02,-13.7738,7.3688,-42.3706,,adl
1.501706,-0.0128,0.0096,-0.0018,0.0161,-0.0228,0.02,-13.7738,7.3688,-42.3706,,adl
1.502322,-0.0128,0.0096,-0.0018,0.0161,-0.0228,0.02,-13.7738,7.3688,-42.3706,,adl
1.544303,-0.0128,0.0096,-0.0018,0.0222,0.0079,0.0134,-13.7738,7.3688,-42.3706,,adl
1.554081,-0.0128,0.0096,-0.0018,0.0222,0.0079,0.0134,-13.8104,7.3444,-42.3584,,adl
1.554664,0.0172,-0.0121,-0.0316,0.0222,0.0079,0.0134,-13.8104,7.3444,-42.3584,,adl
1.568845,0.0172,-0.0121,-0.0316,0.0222,0.0079,0.0134,-13.8104,7.3444,-42.3584,,adl
1.569512,0.0172,-0.0121,-0.0316,0.0222,0.0079,0.0134,-13.8104,7.3444,-42.3584,,adl
1.569921,0.0172,-0.0121,-0.0316,0.0222,0.0079,0.0134,-13.8104,7.3444,-42.3584,,adl
1.570322,0.0172,-0.0121,-0.0316,0.0222,0.0079,0.0134,-13.8104,7.3444,-42.3584,,adl
1.611906,0.0172,-0.0121,-0.0316,0.0222,0.0079,0.0134,-13.7982,7.381,-42.3706,,adl
1.612914,0.0172,-0.0121,-0.0316,0.028,0.0364,0.0043,-13.7982,7.381,-42.3706,,adl
1.625238,0.0642,-0.0027,-0.0201,0.028,0.0364,0.0043,-13.7982,7.381,-42.3706,,adl
1.637405,0.0642,-0.0027,-0.0201,0.028,0.0364,0.0043,-13.7982,7.381,-42.3706,,adl
1.638068,0.0642,-0.0027,-0.0201,0.028,0.0364,0.0043,-13.7982,7.381,-42.3706,,adl
1.638485,0.0642,-0.0027,-0.0201,0.028,0.0364,0.0043,-13.7982,7.381,-42.3706,,adl
1.674365,0.0642,-0.0027,-0.0201,0.028,0.0364,0.0043,-13.847,7.3566,-42.3462,,adl
1.68417,0.0642,-0.0027,-0.0201,0.0282,0.0478,-0.0063,-13.847,7.3566,-42.3462,,adl
1.693895,0.0304,-0.012,-0.0202,0.0282,0.0478,-0.0063,-13.847,7.3566,-42.3462,,adl
1.703759,0.0304,-0.012,-0.0202,0.0282,0.0478,-0.0063,-13.847,7.3566,-42.3462,,adl
1.704736,0.0304,-0.012,-0.0202,0.0282,0.0478,-0.0063,-13.847,7.3566,-42.3462,,adl
1.705457,0.0304,-0.012,-0.0202,0.0282,0.0478,-0.0063,-13.847,7.3566,-42.3462,,adl
1.706094,0.0304,-0.012,-0.0202,0.0282,0.0478,-0.0063,-13.847,7.3566,-42.3462,,adl
1.735428,0.0304,-0.012,-0.0202,0.0282,0.0478,-0.0063,-13.8348,7.2956,-42.3462,,adl
1.753263,0.0304,-0.012,-0.0202,0.0212,0.0678,-0.0084,-13.8348,7.2956,-42.3462,,adl
1.763646,-0.0012,0.0008,-0.0573,0.0212,0.0678,-0.0084,-13.8348,7.2956,-42.3462,,adl
1.767574,-0.0012,0.0008,-0.0573,0.0212,0.0678,-0.0084,-13.8348,7.2956,-42.3462,,adl
1.768359,-0.0012,0.0008,-0.0573,0.0212,0.0678,-0.0084,-13.8348,7.2956,-42.3462,,adl
1.769014,-0.0012,0.0008,-0.0573,0.0212,0.0678,-0.0084,-13.8348,7.2956,-42.3462,,adl
1.7948,-0.0012,0.0008,-0.0573,0.0212,0.0678,-0.0084,-13.786,7.2468,-42.4072,,adl
1.824655,-0.0012,0.0008,-0.0573,0.0193,0.1232,-0.013,-13.786,7.2468,-42.4072,,adl
1.832775,0.0324,0.0204,0.0051,0.0193,0.1232,-0.013,-13.786,7.2468,-42.4072,,adl
1.834082,0.0324,0.0204,0.0051,0.0193,0.1232,-0.013,-13.786,7.2468,-42.4072,,adl
1.834769,0.0324,0.0204,0.0051,0.0193,0.1232,-0.013,-13.786,7.2468,-42.4072,,adl
1.835396,0.0324,0.0204,0.0051,0.0193,0.1232,-0.013,-13.786,7.2468,-42.4072,,adl
1.853179,0.0324,0.0204,0.0051,0.0193,0.1232,-0.013,-13.6884,7.2102,-42.4438,,adl
1.895037,0.0324,0.0204,0.0051,-0.0201,0.189,-0.0204,-13.6884,7.2102,-42.4438,,adl
1.902346,0.0683,0.0336,0.0054,-0.0201,0.189,-0.0204,-13.6884,7.2102,-42.4438,,adl
1.9035,0.0683,0.0336,0.0054,-0.0201,0.189,-0.0204,-13.6884,7.2102,-42.4438,,adl
1.904286,0.0683,0.0336,0.0054,-0.0201,0.189,-0.0204,-13.6884,7.2102,-42.4438,,adl
1.905174,0.0683,0.0336,0.0054,-0.0201,0.189,-0.0204,-13.6884,7.2102,-42.4438,,adl
1.905965,0.0683,0.0336,0.0054,-0.0201,0.189,-0.0204,-13.6884,7.2102,-42.4438,,adl
1.913327,0.0683,0.0336,0.0054,-0.0201,0.189,-0.0204,-13.5908,7.1858,-42.517,,adl
1.962623,0.0683,0.0336,0.0054,-0.0417,0.2306,-0.0272,-13.5908,7.1858,-42.517,,adl
1.967112,0.0683,0.0336,0.0054,-0.0417,0.2306,-0.0272,-13.5908,7.1858,-42.517,,adl
1.968096,0.0683,0.0336,0.0054,-0.0417,0.2306,-0.0272,-13.5908,7.1858,-42.517,,adl
1.968887,0.0683,0.0336,0.0054,-0.0417,0.2306,-0.0272,-13.5908,7.1858,-42.517,,adl
1.971168,0.0683,0.0336,0.0054,-0.0417,0.2306,-0.0272,-13.359,7.1614,-42.578,,adl
1.97239,0.0094,0.0102,0.0425,-0.0417,0.2306,-0.0272,-13.359,7.1614,-42.578,,adl
2.033024,0.0094,0.0102,0.0425,-0.0417,0.2306,-0.0272,-13.0296,7.1126,-42.639,,adl
2.034452,0.0094,0.0102,0.0425,-0.014,0.2044,-0.0208,-13.0296,7.1126,-42.639,,adl
2.035466,0.0094,0.0102,0.0425,-0.014,0.2044,-0.0208,-13.0296,7.1126,-42.639,,adl
2.036255,0.0094,0.0102,0.0425,-0.014,0.2044,-0.0208,-13.0296,7.1126,-42.639,,adl
2.037179,0.0094,0.0102,0.0425,-0.014,0.2044,-0.0208,-13.0296,7.1126,-42.639,,adl
2.04213,-0.0583,0.0528,0.1397,-0.014,0.2044,-0.0208,-13.0296,7.1126,-42.639,,adl
2.094266,-0.0583,0.0528,0.1397,-0.014,0.2044,-0.0208,-12.7002,7.0394,-42.7122,,adl
2.100291,-0.0583,0.0528,0.1397,0.0301,0.1566,0.0019,-12.7002,7.0394,-42.7122,,adl
2.101079,-0.0583,0.0528,0.1397,0.0301,0.1566,0.0019,-12.7002,7.0394,-42.7122,,adl
2.101518,-0.0583,0.0528,0.1397,0.0301,0.1566,0.0019,-12.7002,7.0394,-42.7122,,adl
2.101921,-0.0583,0.0528,0.1397,0.0301,0.1566,0.0019,-12.7002,7.0394,-42.7122,,adl
2.102311,-0.0583,0.0528,0.1397,0.0301,0.1566,0.0019,-12.7002,7.0394,-42.7122,,adl
2.112221,-0.1162,-0.0451,0.0423,0.0301,0.1566,0.0019,-12.7002,7.0394,-42.7122,,adl
2.152916,-0.1162,-0.0451,0.0423,0.0301,0.1566,0.0019,-12.2854,6.9784,-42.8464,,adl
2.170317,-0.1162,-0.0451,0.0423,0.0301,0.1566,0.0019,-12.2854,6.9784,-42.8464,,adl
2.170957,-0.1162,-0.0451,0.0423,0.0301,0.1566,0.0019,-12.2854,6.9784,-42.8464,,adl
2.17136,-0.1162,-0.0451,0.0423,0.0301,0.1566,0.0019,-12.2854,6.9784,-42.8464,,adl
2.171778,-0.1162,-0.0451,0.0423,0.0543,0.0883,0.0113,-12.2854,6.9784,-42.8464,,adl
2.18196,-0.1714,-0.0217,-0.0278,0.0543,0.0883,0.0113,-12.2854,6.9784,-42.8464,,adl
2.212328,-0.1714,-0.0217,-0.0278,0.0543,0.0883,0.0113,-11.8828,6.9296,-43.0172,,adl
2.2355,-0.1714,-0.0217,-0.0278,0.0543,0.0883,0.0113,-11.8828,6.9296,-43.0172,,adl
2.236175,-0.1714,-0.0217,-0.0278,0.0543,0.0883,0.0113,-11.8828,6.9296,-43.0172,,adl
2.236602,-0.1714,-0.0217,-0.0278,0.0543,0.0883,0.0113,-11.8828,6.9296,-43.0172,,adl
2.242029,-0.1714,-0.0217,-0.0278,0.0586,0.1065,-0.0491,-11.8828,6.9296,-43.0172,,adl
2.253305,-0.1176,-0.0921,0.0351,0.0586,0.1065,-0.0491,-11.8828,6.9296,-43.0172,,adl
2.283041,-0.1176,-0.0921,0.0351,0.0586,0.1065,-0.0491,-11.468,6.8564,-43.1392,,adl
2.302168,-0.1176,-0.0921,0.0351,0.0586,0.1065,-0.0491,-11.468,6.8564,-43.1392,,adl
2.303165,-0.1176,-0.0921,0.0351,0.0586,0.1065,-0.0491,-11.468,6.8564,-43.1392,,adl
2.303852,-0.1176,-0.0921,0.0351,0.0586,0.1065,-0.0491,-11.468,6.8564,-43.1392,,adl
2.304482,-0.1176,-0.0921,0.0351,0.0586,0.1065,-0.0491,-11.468,6.8564,-43.1392,,adl
2.311243,-0.1176,-0.0921,0.0351,-0.0041,0.181,-0.0791,-11.468,6.8564,-43.1392,,adl
2.321287,0.1446,0.0778,-0.0275,-0.0041,0.181,-0.0791,-11.468,6.8564,-43.1392,,adl
2.342047,0.1446,0.0778,-0.0275,-0.0041,0.181,-0.0791,-11.0044,6.7588,-43.2246,,adl
2.369177,0.1446,0.0778,-0.0275,-0.0041,0.181,-0.0791,-11.0044,6.7588,-43.2246,,adl
2.370406,0.1446,0.0778,-0.0275,-0.0041,0.181,-0.0791,-11.0044,6.7588,-43.2246,,adl
2.371237,0.1446,0.0778,-0.0275,-0.0041,0.181,-0.0791,-11.0044,6.7588,-43.2246,,adl
2.383029,0.1446,0.0778,-0.0275,0.0145,0.1788,-0.0539,-11.0044,6.7588,-43.2246,,adl
2.390768,0.1649,0.0441,0.0246,0.0145,0.1788,-0.0539,-11.0044,6.7588,-43.2246,,adl
2.400946,0.1649,0.0441,0.0246,0.0145,0.1788,-0.0539,-10.5042,6.6246,-43.2612,,adl
2.435671,0.1649,0.0441,0.0246,0.0145,0.1788,-0.0539,-10.5042,6.6246,-43.2612,,adl
2.436838,0.1649,0.0441,0.0246,0.0145,0.1788,-0.0539,-10.5042,6.6246,-43.2612,,adl
2.437618,0.1649,0.0441,0.0246,0.0145,0.1788,-0.0539,-10.5042,6.6246,-43.2612,,adl
2.452905,0.1649,0.0441,0.0246,0.0618,0.174,-0.0953,-10.5042,6.6246,-43.2612,,adl
2.460902,0.1649,0.0441,0.0246,0.0618,0.174,-0.0953,-10.065,6.5026,-43.3466,,adl
2.462118,0.1584,-0.1936,0.1175,0.0618,0.174,-0.0953,-10.065,6.5026,-43.3466,,adl
2.502351,0.1584,-0.1936,0.1175,0.0618,0.174,-0.0953,-10.065,6.5026,-43.3466,,adl
2.503429,0.1584,-0.1936,0.1175,0.0618,0.174,-0.0953,-10.065,6.5026,-43.3466,,adl
2.504075,0.1584,-0.1936,0.1175,0.0618,0.174,-0.0953,-10.065,6.5026,-43.3466,,adl
2.504679,0.1584,-0.1936,0.1175,0.0618,0.174,-0.0953,-10.065,6.5026,-43.3466,,adl
2.521208,0.1584,-0.1936,0.1175,-0.0037,0.1453,-0.0884,-10.065,6.5026,-43.3466,,adl
2.522494,0.1584,-0.1936,0.1175,-0.0037,0.1453,-0.0884,-9.699,6.3562,-43.4686,,adl
2.530892,0.1169,0.1628,-0.0366,-0.0037,0.1453,-0.0884,-9.699,6.3562,-43.4686,,adl
2.569759,0.1169,0.1628,-0.0366,-0.0037,0.1453,-0.0884,-9.699,6.3562,-43.4686,,adl
2.571135,0.1169,0.1628,-0.0366,-0.0037,0.1453,-0.0884,-9.699,6.3562,-43.4686,,adl
2.571959,0.1169,0.1628,-0.0366,-0.0037,0.1453,-0.0884,-9.699,6.3562,-43.4686,,adl
2.580474,0.1169,0.1628,-0.0366,-0.0037,0.1453,-0.0884,-9.333,6.1976,-43.554,,adl
2.590007,0.1169,0.1628,-0.0366,-0.024,0.1149,-0.0738,-9.333,6.1976,-43.554,,adl
2.600042,0.1194,-0.0402,-0.0185,-0.024,0.1149,-0.0738,-9.333,6.1976,-43.554,,adl
2.635486,0.1194,-0.0402,-0.0185,-0.024,0.1149,-0.0738,-9.333,6.1976,-43.554,,adl
2.636864,0.1194,-0.0402,-0.0185,-0.024,0.1149,-0.0738,-9.333,6.1976,-43.554,,adl
2.637792,0.1194,-0.0402,-0.0185,-0.024,0.1149,-0.0738,-9.333,6.1976,-43.554,,adl
2.641107,0.1194,-0.0402,-0.0185,-0.024,0.1149,-0.0738,-8.9914,6.0756,-43.676,,adl
2.660206,0.1194,-0.0402,-0.0185,0.0162,0.0127,-0.0654,-8.9914,6.0756,-43.676,,adl
2.669764,0.113,-0.0379,-0.1205,0.0162,0.0127,-0.0654,-8.9914,6.0756,-43.676,,adl
2.700116,0.113,-0.0379,-0.1205,0.0162,0.0127,-0.0654,-8.6376,5.978,-43.7248,,adl
2.701493,0.113,-0.0379,-0.1205,0.0162,0.0127,-0.0654,-8.6376,5.978,-43.7248,,adl
2.702242,0.113,-0.0379,-0.1205,0.0162,0.0127,-0.0654,-8.6376,5.978,-43.7248,,adl
2.702901,0.113,-0.0379,-0.1205,0.0162,0.0127,-0.0654,-8.6376,5.978,-43.7248,,adl
2.703508,0.113,-0.0379,-0.1205,0.0162,0.0127,-0.0654,-8.6376,5.978,-43.7248,,adl
2.732198,0.113,-0.0379,-0.1205,-0.0087,-0.1103,0.0277,-8.6376,5.978,-43.7248,,adl
2.739921,-0.0485,0.0318,-0.0484,-0.0087,-0.1103,0.0277,-8.6376,5.978,-43.7248,,adl
2.759933,-0.0485,0.0318,-0.0484,-0.0087,-0.1103,0.0277,-8.4058,5.8926,-43.7614,,adl
2.767848,-0.0485,0.0318,-0.0484,-0.0087,-0.1103,0.0277,-8.4058,5.8926,-43.7614,,adl
2.768799,-0.0485,0.0318,-0.0484,-0.0087,-0.1103,0.0277,-8.4058,5.8926,-43.7614,,adl
2.769738,-0.0485,0.0318,-0.0484,-0.0087,-0.1103,0.0277,-8.4058,5.8926,-43.7614,,adl
2.800076,-0.0485,0.0318,-0.0484,0.0069,-0.1277,0.0672,-8.4058,5.8926,-43.7614,,adl
2.811204,0.0528,0.0546,0.0248,0.0069,-0.1277,0.0672,-8.4058,5.8926,-43.7614,,adl
2.819525,0.0528,0.0546,0.0248,0.0069,-0.1277,0.0672,-8.296,5.856,-43.8834,,adl
2.835314,0.0528,0.0546,0.0248,0.0069,-0.1277,0.0672,-8.296,5.856,-43.8834,,adl
2.836209,0.0528,0.0546,0.0248,0.0069,-0.1277,0.0672,-8.296,5.856,-43.8834,,adl
2.836839,0.0528,0.0546,0.0248,0.0069,-0.1277,0.0672,-8.296,5.856,-43.8834,,adl
2.869481,0.0528,0.0546,0.0248,0.0048,-0.1069,0.0638,-8.296,5.856,-43.8834,,adl
2.879625,0.0528,0.0546,0.0248,0.0048,-0.1069,0.0638,-8.2838,5.8682,-44.0054,,adl
2.880813,0.1316,0.0452,-0.0588,0.0048,-0.1069,0.0638,-8.2838,5.8682,-44.0054,,adl
2.902067,0.1316,0.0452,-0.0588,0.0048,-0.1069,0.0638,-8.2838,5.8682,-44.0054,,adl
2.903018,0.1316,0.0452,-0.0588,0.0048,-0.1069,0.0638,-8.2838,5.8682,-44.0054,,adl
2.903645,0.1316,0.0452,-0.0588,0.0048,-0.1069,0.0638,-8.2838,5.8682,-44.0054,,adl
2.904244,0.1316,0.0452,-0.0588,0.0048,-0.1069,0.0638,-8.2838,5.8682,-44.0054,,adl
2.939461,0.1316,0.0452,-0.0588,0.01,-0.0216,0.023,-8.2838,5.8682,-44.0054,,adl
2.940569,0.1316,0.0452,-0.0588,0.01,-0.0216,0.023,-8.3204,5.9048,-44.0542,,adl
2.948833,0.0763,-0.0944,-0.0605,0.01,-0.0216,0.023,-8.3204,5.9048,-44.0542,,adl
2.969142,0.0763,-0.0944,-0.0605,0.01,-0.0216,0.023,-8.3204,5.9048,-44.0542,,adl
2.970033,0.0763,-0.0944,-0.0605,0.01,-0.0216,0.023,-8.3204,5.9048,-44.0542,,adl
2.970684,0.0763,-0.0944,-0.0605,0.01,-0.0216,0.023,-8.3204,5.9048,-44.0542,,adl
3.000532,0.0763,-0.0944,-0.0605,0.01,-0.0216,0.023,-8.3692,5.9414,-44.103,,adl
3.01039,0.0763,-0.0944,-0.0605,0.0116,0.0144,0.0004,-8.3692,5.9414,-44.103,,adl
3.018789,0.0791,-0.0293,-0.0802,0.0116,0.0144,0.0004,-8.3692,5.9414,-44.103,,adl
3.036119,0.0791,-0.0293,-0.0802,0.0116,0.0144,0.0004,-8.3692,5.9414,-44.103,,adl
3.03666,0.0791,-0.0293,-0.0802,0.0116,0.0144,0.0004,-8.3692,5.9414,-44.103,,adl
3.03716,0.0791,-0.0293,-0.0802,0.0116,0.0144,0.0004,-8.3692,5.9414,-44.103,,adl
3.058773,0.0791,-0.0293,-0.0802,0.0116,0.0144,0.0004,-8.4302,5.9658,-44.0664,,adl
3.079167,0.0791,-0.0293,-0.0802,-0.0198,0.0676,-0.0369,-8.4302,5.9658,-44.0664,,adl
3.090412,-0.0714,0.0282,-0.0685,-0.0198,0.0676,-0.0369,-8.4302,5.9658,-44.0664,,adl
3.102017,-0.0714,0.0282,-0.0685,-0.0198,0.0676,-0.0369,-8.4302,5.9658,-44.0664,,adl
3.103098,-0.0714,0.0282,-0.0685,-0.0198,0.0676,-0.0369,-8.4302,5.9658,-44.0664,,adl
3.103888,-0.0714,0.0282,-0.0685,-0.0198,0.0676,-0.0369,-8.4302,5.9658,-44.0664,,adl
3.104684,-0.0714,0.0282,-0.0685,-0.0198,0.0676,-0.0369,-8.4302,5.9658,-44.0664,,adl
3.118651,-0.0714,0.0282,-0.0685,-0.0198,0.0676,-0.0369,-8.5522,6.039,-44.042,,adl
3.148445,-0.0714,0.0282,-0.0685,-0.0387,0.1189,-0.0876,-8.5522,6.039,-44.042,,adl
3.158777,0.009,0.0061,0.0357,-0.0387,0.1189,-0.0876,-8.5522,6.039,-44.042,,adl
3.170216,0.009,0.0061,0.0357,-0.0387,0.1189,-0.0876,-8.5522,6.039,-44.042,,adl
3.171327,0.009,0.0061,0.0357,-0.0387,0.1189,-0.0876,-8.5522,6.039,-44.042,,adl
3.172107,0.009,0.0061,0.0357,-0.0387,0.1189,-0.0876,-8.5522,6.039,-44.042,,adl
3.179627,0.009,0.0061,0.0357,-0.0387,0.1189,-0.0876,-8.6498,6.1,-44.042,,adl
3.217211,0.009,0.0061,0.0357,0.0164,0.1033,-0.071,-8.6498,6.1,-44.042,,adl
3.227157,0.1962,-0.0677,0.144,0.0164,0.1033,-0.071,-8.6498,6.1,-44.042,,adl
3.235729,0.1962,-0.0677,0.144,0.0164,0.1033,-0.071,-8.6498,6.1,-44.042,,adl
3.237513,0.1962,-0.0677,0.144,0.0164,0.1033,-0.071,-8.6498,6.1,-44.042,,adl
3.238701,0.1962,-0.0677,0.144,0.0164,0.1033,-0.071,-8.6498,6.1,-44.042,,adl
3.239849,0.1962,-0.0677,0.144,0.0164,0.1033,-0.071,-8.6132,6.161,-44.0664,,adl
3.289115,0.1962,-0.0677,0.144,-0.0598,-0.0611,0.0944,-8.6132,6.161,-44.0664,,adl
3.300313,0.1083,0.1581,0.2857,-0.0598,-0.0611,0.0944,-8.6132,6.161,-44.0664,,adl
3.304212,0.1083,0.1581,0.2857,-0.0598,-0.0611,0.0944,-8.54,6.2342,-44.0664,,adl
3.306397,0.1083,0.1581,0.2857,-0.0598,-0.0611,0.0944,-8.54,6.2342,-44.0664,,adl
3.307826,0.1083,0.1581,0.2857,-0.0598,-0.0611,0.0944,-8.54,6.2342,-44.0664,,adl
3.309239,0.1083,0.1581,0.2857,-0.0598,-0.0611,0.0944,-8.54,6.2342,-44.0664,,adl
3.310472,0.1083,0.1581,0.2857,-0.0598,-0.0611,0.0944,-8.54,6.2342,-44.0664,,adl
3.360458,0.1083,0.1581,0.2857,-0.0598,-0.0611,0.0944,-8.4912,6.283,-44.0542,,adl
3.365387,0.1083,0.1581,0.2857,0.0088,-0.073,-0.0618,-8.4912,6.283,-44.0542,,adl
3.368475,0.1519,-0.0357,0.2383,0.0088,-0.073,-0.0618,-8.4912,6.283,-44.0542,,adl
3.371861,0.1519,-0.0357,0.2383,0.0088,-0.073,-0.0618,-8.4912,6.283,-44.0542,,adl
3.374491,0.1519,-0.0357,0.2383,0.0088,-0.073,-0.0618,-8.4912,6.283,-44.0542,,adl
3.377232,0.1519,-0.0357,0.2383,0.0088,-0.073,-0.0618,-8.4912,6.283,-44.0542,,adl
3.418862,0.1519,-0.0357,0.2383,0.0088,-0.073,-0.0618,-8.4302,6.2952,-44.0054,,adl
3.428034,0.1519,-0.0357,0.2383,0.0011,-0.1302,-0.0244,-8.4302,6.2952,-44.0054,,adl
3.437795,0.1519,-0.0357,0.2383,0.0011,-0.1302,-0.0244,-8.4302,6.2952,-44.0054,,adl
3.441268,0.1519,-0.0357,0.2383,0.0011,-0.1302,-0.0244,-8.4302,6.2952,-44.0054,,adl
3.445144,0.1519,-0.0357,0.2383,0.0011,-0.1302,-0.0244,-8.4302,6.2952,-44.0054,,adl
3.447886,0.2778,0.1201,0.0296,0.0011,-0.1302,-0.0244,-8.4302,6.2952,-44.0054,,adl
3.478437,0.2778,0.1201,0.0296,0.0011,-0.1302,-0.0244,-8.4058,6.3318,-43.9444,,adl
3.497746,0.2778,0.1201,0.0296,0.0511,-0.2067,-0.0415,-8.4058,6.3318,-43.9444,,adl
3.50155,0.2778,0.1201,0.0296,0.0511,-0.2067,-0.0415,-8.4058,6.3318,-43.9444,,adl
3.504049,0.2778,0.1201,0.0296,0.0511,-0.2067,-0.0415,-8.4058,6.3318,-43.9444,,adl
3.506871,0.2778,0.1201,0.0296,0.0511,-0.2067,-0.0415,-8.4058,6.3318,-43.9444,,adl
3.509452,0.2778,0.1201,0.0296,0.0511,-0.2067,-0.0415,-8.4058,6.3318,-43.9444,,adl
3.510945,0.2599,-0.0327,0.2547,0.0511,-0.2067,-0.0415,-8.4058,6.3318,-43.9444,,adl
3.538086,0.2599,-0.0327,0.2547,0.0511,-0.2067,-0.0415,-8.5034,6.4416,-43.9322,,adl
3.567456,0.2599,-0.0327,0.2547,0.0534,-0.2446,-0.0067,-8.5034,6.4416,-43.9322,,adl
3.571027,0.2599,-0.0327,0.2547,0.0534,-0.2446,-0.0067,-8.5034,6.4416,-43.9322,,adl
3.573558,0.2599,-0.0327,0.2547,0.0534,-0.2446,-0.0067,-8.5034,6.4416,-43.9322,,adl
3.575993,0.2599,-0.0327,0.2547,0.0534,-0.2446,-0.0067,-8.5034,6.4416,-43.9322,,adl
3.578793,0.2756,0.1975,0.0329,0.0534,-0.2446,-0.0067,-8.5034,6.4416,-43.9322,,adl
3.597641,0.2756,0.1975,0.0329,0.0534,-0.2446,-0.0067,-8.6498,6.466,-43.8712,,adl
3.636528,0.2756,0.1975,0.0329,0.0823,-0.2356,0.038,-8.6498,6.466,-43.8712,,adl
3.640148,0.2756,0.1975,0.0329,0.0823,-0.2356,0.038,-8.6498,6.466,-43.8712,,adl
3.642322,0.2756,0.1975,0.0329,0.0823,-0.2356,0.038,-8.6498,6.466,-43.8712,,adl
3.644424,0.2756,0.1975,0.0329,0.0823,-0.2356,0.038,-8.6498,6.466,-43.8712,,adl
3.647166,0.2756,0.1975,0.0329,0.0823,-0.2356,0.038,-8.6498,6.466,-43.8712,,adl
3.65016,0.1447,0.0224,-0.0613,0.0823,-0.2356,0.038,-8.6498,6.466,-43.8712,,adl
3.657103,0.1447,0.0224,-0.0613,0.0823,-0.2356,0.038,-8.9304,6.5026,-43.7858,,adl
3.70326,0.1447,0.0224,-0.0613,0.0823,-0.2356,0.038,-8.9304,6.5026,-43.7858,,adl
3.706408,0.1447,0.0224,-0.0613,0.0823,-0.2356,0.038,-8.9304,6.5026,-43.7858,,adl
3.708511,0.1447,0.0224,-0.0613,0.0823,-0.2356,0.038,-8.9304,6.5026,-43.7858,,adl
3.710748,0.1447,0.0224,-0.0613,0.0117,-0.0663,0.0655,-8.9304,6.5026,-43.7858,,adl
3.716693,0.1447,0.0224,-0.0613,0.0117,-0.0663,0.0655,-9.272,6.527,-43.6394,,adl
3.719475,0.0104,-0.0885,-0.2192,0.0117,-0.0663,0.0655,-9.272,6.527,-43.6394,,adl
3.770109,0.0104,-0.0885,-0.2192,0.0117,-0.0663,0.0655,-9.272,6.527,-43.6394,,adl
3.77328,0.0104,-0.0885,-0.2192,0.0117,-0.0663,0.0655,-9.272,6.527,-43.6394,,adl
3.775383,0.0104,-0.0885,-0.2192,0.0117,-0.0663,0.0655,-9.272,6.527,-43.6394,,adl
3.777898,0.0104,-0.0885,-0.2192,0.0117,-0.0663,0.0655,-9.638,6.527,-43.4564,,adl
3.780531,0.0104,-0.0885,-0.2192,-0.0256,-0.0794,0.0991,-9.638,6.527,-43.4564,,adl
3.788701,-0.2859,0.0111,-0.3549,-0.0256,-0.0794,0.0991,-9.638,6.527,-43.4564,,adl
3.836505,-0.2859,0.0111,-0.3549,-0.0256,-0.0794,0.0991,-9.9796,6.5636,-43.2734,,adl
3.83914,-0.2859,0.0111,-0.3549,-0.0256,-0.0794,0.0991,-9.9796,6.5636,-43.2734,,adl
3.840573,-0.2859,0.0111,-0.3549,-0.0256,-0.0794,0.0991,-9.9796,6.5636,-43.2734,,adl
3.842129,-0.2859,0.0111,-0.3549,-0.0256,-0.0794,0.0991,-9.9796,6.5636,-43.2734,,adl
3.84355,-0.2859,0.0111,-0.3549,-0.0256,-0.0794,0.0991,-9.9796,6.5636,-43.2734,,adl
3.846157,-0.2859,0.0111,-0.3549,-0.1256,-0.1196,0.1257,-9.9796,6.5636,-43.2734,,adl
3.855895,-0.7548,-0.1036,0.0424,-0.1256,-0.1196,0.1257,-9.9796,6.5636,-43.2734,,adl
3.896824,-0.7548,-0.1036,0.0424,-0.1256,-0.1196,0.1257,-10.309,6.71,-43.1392,,adl
3.9013,-0.7548,-0.1036,0.0424,-0.1256,-0.1196,0.1257,-10.309,6.71,-43.1392,,adl
3.903967,-0.7548,-0.1036,0.0424,-0.1256,-0.1196,0.1257,-10.309,6.71,-43.1392,,adl
3.906676,-0.7548,-0.1036,0.0424,-0.1256,-0.1196,0.1257,-10.309,6.71,-43.1392,,adl
3.916522,-0.7548,-0.1036,0.0424,-0.1454,0.1819,0.168,-10.309,6.71,-43.1392,,adl
3.92592,-0.446,-0.1645,0.4447,-0.1454,0.1819,0.168,-10.309,6.71,-43.1392,,adl
3.956351,-0.446,-0.1645,0.4447,-0.1454,0.1819,0.168,-10.553,6.9662,-43.066,,adl
3.969879,-0.446,-0.1645,0.4447,-0.1454,0.1819,0.168,-10.553,6.9662,-43.066,,adl
3.971919,-0.446,-0.1645,0.4447,-0.1454,0.1819,0.168,-10.553,6.9662,-43.066,,adl
3.973759,-0.446,-0.1645,0.4447,-0.1454,0.1819,0.168,-10.553,6.9662,-43.066,,adl
3.986005,-0.446,-0.1645,0.4447,-0.1258,0.2365,0.223,-10.553,6.9662,-43.066,,adl
3.995947,-0.0818,-0.0692,0.3971,-0.1258,0.2365,0.223,-10.553,6.9662,-43.066,,adl
4.016054,-0.0818,-0.0692,0.3971,-0.1258,0.2365,0.223,-10.614,7.2468,-43.005,,adl
4.036497,-0.0818,-0.0692,0.3971,-0.1258,0.2365,0.223,-10.614,7.2468,-43.005,,adl
4.03932,-0.0818,-0.0692,0.3971,-0.1258,0.2365,0.223,-10.614,7.2468,-43.005,,adl
4.041579,-0.0818,-0.0692,0.3971,-0.1258,0.2365,0.223,-10.614,7.2468,-43.005,,adl
4.043787,-0.0818,-0.0692,0.3971,-0.1258,0.2365,0.223,-10.614,7.2468,-43.005,,adl
4.055726,-0.0818,-0.0692,0.3971,-0.1097,0.2486,0.1501,-10.614,7.2468,-43.005,,adl
4.066169,-0.4132,0.1291,0.3046,-0.1097,0.2486,0.1501,-10.614,7.2468,-43.005,,adl
4.075746,-0.4132,0.1291,0.3046,-0.1097,0.2486,0.1501,-10.553,7.625,-43.0172,,adl
4.103422,-0.4132,0.1291,0.3046,-0.1097,0.2486,0.1501,-10.553,7.625,-43.0172,,adl
4.106313,-0.4132,0.1291,0.3046,-0.1097,0.2486,0.1501,-10.553,7.625,-43.0172,,adl
4.108391,-0.4132,0.1291,0.3046,-0.1097,0.2486,0.1501,-10.553,7.625,-43.0172,,adl
4.126212,-0.4132,0.1291,0.3046,-0.1551,0.3281,0.0795,-10.553,7.625,-43.0172,,adl
4.135603,-0.4132,0.1291,0.3046,-0.1551,0.3281,0.0795,-10.248,8.0154,-43.0416,,adl
4.138883,-0.0846,0.2113,0.3662,-0.1551,0.3281,0.0795,-10.248,8.0154,-43.0416,,adl
4.170007,-0.0846,0.2113,0.3662,-0.1551,0.3281,0.0795,-10.248,8.0154,-43.0416,,adl
4.172626,-0.0846,0.2113,0.3662,-0.1551,0.3281,0.0795,-10.248,8.0154,-43.0416,,adl
4.174966,-0.0846,0.2113,0.3662,-0.1551,0.3281,0.0795,-10.248,8.0154,-43.0416,,adl
4.195626,-0.0846,0.2113,0.3662,-0.1551,0.3281,0.0795,-9.8576,8.5522,-43.127,,adl
4.198874,-0.0846,0.2113,0.3662,-0.2728,0.343,0.0804,-9.8576,8.5522,-43.127,,adl
4.207098,0.2426,0.2002,0.4837,-0.2728,0.343,0.0804,-9.8576,8.5522,-43.127,,adl
4.236309,0.2426,0.2002,0.4837,-0.2728,0.343,0.0804,-9.8576,8.5522,-43.127,,adl
4.239693,0.2426,0.2002,0.4837,-0.2728,0.343,0.0804,-9.8576,8.5522,-43.127,,adl
4.241132,0.2426,0.2002,0.4837,-0.2728,0.343,0.0804,-9.8576,8.5522,-43.127,,adl
4.243404,0.2426,0.2002,0.4837,-0.2728,0.343,0.0804,-9.8576,8.5522,-43.127,,adl
4.254766,0.2426,0.2002,0.4837,-0.2728,0.343,0.0804,-9.2964,9.1256,-43.2856,,adl
4.263083,0.2426,0.2002,0.4837,-0.0754,0.5477,-0.0656,-9.2964,9.1256,-43.2856,,adl
4.276228,0.1713,0.0521,0.1842,-0.0754,0.5477,-0.0656,-9.2964,9.1256,-43.2856,,adl
4.303092,0.1713,0.0521,0.1842,-0.0754,0.5477,-0.0656,-9.2964,9.1256,-43.2856,,adl
4.306635,0.1713,0.0521,0.1842,-0.0754,0.5477,-0.0656,-9.2964,9.1256,-43.2856,,adl
4.309189,0.1713,0.0521,0.1842,-0.0754,0.5477,-0.0656,-9.2964,9.1256,-43.2856,,adl
4.31624,0.1713,0.0521,0.1842,-0.0754,0.5477,-0.0656,-8.5278,9.6624,-43.4564,,adl
4.334459,0.1713,0.0521,0.1842,0.0116,0.5365,-0.1161,-8.5278,9.6624,-43.4564,,adl
4.34481,-0.2403,0.0382,0.563,0.0116,0.5365,-0.1161,-8.5278,9.6624,-43.4564,,adl
4.369681,-0.2403,0.0382,0.563,0.0116,0.5365,-0.1161,-8.5278,9.6624,-43.4564,,adl
4.372234,-0.2403,0.0382,0.563,0.0116,0.5365,-0.1161,-8.5278,9.6624,-43.4564,,adl
4.374321,-0.2403,0.0382,0.563,0.0116,0.5365,-0.1161,-8.5278,9.6624,-43.4564,,adl
4.376448,-0.2403,0.0382,0.563,0.0116,0.5365,-0.1161,-7.5762,10.0772,-43.6516,,adl
4.404913,-0.2403,0.0382,0.563,-0.0047,0.6546,-0.0714,-7.5762,10.0772,-43.6516,,adl
4.414634,0.0584,0.1271,0.73,-0.0047,0.6546,-0.0714,-7.5762,10.0772,-43.6516,,adl
4.434747,0.0584,0.1271,0.73,-0.0047,0.6546,-0.0714,-6.4782,10.3944,-43.7614,,adl
4.437863,0.0584,0.1271,0.73,-0.0047,0.6546,-0.0714,-6.4782,10.3944,-43.7614,,adl
4.439087,0.0584,0.1271,0.73,-0.0047,0.6546,-0.0714,-6.4782,10.3944,-43.7614,,adl
4.440256,0.0584,0.1271,0.73,-0.0047,0.6546,-0.0714,-6.4782,10.3944,-43.7614,,adl
4.441504,0.0584,0.1271,0.73,-0.0047,0.6546,-0.0714,-6.4782,10.3944,-43.7614,,adl
4.475098,0.0584,0.1271,0.73,0.1799,0.5693,-0.0036,-6.4782,10.3944,-43.7614,,adl
4.490672,-0.2601,-1.3574,0.3756,0.1799,0.5693,-0.0036,-6.4782,10.3944,-43.7614,,adl
4.494336,-0.2601,-1.3574,0.3756,0.1799,0.5693,-0.0036,-5.246,10.5896,-43.9322,,adl
4.502374,-0.2601,-1.3574,0.3756,0.1799,0.5693,-0.0036,-5.246,10.5896,-43.9322,,adl
4.504919,-0.2601,-1.3574,0.3756,0.1799,0.5693,-0.0036,-5.246,10.5896,-43.9322,,adl
4.506704,-0.2601,-1.3574,0.3756,0.1799,0.5693,-0.0036,-5.246,10.5896,-43.9322,,adl
4.542623,-0.2601,-1.3574,0.3756,0.0598,0.4431,-0.3045,-5.246,10.5896,-43.9322,,adl
4.552922,-0.1891,-0.0969,-0.6893,0.0598,0.4431,-0.3045,-5.246,10.5896,-43.9322,,adl
4.556553,-0.1891,-0.0969,-0.6893,0.0598,0.4431,-0.3045,-3.9772,10.6506,-44.0054,,adl
4.569455,-0.1891,-0.0969,-0.6893,0.0598,0.4431,-0.3045,-3.9772,10.6506,-44.0054,,adl
4.570616,-0.1891,-0.0969,-0.6893,0.0598,0.4431,-0.3045,-3.9772,10.6506,-44.0054,,adl
4.571637,-0.1891,-0.0969,-0.6893,0.0598,0.4431,-0.3045,-3.9772,10.6506,-44.0054,,adl
4.612754,-0.1891,-0.0969,-0.6893,0.0598,0.4431,-0.3045,-2.8182,10.7116,-44.103,,adl
4.616115,-0.1891,-0.0969,-0.6893,0.0447,0.1699,-0.2176,-2.8182,10.7116,-44.103,,adl
4.623656,-1.1015,0.5033,-0.8369,0.0447,0.1699,-0.2176,-2.8182,10.7116,-44.103,,adl
4.635883,-1.1015,0.5033,-0.8369,0.0447,0.1699,-0.2176,-2.8182,10.7116,-44.103,,adl
4.639128,-1.1015,0.5033,-0.8369,0.0447,0.1699,-0.2176,-2.8182,10.7116,-44.103,,adl
4.641448,-1.1015,0.5033,-0.8369,0.0447,0.1699,-0.2176,-2.8182,10.7116,-44.103,,adl
4.643515,-1.1015,0.5033,-0.8369,0.0447,0.1699,-0.2176,-2.8182,10.7116,-44.103,,adl
4.674189,-1.1015,0.5033,-0.8369,0.0447,0.1699,-0.2176,-1.6348,10.6018,-44.2006,,adl
4.683616,-1.1015,0.5033,-0.8369,0.0618,0.1423,-0.084,-1.6348,10.6018,-44.2006,,adl
4.69356,0.3123,0.3587,-0.6194,0.0618,0.1423,-0.084,-1.6348,10.6018,-44.2006,,adl
4.70221,0.3123,0.3587,-0.6194,0.0618,0.1423,-0.084,-1.6348,10.6018,-44.2006,,adl
4.705387,0.3123,0.3587,-0.6194,0.0618,0.1423,-0.084,-1.6348,10.6018,-44.2006,,adl
4.707901,0.3123,0.3587,-0.6194,0.0618,0.1423,-0.084,-1.6348,10.6018,-44.2006,,adl
4.733674,0.3123,0.3587,-0.6194,0.0618,0.1423,-0.084,-0.6344,10.4066,-44.3104,,adl
4.753829,0.3123,0.3587,-0.6194,0.0356,-0.0314,-0.2421,-0.6344,10.4066,-44.3104,,adl
4.770115,0.2063,-0.3637,-0.4599,0.0356,-0.0314,-0.2421,-0.6344,10.4066,-44.3104,,adl
4.773645,0.2063,-0.3637,-0.4599,0.0356,-0.0314,-0.2421,-0.6344,10.4066,-44.3104,,adl
4.777858,0.2063,-0.3637,-0.4599,0.0356,-0.0314,-0.2421,-0.6344,10.4066,-44.3104,,adl
4.780483,0.2063,-0.3637,-0.4599,0.0356,-0.0314,-0.2421,-0.6344,10.4066,-44.3104,,adl
4.792456,0.2063,-0.3637,-0.4599,0.0356,-0.0314,-0.2421,0.1586,10.2358,-44.3958,,adl
4.822979,0.2063,-0.3637,-0.4599,-0.0391,-0.1639,-0.2156,0.1586,10.2358,-44.3958,,adl
4.838177,-0.0522,0.2389,-0.3451,-0.0391,-0.1639,-0.2156,0.1586,10.2358,-44.3958,,adl
4.841556,-0.0522,0.2389,-0.3451,-0.0391,-0.1639,-0.2156,0.1586,10.2358,-44.3958,,adl
4.843131,-0.0522,0.2389,-0.3451,-0.0391,-0.1639,-0.2156,0.1586,10.2358,-44.3958,,adl
4.844787,-0.0522,0.2389,-0.3451,-0.0391,-0.1639,-0.2156,0.1586,10.2358,-44.3958,,adl
4.846436,-0.0522,0.2389,-0.3451,-0.0391,-0.1639,-0.2156,0.1586,10.2358,-44.3958,,adl
4.852525,-0.0522,0.2389,-0.3451,-0.0391,-0.1639,-0.2156,0.732,10.0894,-44.469,,adl
4.893627,-0.0522,0.2389,-0.3451,-0.1205,-0.1302,-0.0949,0.732,10.0894,-44.469,,adl
4.901539,0.2709,0.3626,0.0845,-0.1205,-0.1302,-0.0949,0.732,10.0894,-44.469,,adl
4.906006,0.2709,0.3626,0.0845,-0.1205,-0.1302,-0.0949,0.732,10.0894,-44.469,,adl
4.90921,0.2709,0.3626,0.0845,-0.1205,-0.1302,-0.0949,0.732,10.0894,-44.469,,adl
4.912505,0.2709,0.3626,0.0845,-0.1205,-0.1302,-0.0949,0.732,10.0894,-44.469,,adl
4.914593,0.2709,0.3626,0.0845,-0.1205,-0.1302,-0.0949,0.9882,9.9552,-44.53,,adl
4.963082,0.2709,0.3626,0.0845,-0.1204,-0.0716,0.0324,0.9882,9.9552,-44.53,,adl
4.967742,0.2709,0.3626,0.0845,-0.1204,-0.0716,0.0324,0.9882,9.9552,-44.53,,adl
4.970485,0.2709,0.3626,0.0845,-0.1204,-0.0716,0.0324,0.9882,9.9552,-44.53,,adl
4.972512,0.2709,0.3626,0.0845,-0.1204,-0.0716,0.0324,0.9882,9.9552,-44.53,,adl
4.974568,0.2709,0.3626,0.0845,-0.1204,-0.0716,0.0324,1.0248,9.9308,-44.53,,adl
4.976514,0.4371,0.37,0.3042,-0.1204,-0.0716,0.0324,1.0248,9.9308,-44.53,,adl
5.034108,0.4371,0.37,0.3042,-0.1204,-0.0716,0.0324,0.9272,9.9674,-44.5544,,adl
5.038073,0.4371,0.37,0.3042,-0.0692,-0.0947,0.0822,0.9272,9.9674,-44.5544,,adl
5.040716,0.4371,0.37,0.3042,-0.0692,-0.0947,0.0822,0.9272,9.9674,-44.5544,,adl
5.04377,0.4371,0.37,0.3042,-0.0692,-0.0947,0.0822,0.9272,9.9674,-44.5544,,adl
5.046011,0.4371,0.37,0.3042,-0.0692,-0.0947,0.0822,0.9272,9.9674,-44.5544,,adl
5.047405,0.4371,0.37,0.3042,-0.0692,-0.0947,0.0822,0.9272,9.9674,-44.5544,,adl
5.048774,0.3228,0.2109,0.5314,-0.0692,-0.0947,0.0822,0.9272,9.9674,-44.5544,,adl
5.103153,0.3228,0.2109,0.5314,-0.0692,-0.0947,0.0822,0.793,10.0406,-44.5666,,adl
5.106839,0.3228,0.2109,0.5314,-0.0734,-0.2848,0.0935,0.793,10.0406,-44.5666,,adl
5.109581,0.3228,0.2109,0.5314,-0.0734,-0.2848,0.0935,0.793,10.0406,-44.5666,,adl
5.112511,0.3228,0.2109,0.5314,-0.0734,-0.2848,0.0935,0.793,10.0406,-44.5666,,adl
5.115014,0.3228,0.2109,0.5314,-0.0734,-0.2848,0.0935,0.793,10.0406,-44.5666,,adl
5.117501,0.2587,0.1312,0.5342,-0.0734,-0.2848,0.0935,0.793,10.0406,-44.5666,,adl
5.160912,0.2587,0.1312,0.5342,-0.0734,-0.2848,0.0935,0.4392,10.1626,-44.5178,,adl
5.168179,0.2587,0.1312,0.5342,-0.0734,-0.2848,0.0935,0.4392,10.1626,-44.5178,,adl
5.171977,0.2587,0.1312,0.5342,-0.0734,-0.2848,0.0935,0.4392,10.1626,-44.5178,,adl
5.174733,0.2587,0.1312,0.5342,-0.0734,-0.2848,0.0935,0.4392,10.1626,-44.5178,,adl
5.177511,0.2587,0.1312,0.5342,-0.0704,-0.4977,0.0611,0.4392,10.1626,-44.5178,,adl
5.183212,0.1344,-0.0949,0.6629,-0.0704,-0.4977,0.0611,0.4392,10.1626,-44.5178,,adl
5.222006,0.1344,-0.0949,0.6629,-0.0704,-0.4977,0.0611,-0.0732,10.309,-44.3714,,adl
5.236068,0.1344,-0.0949,0.6629,-0.0704,-0.4977,0.0611,-0.0732,10.309,-44.3714,,adl
5.239281,0.1344,-0.0949,0.6629,-0.0704,-0.4977,0.0611,-0.0732,10.309,-44.3714,,adl
5.242296,0.1344,-0.0949,0.6629,-0.0704,-0.4977,0.0611,-0.0732,10.309,-44.3714,,adl
5.244794,0.1344,-0.0949,0.6629,-0.0704,-0.4977,0.0611,-0.0732,10.309,-44.3714,,adl
5.24739,0.1344,-0.0949,0.6629,0.0133,-0.5248,-0.2342,-0.0732,10.309,-44.3714,,adl
5.255824,0.3988,-0.491,0.7083,0.0133,-0.5248,-0.2342,-0.0732,10.309,-44.3714,,adl
5.280277,0.3988,-0.491,0.7083,0.0133,-0.5248,-0.2342,-0.6954,10.431,-44.1762,,adl
5.302963,0.3988,-0.491,0.7083,0.0133,-0.5248,-0.2342,-0.6954,10.431,-44.1762,,adl
5.307107,0.3988,-0.491,0.7083,0.0133,-0.5248,-0.2342,-0.6954,10.431,-44.1762,,adl
5.310245,0.3988,-0.491,0.7083,0.0133,-0.5248,-0.2342,-0.6954,10.431,-44.1762,,adl
5.312766,0.3988,-0.491,0.7083,0.1217,-0.4967,-0.0798,-0.6954,10.431,-44.1762,,adl
5.321596,0.7551,-1.7034,-0.5893,0.1217,-0.4967,-0.0798,-0.6954,10.431,-44.1762,,adl
5.341596,0.7551,-1.7034,-0.5893,0.1217,-0.4967,-0.0798,-1.4762,10.431,-43.9688,,adl
5.369727,0.7551,-1.7034,-0.5893,0.1217,-0.4967,-0.0798,-1.4762,10.431,-43.9688,,adl
5.372877,0.7551,-1.7034,-0.5893,0.1217,-0.4967,-0.0798,-1.4762,10.431,-43.9688,,adl
5.375446,0.7551,-1.7034,-0.5893,0.1217,-0.4967,-0.0798,-1.4762,10.431,-43.9688,,adl
5.38085,0.7551,-1.7034,-0.5893,0.0152,-0.6449,0.1647,-1.4762,10.431,-43.9688,,adl
5.391794,-0.4476,0.4959,-0.3308,0.0152,-0.6449,0.1647,-1.4762,10.431,-43.9688,,adl
5.400157,-0.4476,0.4959,-0.3308,0.0152,-0.6449,0.1647,-2.4034,10.4798,-43.8346,,adl
5.435917,-0.4476,0.4959,-0.3308,0.0152,-0.6449,0.1647,-2.4034,10.4798,-43.8346,,adl
5.438987,-0.4476,0.4959,-0.3308,0.0152,-0.6449,0.1647,-2.4034,10.4798,-43.8346,,adl
5.441252,-0.4476,0.4959,-0.3308,0.0152,-0.6449,0.1647,-2.4034,10.4798,-43.8346,,adl
5.443336,-0.4476,0.4959,-0.3308,0.0152,-0.6449,0.1647,-2.4034,10.4798,-43.8346,,adl
5.451631,-0.4476,0.4959,-0.3308,-0.0245,-0.6752,0.0542,-2.4034,10.4798,-43.8346,,adl
5.460529,-0.4476,0.4959,-0.3308,-0.0245,-0.6752,0.0542,-3.5258,10.5286,-43.6394,,adl
5.46332,-0.4934,0.7731,-1.4182,-0.0245,-0.6752,0.0542,-3.5258,10.5286,-43.6394,,adl
5.503043,-0.4934,0.7731,-1.4182,-0.0245,-0.6752,0.0542,-3.5258,10.5286,-43.6394,,adl
5.506513,-0.4934,0.7731,-1.4182,-0.0245,-0.6752,0.0542,-3.5258,10.5286,-43.6394,,adl
5.509169,-0.4934,0.7731,-1.4182,-0.0245,-0.6752,0.0542,-3.5258,10.5286,-43.6394,,adl
5.52204,-0.4934,0.7731,-1.4182,-0.0245,-0.6752,0.0542,-4.7458,10.5652,-43.432,,adl
5.523843,-0.4934,0.7731,-1.4182,0.0478,-0.2924,0.2095,-4.7458,10.5652,-43.432,,adl
5.529326,-0.9303,-0.2481,-0.6564,0.0478,-0.2924,0.2095,-4.7458,10.5652,-43.432,,adl
5.570072,-0.9303,-0.2481,-0.6564,0.0478,-0.2924,0.2095,-4.7458,10.5652,-43.432,,adl
5.573416,-0.9303,-0.2481,-0.6564,0.0478,-0.2924,0.2095,-4.7458,10.5652,-43.432,,adl
5.57553,-0.9303,-0.2481,-0.6564,0.0478,-0.2924,0.2095,-4.7458,10.5652,-43.432,,adl
5.577958,-0.9303,-0.2481,-0.6564,0.0478,-0.2924,0.2095,-4.7458,10.5652,-43.432,,adl
5.582404,-0.9303,-0.2481,-0.6564,0.0478,-0.2924,0.2095,-6.0512,10.553,-43.2124,,adl
5.590036,-0.9303,-0.2481,-0.6564,-0.0345,-0.3787,0.3598,-6.0512,10.553,-43.2124,,adl
5.599088,-0.0756,-0.1176,-0.2476,-0.0345,-0.3787,0.3598,-6.0512,10.553,-43.2124,,adl
5.636036,-0.0756,-0.1176,-0.2476,-0.0345,-0.3787,0.3598,-6.0512,10.553,-43.2124,,adl
5.639606,-0.0756,-0.1176,-0.2476,-0.0345,-0.3787,0.3598,-6.0512,10.553,-43.2124,,adl
5.642199,-0.0756,-0.1176,-0.2476,-0.0345,-0.3787,0.3598,-6.0512,10.553,-43.2124,,adl
5.644706,-0.0756,-0.1176,-0.2476,-0.0345,-0.3787,0.3598,-7.3322,10.5652,-43.005,,adl
5.660459,-0.0756,-0.1176,-0.2476,-0.1519,-0.4764,0.2402,-7.3322,10.5652,-43.005,,adl
5.669834,-0.5326,0.6668,0.1569,-0.1519,-0.4764,0.2402,-7.3322,10.5652,-43.005,,adl
5.700747,-0.5326,0.6668,0.1569,-0.1519,-0.4764,0.2402,-8.6254,10.6506,-42.7976,,adl
5.704392,-0.5326,0.6668,0.1569,-0.1519,-0.4764,0.2402,-8.6254,10.6506,-42.7976,,adl
5.707133,-0.5326,0.6668,0.1569,-0.1519,-0.4764,0.2402,-8.6254,10.6506,-42.7976,,adl
5.709646,-0.5326,0.6668,0.1569,-0.1519,-0.4764,0.2402,-8.6254,10.6506,-42.7976,,adl
5.730373,-0.5326,0.6668,0.1569,-0.1358,-0.5744,0.1115,-8.6254,10.6506,-42.7976,,adl
5.739796,-0.5034,0.582,0.2811,-0.1358,-0.5744,0.1115,-8.6254,10.6506,-42.7976,,adl
5.759585,-0.5034,0.582,0.2811,-0.1358,-0.5744,0.1115,-9.9186,10.8092,-42.5658,,adl
5.769316,-0.5034,0.582,0.2811,-0.1358,-0.5744,0.1115,-9.9186,10.8092,-42.5658,,adl
5.771555,-0.5034,0.582,0.2811,-0.1358,-0.5744,0.1115,-9.9186,10.8092,-42.5658,,adl
5.773684,-0.5034,0.582,0.2811,-0.1358,-0.5744,0.1115,-9.9186,10.8092,-42.5658,,adl
5.775424,-0.5034,0.582,0.2811,-0.1358,-0.5744,0.1115,-9.9186,10.8092,-42.5658,,adl
5.798472,-0.5034,0.582,0.2811,0.0595,-0.3778,-0.0529,-9.9186,10.8092,-42.5658,,adl
5.809011,-0.1719,0.034,0.5856,0.0595,-0.3778,-0.0529,-9.9186,10.8092,-42.5658,,adl
5.819058,-0.1719,0.034,0.5856,0.0595,-0.3778,-0.0529,-11.1142,11.0044,-42.273,,adl
5.835883,-0.1719,0.034,0.5856,0.0595,-0.3778,-0.0529,-11.1142,11.0044,-42.273,,adl
5.837548,-0.1719,0.034,0.5856,0.0595,-0.3778,-0.0529,-11.1142,11.0044,-42.273,,adl
5.838527,-0.1719,0.034,0.5856,0.0595,-0.3778,-0.0529,-11.1142,11.0044,-42.273,,adl
5.869609,-0.1719,0.034,0.5856,0.1694,-0.2049,-0.145,-11.1142,11.0044,-42.273,,adl
5.881546,-0.1719,0.034,0.5856,0.1694,-0.2049,-0.145,-12.1756,11.0898,-41.9192,,adl
5.885475,-0.2877,-0.0466,0.6192,0.1694,-0.2049,-0.145,-12.1756,11.0898,-41.9192,,adl
5.90254,-0.2877,-0.0466,0.6192,0.1694,-0.2049,-0.145,-12.1756,11.0898,-41.9192,,adl
5.905945,-0.2877,-0.0466,0.6192,0.1694,-0.2049,-0.145,-12.1756,11.0898,-41.9192,,adl
5.908487,-0.2877,-0.0466,0.6192,0.1694,-0.2049,-0.145,-12.1756,11.0898,-41.9192,,adl
5.93942,-0.2877,-0.0466,0.6192,0.0149,0.1328,0.053,-12.1756,11.0898,-41.9192,,adl
5.94218,-0.2877,-0.0466,0.6192,0.0149,0.1328,0.053,-13.0296,11.0776,-41.6264,,adl
5.952678,0.2265,0.01,0.9682,0.0149,0.1328,0.053,-13.0296,11.0776,-41.6264,,adl
5.969946,0.2265,0.01,0.9682,0.0149,0.1328,0.053,-13.0296,11.0776,-41.6264,,adl
5.97211,0.2265,0.01,0.9682,0.0149,0.1328,0.053,-13.0296,11.0776,-41.6264,,adl
5.97415,0.2265,0.01,0.9682,0.0149,0.1328,0.053,-13.0296,11.0776,-41.6264,,adl
5.97616,0.2265,0.01,0.9682,0.0149,0.1328,0.053,-13.0296,11.0776,-41.6264,,adl
5.999222,0.2265,0.01,0.9682,0.0149,0.1328,0.053,-13.7006,11.0654,-41.4068,,adl
6.008592,0.2265,0.01,0.9682,0.3032,0.0686,0.2672,-13.7006,11.0654,-41.4068,,adl
6.019034,-0.0511,-1.9503,-0.1096,0.3032,0.0686,0.2672,-13.7006,11.0654,-41.4068,,adl
6.036554,-0.0511,-1.9503,-0.1096,0.3032,0.0686,0.2672,-13.7006,11.0654,-41.4068,,adl
6.038887,-0.0511,-1.9503,-0.1096,0.3032,0.0686,0.2672,-13.7006,11.0654,-41.4068,,adl
6.040839,-0.0511,-1.9503,-0.1096,0.3032,0.0686,0.2672,-13.7006,11.0654,-41.4068,,adl
6.058825,-0.0511,-1.9503,-0.1096,0.3032,0.0686,0.2672,-14.2496,10.9434,-41.1994,,adl
6.079067,-0.0511,-1.9503,-0.1096,0.0316,0.2862,-0.1228,-14.2496,10.9434,-41.1994,,adl
6.088592,-0.3074,-0.4027,-1.0009,0.0316,0.2862,-0.1228,-14.2496,10.9434,-41.1994,,adl
6.102984,-0.3074,-0.4027,-1.0009,0.0316,0.2862,-0.1228,-14.2496,10.9434,-41.1994,,adl
6.105769,-0.3074,-0.4027,-1.0009,0.0316,0.2862,-0.1228,-14.2496,10.9434,-41.1994,,adl
6.107927,-0.3074,-0.4027,-1.0009,0.0316,0.2862,-0.1228,-14.2496,10.9434,-41.1994,,adl
6.118783,-0.3074,-0.4027,-1.0009,0.0316,0.2862,-0.1228,-14.5912,10.7726,-41.0408,,adl
6.147979,-0.3074,-0.4027,-1.0009,-0.0313,0.0001,-0.0601,-14.5912,10.7726,-41.0408,,adl
6.164948,-0.1704,1.6949,-1.0348,-0.0313,0.0001,-0.0601,-14.5912,10.7726,-41.0408,,adl
6.169929,-0.1704,1.6949,-1.0348,-0.0313,0.0001,-0.0601,-14.5912,10.7726,-41.0408,,adl
6.172925,-0.1704,1.6949,-1.0348,-0.0313,0.0001,-0.0601,-14.5912,10.7726,-41.0408,,adl
6.174723,-0.1704,1.6949,-1.0348,-0.0313,0.0001,-0.0601,-14.5912,10.7726,-41.0408,,adl
6.176342,-0.1704,1.6949,-1.0348,-0.0313,0.0001,-0.0601,-14.5912,10.7726,-41.0408,,adl
6.177903,-0.1704,1.6949,-1.0348,-0.0313,0.0001,-0.0601,-14.7742,10.5286,-40.9432,,adl
6.21852,-0.1704,1.6949,-1.0348,0.0808,-0.2441,-0.3244,-14.7742,10.5286,-40.9432,,adl
6.232171,0.4877,-1.1722,-1.0655,0.0808,-0.2441,-0.3244,-14.7742,10.5286,-40.9432,,adl
6.236019,0.4877,-1.1722,-1.0655,0.0808,-0.2441,-0.3244,-14.7742,10.5286,-40.9432,,adl
6.239084,0.4877,-1.1722,-1.0655,0.0808,-0.2441,-0.3244,-14.7742,10.5286,-40.9432,,adl
6.242004,0.4877,-1.1722,-1.0655,0.0808,-0.2441,-0.3244,-14.7742,10.5286,-40.9432,,adl
6.244732,0.4877,-1.1722,-1.0655,0.0808,-0.2441,-0.3244,-14.8962,10.1748,-40.9432,,adl
6.288596,0.4877,-1.1722,-1.0655,-0.0658,-0.4175,-0.3274,-14.8962,10.1748,-40.9432,,adl
6.299595,0.4877,-1.1722,-1.0655,-0.0658,-0.4175,-0.3274,-15.0426,9.76,-40.9676,,adl
6.304179,-0.4219,0.4871,-0.6025,-0.0658,-0.4175,-0.3274,-15.0426,9.76,-40.9676,,adl
6.306791,-0.4219,0.4871,-0.6025,-0.0658,-0.4175,-0.3274,-15.0426,9.76,-40.9676,,adl
6.308571,-0.4219,0.4871,-0.6025,-0.0658,-0.4175,-0.3274,-15.0426,9.76,-40.9676,,adl
6.310403,-0.4219,0.4871,-0.6025,-0.0658,-0.4175,-0.3274,-15.0426,9.76,-40.9676,,adl
6.35833,-0.4219,0.4871,-0.6025,-0.0658,-0.4175,-0.3274,-15.2378,9.394,-40.9188,,adl
6.362987,-0.4219,0.4871,-0.6025,-0.0664,-0.4659,-0.1522,-15.2378,9.394,-40.9188,,adl
6.367733,-0.306,0.5854,0.3565,-0.0664,-0.4659,-0.1522,-15.2378,9.394,-40.9188,,adl
6.369871,-0.306,0.5854,0.3565,-0.0664,-0.4659,-0.1522,-15.2378,9.394,-40.9188,,adl
6.371427,-0.306,0.5854,0.3565,-0.0664,-0.4659,-0.1522,-15.2378,9.394,-40.9188,,adl
6.373134,-0.306,0.5854,0.3565,-0.0664,-0.4659,-0.1522,-15.2378,9.394,-40.9188,,adl
6.37448,-0.306,0.5854,0.3565,-0.0664,-0.4659,-0.1522,-15.2378,9.394,-40.9188,,adl
6.416435,-0.306,0.5854,0.3565,-0.0664,-0.4659,-0.1522,-15.5672,9.1622,-40.7968,,adl
6.428885,-0.306,0.5854,0.3565,-0.269,-0.2846,0.0332,-15.5672,9.1622,-40.7968,,adl
6.435205,-0.306,0.5854,0.3565,-0.269,-0.2846,0.0332,-15.5672,9.1622,-40.7968,,adl
6.438137,-0.306,0.5854,0.3565,-0.269,-0.2846,0.0332,-15.5672,9.1622,-40.7968,,adl
6.440545,-0.306,0.5854,0.3565,-0.269,-0.2846,0.0332,-15.5672,9.1622,-40.7968,,adl
6.443511,0.6087,0.8812,0.3553,-0.269,-0.2846,0.0332,-15.5672,9.1622,-40.7968,,adl
6.476085,0.6087,0.8812,0.3553,-0.269,-0.2846,0.0332,-15.9576,8.9304,-40.5284,,adl
6.495852,0.6087,0.8812,0.3553,0.0249,-0.3993,0.0453,-15.9576,8.9304,-40.5284,,adl
6.502288,0.6087,0.8812,0.3553,0.0249,-0.3993,0.0453,-15.9576,8.9304,-40.5284,,adl
6.504683,0.6087,0.8812,0.3553,0.0249,-0.3993,0.0453,-15.9576,8.9304,-40.5284,,adl
6.506965,0.6087,0.8812,0.3553,0.0249,-0.3993,0.0453,-15.9576,8.9304,-40.5284,,adl
6.509181,0.513,0.0796,0.3829,0.0249,-0.3993,0.0453,-15.9576,8.9304,-40.5284,,adl
6.536036,0.513,0.0796,0.3829,0.0249,-0.3993,0.0453,-16.5676,8.8206,-40.2234,,adl
6.567062,0.513,0.0796,0.3829,0.0703,-0.5269,0.006,-16.5676,8.8206,-40.2234,,adl
6.570696,0.513,0.0796,0.3829,0.0703,-0.5269,0.006,-16.5676,8.8206,-40.2234,,adl
6.572819,0.513,0.0796,0.3829,0.0703,-0.5269,0.006,-16.5676,8.8206,-40.2234,,adl
6.575125,0.513,0.0796,0.3829,0.0703,-0.5269,0.006,-16.5676,8.8206,-40.2234,,adl
6.577316,0.513,0.0796,0.3829,0.0703,-0.5269,0.006,-16.5676,8.8206,-40.2234,,adl
6.579424,0.2705,-0.2265,0.6028,0.0703,-0.5269,0.006,-16.5676,8.8206,-40.2234,,adl
6.595529,0.2705,-0.2265,0.6028,0.0703,-0.5269,0.006,-17.4216,8.6864,-39.8086,,adl
6.636337,0.2705,-0.2265,0.6028,0.1013,-0.7585,0.0197,-17.4216,8.6864,-39.8086,,adl
6.640073,0.2705,-0.2265,0.6028,0.1013,-0.7585,0.0197,-17.4216,8.6864,-39.8086,,adl
6.642352,0.2705,-0.2265,0.6028,0.1013,-0.7585,0.0197,-17.4216,8.6864,-39.8086,,adl
6.644437,0.2705,-0.2265,0.6028,0.1013,-0.7585,0.0197,-17.4216,8.6864,-39.8086,,adl
6.646764,0.4353,0.1322,0.6925,0.1013,-0.7585,0.0197,-17.4216,8.6864,-39.8086,,adl
6.656093,0.4353,0.1322,0.6925,0.1013,-0.7585,0.0197,-18.4464,8.5156,-39.1986,,adl
6.703366,0.4353,0.1322,0.6925,0.1013,-0.7585,0.0197,-18.4464,8.5156,-39.1986,,adl
6.706453,0.4353,0.1322,0.6925,0.1013,-0.7585,0.0197,-18.4464,8.5156,-39.1986,,adl
6.708498,0.4353,0.1322,0.6925,0.1013,-0.7585,0.0197,-18.4464,8.5156,-39.1986,,adl
6.710691,0.4353,0.1322,0.6925,0.2124,-0.4694,-0.2645,-18.4464,8.5156,-39.1986,,adl
6.71895,0.2489,-1.5131,0.5033,0.2124,-0.4694,-0.2645,-18.4464,8.5156,-39.1986,,adl
6.720723,0.2489,-1.5131,0.5033,0.2124,-0.4694,-0.2645,-19.4956,8.2838,-38.4788,,adl
6.770145,0.2489,-1.5131,0.5033,0.2124,-0.4694,-0.2645,-19.4956,8.2838,-38.4788,,adl
6.773647,0.2489,-1.5131,0.5033,0.2124,-0.4694,-0.2645,-19.4956,8.2838,-38.4788,,adl
6.77693,0.2489,-1.5131,0.5033,0.2124,-0.4694,-0.2645,-19.4956,8.2838,-38.4788,,adl
6.779485,0.2489,-1.5131,0.5033,0.2124,-0.4694,-0.2645,-19.4956,8.2838,-38.4788,,adl
6.782254,0.2489,-1.5131,0.5033,0.2124,-0.4694,-0.2645,-20.6302,8.1008,-37.7834,,adl
6.785538,0.2489,-1.5131,0.5033,0.1415,-0.8505,0.1341,-20.6302,8.1008,-37.7834,,adl
6.787067,0.2421,-1.8124,-0.8033,0.1415,-0.8505,0.1341,-20.6302,8.1008,-37.7834,,adl
6.836303,0.2421,-1.8124,-0.8033,0.1415,-0.8505,0.1341,-21.9112,7.9422,-36.9782,,adl
6.838868,0.2421,-1.8124,-0.8033,0.1415,-0.8505,0.1341,-21.9112,7.9422,-36.9782,,adl
6.840229,0.2421,-1.8124,-0.8033,0.1415,-0.8505,0.1341,-21.9112,7.9422,-36.9782,,adl
6.841685,0.2421,-1.8124,-0.8033,0.1415,-0.8505,0.1341,-21.9112,7.9422,-36.9782,,adl
6.845723,0.2421,-1.8124,-0.8033,-0.0091,-1.0425,-0.0177,-21.9112,7.9422,-36.9782,,adl
6.855493,-1.0347,1.8745,-1.5876,-0.0091,-1.0425,-0.0177,-21.9112,7.9422,-36.9782,,adl
6.896401,-1.0347,1.8745,-1.5876,-0.0091,-1.0425,-0.0177,-23.2776,7.7592,-36.0388,,adl
6.901225,-1.0347,1.8745,-1.5876,-0.0091,-1.0425,-0.0177,-23.2776,7.7592,-36.0388,,adl
6.903656,-1.0347,1.8745,-1.5876,-0.0091,-1.0425,-0.0177,-23.2776,7.7592,-36.0388,,adl
6.906286,-1.0347,1.8745,-1.5876,-0.0091,-1.0425,-0.0177,-23.2776,7.7592,-36.0388,,adl
6.915552,-1.0347,1.8745,-1.5876,-0.0667,-0.3876,0.0678,-23.2776,7.7592,-36.0388,,adl
6.927417,-0.3751,0.5057,-0.542,-0.0667,-0.3876,0.0678,-23.2776,7.7592,-36.0388,,adl
6.955829,-0.3751,0.5057,-0.542,-0.0667,-0.3876,0.0678,-24.6684,7.564,-35.1238,,adl
6.969159,-0.3751,0.5057,-0.542,-0.0667,-0.3876,0.0678,-24.6684,7.564,-35.1238,,adl
6.970689,-0.3751,0.5057,-0.542,-0.0667,-0.3876,0.0678,-24.6684,7.564,-35.1238,,adl
6.971952,-0.3751,0.5057,-0.542,-0.0667,-0.3876,0.0678,-24.6684,7.564,-35.1238,,adl
6.973364,-0.3751,0.5057,-0.542,-0.0667,-0.3876,0.0678,-24.6684,7.564,-35.1238,,adl
6.98369,-0.3751,0.5057,-0.542,-0.0372,-0.2534,0.3068,-24.6684,7.564,-35.1238,,adl
6.994551,-0.0142,-0.5893,-0.2879,-0.0372,-0.2534,0.3068,-24.6684,7.564,-35.1238,,adl
7.015317,-0.0142,-0.5893,-0.2879,-0.0372,-0.2534,0.3068,-25.9372,7.4542,-34.1966,,adl
7.036639,-0.0142,-0.5893,-0.2879,-0.0372,-0.2534,0.3068,-25.9372,7.4542,-34.1966,,adl
7.039981,-0.0142,-0.5893,-0.2879,-0.0372,-0.2534,0.3068,-25.9372,7.4542,-34.1966,,adl
7.042813,-0.0142,-0.5893,-0.2879,-0.0372,-0.2534,0.3068,-25.9372,7.4542,-34.1966,,adl
7.054337,-0.0142,-0.5893,-0.2879,-0.1194,-0.4224,0.1983,-25.9372,7.4542,-34.1966,,adl
7.064757,-0.1663,0.7799,-0.0942,-0.1194,-0.4224,0.1983,-25.9372,7.4542,-34.1966,,adl
7.075368,-0.1663,0.7799,-0.0942,-0.1194,-0.4224,0.1983,-27.145,7.4908,-33.2572,,adl
7.101897,-0.1663,0.7799,-0.0942,-0.1194,-0.4224,0.1983,-27.145,7.4908,-33.2572,,adl
7.105533,-0.1663,0.7799,-0.0942,-0.1194,-0.4224,0.1983,-27.145,7.4908,-33.2572,,adl
7.107977,-0.1663,0.7799,-0.0942,-0.1194,-0.4224,0.1983,-27.145,7.4908,-33.2572,,adl
7.125565,-0.1663,0.7799,-0.0942,-0.1248,-0.4139,0.0867,-27.145,7.4908,-33.2572,,adl
7.13492,-0.1663,0.7799,-0.0942,-0.1248,-0.4139,0.0867,-28.2674,7.6006,-32.3788,,adl
7.138494,-0.7622,0.2826,0.518,-0.1248,-0.4139,0.0867,-28.2674,7.6006,-32.3788,,adl
7.169661,-0.7622,0.2826,0.518,-0.1248,-0.4139,0.0867,-28.2674,7.6006,-32.3788,,adl
7.1727,-0.7622,0.2826,0.518,-0.1248,-0.4139,0.0867,-28.2674,7.6006,-32.3788,,adl
7.175572,-0.7622,0.2826,0.518,-0.1248,-0.4139,0.0867,-28.2674,7.6006,-32.3788,,adl
7.17809,-0.7622,0.2826,0.518,-0.1248,-0.4139,0.0867,-28.2674,7.6006,-32.3788,,adl
7.195103,-0.7622,0.2826,0.518,-0.1248,-0.4139,0.0867,-29.3166,7.8202,-31.5614,,adl
7.19865,-0.7622,0.2826,0.518,0.0622,-0.3084,0.0146,-29.3166,7.8202,-31.5614,,adl
7.204803,0.1382,0.2775,0.5398,0.0622,-0.3084,0.0146,-29.3166,7.8202,-31.5614,,adl
7.235752,0.1382,0.2775,0.5398,0.0622,-0.3084,0.0146,-29.3166,7.8202,-31.5614,,adl
7.237753,0.1382,0.2775,0.5398,0.0622,-0.3084,0.0146,-29.3166,7.8202,-31.5614,,adl
7.238878,0.1382,0.2775,0.5398,0.0622,-0.3084,0.0146,-29.3166,7.8202,-31.5614,,adl
7.253213,0.1382,0.2775,0.5398,0.0622,-0.3084,0.0146,-30.2682,8.0642,-30.7074,,adl
7.265222,0.1382,0.2775,0.5398,0.0832,-0.0908,-0.0505,-30.2682,8.0642,-30.7074,,adl
7.272822,-0.1768,0.0533,0.5512,0.0832,-0.0908,-0.0505,-30.2682,8.0642,-30.7074,,adl
7.302145,-0.1768,0.0533,0.5512,0.0832,-0.0908,-0.0505,-30.2682,8.0642,-30.7074,,adl
7.305528,-0.1768,0.0533,0.5512,0.0832,-0.0908,-0.0505,-30.2682,8.0642,-30.7074,,adl
7.308091,-0.1768,0.0533,0.5512,0.0832,-0.0908,-0.0505,-30.2682,8.0642,-30.7074,,adl
7.313795,-0.1768,0.0533,0.5512,0.0832,-0.0908,-0.0505,-30.9026,8.2716,-30.0242,,adl
7.33387,-0.1768,0.0533,0.5512,0.023,0.2686,-0.0326,-30.9026,8.2716,-30.0242,,adl
7.347831,-0.0209,0.0391,0.6313,0.023,0.2686,-0.0326,-30.9026,8.2716,-30.0242,,adl
7.368842,-0.0209,0.0391,0.6313,0.023,0.2686,-0.0326,-30.9026,8.2716,-30.0242,,adl
7.372003,-0.0209,0.0391,0.6313,0.023,0.2686,-0.0326,-30.9026,8.2716,-30.0242,,adl
7.374832,-0.0209,0.0391,0.6313,0.023,0.2686,-0.0326,-30.9026,8.2716,-30.0242,,adl
7.376948,-0.0209,0.0391,0.6313,0.023,0.2686,-0.0326,-30.9026,8.2716,-30.0242,,adl
7.379997,-0.0209,0.0391,0.6313,0.023,0.2686,-0.0326,-31.2076,8.4668,-29.6826,,adl
7.404023,-0.0209,0.0391,0.6313,0.034,0.3844,0.1767,-31.2076,8.4668,-29.6826,,adl
7.414069,0.4534,-0.7275,1.4325,0.034,0.3844,0.1767,-31.2076,8.4668,-29.6826,,adl
7.433727,0.4534,-0.7275,1.4325,0.034,0.3844,0.1767,-31.4394,8.662,-29.4386,,adl
7.436608,0.4534,-0.7275,1.4325,0.034,0.3844,0.1767,-31.4394,8.662,-29.4386,,adl
7.438737,0.4534,-0.7275,1.4325,0.034,0.3844,0.1767,-31.4394,8.662,-29.4386,,adl
7.440448,0.4534,-0.7275,1.4325,0.034,0.3844,0.1767,-31.4394,8.662,-29.4386,,adl
7.474233,0.4534,-0.7275,1.4325,0.0874,0.1463,0.022,-31.4394,8.662,-29.4386,,adl
7.483857,-1.3854,-2.137,-0.3937,0.0874,0.1463,0.022,-31.4394,8.662,-29.4386,,adl
7.493776,-1.3854,-2.137,-0.3937,0.0874,0.1463,0.022,-31.6102,8.7474,-29.3654,,adl
7.502615,-1.3854,-2.137,-0.3937,0.0874,0.1463,0.022,-31.6102,8.7474,-29.3654,,adl
7.505423,-1.3854,-2.137,-0.3937,0.0874,0.1463,0.022,-31.6102,8.7474,-29.3654,,adl
7.506897,-1.3854,-2.137,-0.3937,0.0874,0.1463,0.022,-31.6102,8.7474,-29.3654,,adl
7.50831,-1.3854,-2.137,-0.3937,0.0874,0.1463,0.022,-31.6102,8.7474,-29.3654,,adl
7.544163,-1.3854,-2.137,-0.3937,-0.1081,0.3449,-0.1268,-31.6102,8.7474,-29.3654,,adl
7.561111,-0.1651,1.0743,-1.5554,-0.1081,0.3449,-0.1268,-31.6102,8.7474,-29.3654,,adl
7.564336,-0.1651,1.0743,-1.5554,-0.1081,0.3449,-0.1268,-31.6346,8.6986,-29.3776,,adl
7.568629,-0.1651,1.0743,-1.5554,-0.1081,0.3449,-0.1268,-31.6346,8.6986,-29.3776,,adl
7.570144,-0.1651,1.0743,-1.5554,-0.1081,0.3449,-0.1268,-31.6346,8.6986,-29.3776,,adl
7.571674,-0.1651,1.0743,-1.5554,-0.1081,0.3449,-0.1268,-31.6346,8.6986,-29.3776,,adl
7.613376,-0.1651,1.0743,-1.5554,-0.1081,0.3449,-0.1268,-31.5492,8.601,-29.5362,,adl
7.616218,-0.1651,1.0743,-1.5554,0.0905,0.1148,-0.045,-31.5492,8.601,-29.5362,,adl
7.625852,0.8423,0.7213,-1.2574,0.0905,0.1148,-0.045,-31.5492,8.601,-29.5362,,adl
7.634789,0.8423,0.7213,-1.2574,0.0905,0.1148,-0.045,-31.5492,8.601,-29.5362,,adl
7.636494,0.8423,0.7213,-1.2574,0.0905,0.1148,-0.045,-31.5492,8.601,-29.5362,,adl
7.638015,0.8423,0.7213,-1.2574,0.0905,0.1148,-0.045,-31.5492,8.601,-29.5362,,adl
7.673596,0.8423,0.7213,-1.2574,0.0905,0.1148,-0.045,-31.3784,8.418,-29.7314,,adl
7.683011,0.8423,0.7213,-1.2574,0.0614,-0.0589,-0.3152,-31.3784,8.418,-29.7314,,adl
7.693551,0.4209,-0.6291,-0.7827,0.0614,-0.0589,-0.3152,-31.3784,8.418,-29.7314,,adl
7.703432,0.4209,-0.6291,-0.7827,0.0614,-0.0589,-0.3152,-31.3784,8.418,-29.7314,,adl
7.704791,0.4209,-0.6291,-0.7827,0.0614,-0.0589,-0.3152,-31.3784,8.418,-29.7314,,adl
7.705916,0.4209,-0.6291,-0.7827,0.0614,-0.0589,-0.3152,-31.3784,8.418,-29.7314,,adl
7.70681,0.4209,-0.6291,-0.7827,0.0614,-0.0589,-0.3152,-31.3784,8.418,-29.7314,,adl
7.733195,0.4209,-0.6291,-0.7827,0.0614,-0.0589,-0.3152,-31.1832,8.1496,-29.9144,,adl
7.75308,0.4209,-0.6291,-0.7827,-0.0735,-0.2546,-0.3061,-31.1832,8.1496,-29.9144,,adl
7.762858,-0.1829,0.5344,-0.1448,-0.0735,-0.2546,-0.3061,-31.1832,8.1496,-29.9144,,adl
7.773804,-0.1829,0.5344,-0.1448,-0.0735,-0.2546,-0.3061,-31.1832,8.1496,-29.9144,,adl
7.777415,-0.1829,0.5344,-0.1448,-0.0735,-0.2546,-0.3061,-31.1832,8.1496,-29.9144,,adl
7.780636,-0.1829,0.5344,-0.1448,-0.0735,-0.2546,-0.3061,-31.1832,8.1496,-29.9144,,adl
7.792708,-0.1829,0.5344,-0.1448,-0.0735,-0.2546,-0.3061,-31.0612,7.8568,-30.0364,,adl
7.822577,-0.1829,0.5344,-0.1448,-0.1309,-0.1747,-0.1646,-31.0612,7.8568,-30.0364,,adl
7.835919,0.5334,0.3719,0.3403,-0.1309,-0.1747,-0.1646,-31.0612,7.8568,-30.0364,,adl
7.840321,0.5334,0.3719,0.3403,-0.1309,-0.1747,-0.1646,-31.0612,7.8568,-30.0364,,adl
7.842706,0.5334,0.3719,0.3403,-0.1309,-0.1747,-0.1646,-31.0612,7.8568,-30.0364,,adl
7.844444,0.5334,0.3719,0.3403,-0.1309,-0.1747,-0.1646,-31.0612,7.8568,-30.0364,,adl
7.851722,0.5334,0.3719,0.3403,-0.1309,-0.1747,-0.1646,-31.0612,7.4786,-29.8534,,adl
7.893414,0.5334,0.3719,0.3403,-0.1908,0.098,-0.0023,-31.0612,7.4786,-29.8534,,adl
7.904374,0.5905,0.578,0.1887,-0.1908,0.098,-0.0023,-31.0612,7.4786,-29.8534,,adl
7.907307,0.5905,0.578,0.1887,-0.1908,0.098,-0.0023,-31.0612,7.4786,-29.8534,,adl
7.909349,0.5905,0.578,0.1887,-0.1908,0.098,-0.0023,-31.0612,7.4786,-29.8534,,adl
7.912183,0.5905,0.578,0.1887,-0.1908,0.098,-0.0023,-31.0612,7.4786,-29.8534,,adl
7.913845,0.5905,0.578,0.1887,-0.1908,0.098,-0.0023,-31.0612,7.4786,-29.8534,,adl
7.921607,0.5905,0.578,0.1887,-0.1908,0.098,-0.0023,-31.0612,7.1126,-29.6338,,adl
7.9627,0.5905,0.578,0.1887,-0.0671,0.1392,0.0847,-31.0612,7.1126,-29.6338,,adl
7.973177,0.5905,0.578,0.1887,-0.0671,0.1392,0.0847,-31.0612,7.1126,-29.6338,,adl
7.974707,0.5905,0.578,0.1887,-0.0671,0.1392,0.0847,-31.0612,7.1126,-29.6338,,adl
7.976253,0.5905,0.578,0.1887,-0.0671,0.1392,0.0847,-31.0612,7.1126,-29.6338,,adl
7.977933,0.5732,0.2198,0.0914,-0.0671,0.1392,0.0847,-31.0612,7.1126,-29.6338,,adl
7.980302,0.5732,0.2198,0.0914,-0.0671,0.1392,0.0847,-31.0368,6.8564,-29.4264,,adl
8.032188,0.5732,0.2198,0.0914,-0.0406,-0.2471,0.1353,-31.0368,6.8564,-29.4264,,adl
8.036921,0.5732,0.2198,0.0914,-0.0406,-0.2471,0.1353,-31.0368,6.8564,-29.4264,,adl
8.03952,0.5732,0.2198,0.0914,-0.0406,-0.2471,0.1353,-31.0368,6.8564,-29.4264,,adl
8.042327,0.5732,0.2198,0.0914,-0.0406,-0.2471,0.1353,-31.0368,6.8564,-29.4264,,adl
8.04526,0.5732,0.2198,0.0914,-0.0406,-0.2471,0.1353,-31.0978,6.71,-29.1702,,adl
8.046926,-0.0536,0.0045,0.7016,-0.0406,-0.2471,0.1353,-31.0978,6.71,-29.1702,,adl
8.102948,-0.0536,0.0045,0.7016,-0.0406,-0.2471,0.1353,-31.2686,6.6002,-28.7188,,adl
8.106886,-0.0536,0.0045,0.7016,-0.0406,-0.2471,0.1353,-31.2686,6.6002,-28.7188,,adl
8.109435,-0.0536,0.0045,0.7016,-0.0406,-0.2471,0.1353,-31.2686,6.6002,-28.7188,,adl
8.1125,-0.0536,0.0045,0.7016,-0.0406,-0.2471,0.1353,-31.2686,6.6002,-28.7188,,adl
8.115054,-0.0536,0.0045,0.7016,-0.0406,-0.2471,0.1353,-31.2686,6.6002,-28.7188,,adl
8.117657,-0.0536,0.0045,0.7016,-0.0112,-0.6567,0.1684,-31.2686,6.6002,-28.7188,,adl
8.119339,-0.2841,-0.0997,1.1612,-0.0112,-0.6567,0.1684,-31.2686,6.6002,-28.7188,,adl
8.161825,-0.2841,-0.0997,1.1612,-0.0112,-0.6567,0.1684,-31.537,6.588,-28.1088,,adl
8.168178,-0.2841,-0.0997,1.1612,-0.0112,-0.6567,0.1684,-31.537,6.588,-28.1088,,adl
8.169699,-0.2841,-0.0997,1.1612,-0.0112,-0.6567,0.1684,-31.537,6.588,-28.1088,,adl
8.170933,-0.2841,-0.0997,1.1612,-0.0112,-0.6567,0.1684,-31.537,6.588,-28.1088,,adl
8.172246,-0.2841,-0.0997,1.1612,-0.0309,-0.6995,-0.076,-31.537,6.588,-28.1088,,adl
8.181935,-0.2462,-0.0423,1.1666,-0.0309,-0.6995,-0.076,-31.537,6.588,-28.1088,,adl
8.221743,-0.2462,-0.0423,1.1666,-0.0309,-0.6995,-0.076,-31.8176,6.649,-27.3768,,adl
8.238044,-0.2462,-0.0423,1.1666,-0.0309,-0.6995,-0.076,-31.8176,6.649,-27.3768,,adl
8.24182,-0.2462,-0.0423,1.1666,-0.0309,-0.6995,-0.076,-31.8176,6.649,-27.3768,,adl
8.245566,-0.2462,-0.0423,1.1666,-0.0309,-0.6995,-0.076,-31.8176,6.649,-27.3768,,adl
8.248546,-0.2462,-0.0423,1.1666,0.1334,-0.5276,-0.0506,-31.8176,6.649,-27.3768,,adl
8.250888,1.1986,-2.3761,-1.323,0.1334,-0.5276,-0.0506,-31.8176,6.649,-27.3768,,adl
8.280833,1.1986,-2.3761,-1.323,0.1334,-0.5276,-0.0506,-32.1226,6.6734,-26.5594,,adl
8.302959,1.1986,-2.3761,-1.323,0.1334,-0.5276,-0.0506,-32.1226,6.6734,-26.5594,,adl
8.306275,1.1986,-2.3761,-1.323,0.1334,-0.5276,-0.0506,-32.1226,6.6734,-26.5594,,adl
8.309786,1.1986,-2.3761,-1.323,0.1334,-0.5276,-0.0506,-32.1226,6.6734,-26.5594,,adl
8.311354,1.1986,-2.3761,-1.323,0.1334,-0.5276,-0.0506,-32.1226,6.6734,-26.5594,,adl
8.312801,1.1986,-2.3761,-1.323,0.1368,-0.9614,0.1338,-32.1226,6.6734,-26.5594,,adl
8.320195,-0.7423,0.6111,-1.2593,0.1368,-0.9614,0.1338,-32.1226,6.6734,-26.5594,,adl
8.339071,-0.7423,0.6111,-1.2593,0.1368,-0.9614,0.1338,-32.5496,6.8076,-25.6078,,adl
8.368756,-0.7423,0.6111,-1.2593,0.1368,-0.9614,0.1338,-32.5496,6.8076,-25.6078,,adl
8.371643,-0.7423,0.6111,-1.2593,0.1368,-0.9614,0.1338,-32.5496,6.8076,-25.6078,,adl
8.373842,-0.7423,0.6111,-1.2593,0.1368,-0.9614,0.1338,-32.5496,6.8076,-25.6078,,adl
8.379337,-0.7423,0.6111,-1.2593,0.0181,-0.3164,-0.1088,-32.5496,6.8076,-25.6078,,adl
8.389194,0.3274,0.8463,-0.8892,0.0181,-0.3164,-0.1088,-32.5496,6.8076,-25.6078,,adl
8.400564,0.3274,0.8463,-0.8892,0.0181,-0.3164,-0.1088,-33.0254,6.8564,-24.5952,,adl
8.436472,0.3274,0.8463,-0.8892,0.0181,-0.3164,-0.1088,-33.0254,6.8564,-24.5952,,adl
8.44035,0.3274,0.8463,-0.8892,0.0181,-0.3164,-0.1088,-33.0254,6.8564,-24.5952,,adl
8.443742,0.3274,0.8463,-0.8892,0.0181,-0.3164,-0.1088,-33.0254,6.8564,-24.5952,,adl
8.450281,0.3274,0.8463,-0.8892,0.141,0.0233,0.1417,-33.0254,6.8564,-24.5952,,adl
8.462212,0.1711,-0.4558,-0.4321,0.141,0.0233,0.1417,-33.0254,6.8564,-24.5952,,adl
8.465281,0.1711,-0.4558,-0.4321,0.141,0.0233,0.1417,-33.5012,6.832,-23.4484,,adl
8.503583,0.1711,-0.4558,-0.4321,0.141,0.0233,0.1417,-33.5012,6.832,-23.4484,,adl
8.506117,0.1711,-0.4558,-0.4321,0.141,0.0233,0.1417,-33.5012,6.832,-23.4484,,adl
8.507798,0.1711,-0.4558,-0.4321,0.141,0.0233,0.1417,-33.5012,6.832,-23.4484,,adl
8.509543,0.1711,-0.4558,-0.4321,0.141,0.0233,0.1417,-33.5012,6.832,-23.4484,,adl
8.520189,0.1711,-0.4558,-0.4321,0.141,0.0233,0.1417,-33.9282,6.7466,-22.4114,,adl
8.523226,0.1711,-0.4558,-0.4321,0.0294,0.1192,0.1503,-33.9282,6.7466,-22.4114,,adl
8.531547,0.1966,0.3661,-0.2545,0.0294,0.1192,0.1503,-33.9282,6.7466,-22.4114,,adl
8.570349,0.1966,0.3661,-0.2545,0.0294,0.1192,0.1503,-33.9282,6.7466,-22.4114,,adl
8.572803,0.1966,0.3661,-0.2545,0.0294,0.1192,0.1503,-33.9282,6.7466,-22.4114,,adl
8.574668,0.1966,0.3661,-0.2545,0.0294,0.1192,0.1503,-33.9282,6.7466,-22.4114,,adl
8.580099,0.1966,0.3661,-0.2545,0.0294,0.1192,0.1503,-34.221,6.6856,-21.5208,,adl
8.589661,0.1966,0.3661,-0.2545,0.0301,0.0563,0.0859,-34.221,6.6856,-21.5208,,adl
8.599212,-0.4099,0.2848,0.1804,0.0301,0.0563,0.0859,-34.221,6.6856,-21.5208,,adl
8.636508,-0.4099,0.2848,0.1804,0.0301,0.0563,0.0859,-34.221,6.6856,-21.5208,,adl
8.639125,-0.4099,0.2848,0.1804,0.0301,0.0563,0.0859,-34.221,6.6856,-21.5208,,adl
8.640814,-0.4099,0.2848,0.1804,0.0301,0.0563,0.0859,-34.221,6.6856,-21.5208,,adl
8.642751,-0.4099,0.2848,0.1804,0.0301,0.0563,0.0859,-34.3796,6.6246,-20.8986,,adl
8.659867,-0.4099,0.2848,0.1804,-0.0277,0.0445,-0.0049,-34.3796,6.6246,-20.8986,,adl
8.669449,-0.4714,0.4722,0.4457,-0.0277,0.0445,-0.0049,-34.3796,6.6246,-20.8986,,adl
8.697724,-0.4714,0.4722,0.4457,-0.0277,0.0445,-0.0049,-34.4162,6.5758,-20.4716,,adl
8.70045,-0.4714,0.4722,0.4457,-0.0277,0.0445,-0.0049,-34.4162,6.5758,-20.4716,,adl
8.701992,-0.4714,0.4722,0.4457,-0.0277,0.0445,-0.0049,-34.4162,6.5758,-20.4716,,adl
8.703374,-0.4714,0.4722,0.4457,-0.0277,0.0445,-0.0049,-34.4162,6.5758,-20.4716,,adl
8.704721,-0.4714,0.4722,0.4457,-0.0277,0.0445,-0.0049,-34.4162,6.5758,-20.4716,,adl
8.729537,-0.4714,0.4722,0.4457,0.0614,0.032,-0.129,-34.4162,6.5758,-20.4716,,adl
8.742265,-0.1104,0.2607,0.6259,0.0614,0.032,-0.129,-34.4162,6.5758,-20.4716,,adl
8.758897,-0.1104,0.2607,0.6259,0.0614,0.032,-0.129,-34.343,6.5514,-20.252,,adl
8.769084,-0.1104,0.2607,0.6259,0.0614,0.032,-0.129,-34.343,6.5514,-20.252,,adl
8.769995,-0.1104,0.2607,0.6259,0.0614,0.032,-0.129,-34.343,6.5514,-20.252,,adl
8.770708,-0.1104,0.2607,0.6259,0.0614,0.032,-0.129,-34.343,6.5514,-20.252,,adl
8.799468,-0.1104,0.2607,0.6259,0.0495,0.0178,-0.1879,-34.343,6.5514,-20.252,,adl
8.808834,-0.6915,0.168,0.5797,0.0495,0.0178,-0.1879,-34.343,6.5514,-20.252,,adl
8.818979,-0.6915,0.168,0.5797,0.0495,0.0178,-0.1879,-34.1234,6.4416,-20.3008,,adl
8.83688,-0.6915,0.168,0.5797,0.0495,0.0178,-0.1879,-34.1234,6.4416,-20.3008,,adl
8.839462,-0.6915,0.168,0.5797,0.0495,0.0178,-0.1879,-34.1234,6.4416,-20.3008,,adl
8.841411,-0.6915,0.168,0.5797,0.0495,0.0178,-0.1879,-34.1234,6.4416,-20.3008,,adl
8.86894,-0.6915,0.168,0.5797,0.0559,0.478,-0.0013,-34.1234,6.4416,-20.3008,,adl
8.879099,-0.6915,0.168,0.5797,0.0559,0.478,-0.0013,-33.7696,6.3318,-20.5936,,adl
8.88197,0.2871,-0.3122,0.9357,0.0559,0.478,-0.0013,-33.7696,6.3318,-20.5936,,adl
8.902691,0.2871,-0.3122,0.9357,0.0559,0.478,-0.0013,-33.7696,6.3318,-20.5936,,adl
8.90541,0.2871,-0.3122,0.9357,0.0559,0.478,-0.0013,-33.7696,6.3318,-20.5936,,adl
8.907485,0.2871,-0.3122,0.9357,0.0559,0.478,-0.0013,-33.7696,6.3318,-20.5936,,adl
8.909727,0.2871,-0.3122,0.9357,0.0559,0.478,-0.0013,-33.7696,6.3318,-20.5936,,adl
8.938742,0.2871,-0.3122,0.9357,0.0581,0.3277,0.204,-33.7696,6.3318,-20.5936,,adl
8.941819,0.2871,-0.3122,0.9357,0.0581,0.3277,0.204,-33.3182,6.2952,-21.0572,,adl
8.955047,-0.0437,-0.7823,0.3067,0.0581,0.3277,0.204,-33.3182,6.2952,-21.0572,,adl
8.969378,-0.0437,-0.7823,0.3067,0.0581,0.3277,0.204,-33.3182,6.2952,-21.0572,,adl
8.970961,-0.0437,-0.7823,0.3067,0.0581,0.3277,0.204,-33.3182,6.2952,-21.0572,,adl
8.971864,-0.0437,-0.7823,0.3067,0.0581,0.3277,0.204,-33.3182,6.2952,-21.0572,,adl
8.997093,-0.0437,-0.7823,0.3067,0.0581,0.3277,0.204,-32.8424,6.222,-21.5696,,adl
9.008122,-0.0437,-0.7823,0.3067,0.2482,0.2116,-0.0993,-32.8424,6.222,-21.5696,,adl
9.021899,-0.2852,-1.133,-1.4478,0.2482,0.2116,-0.0993,-32.8424,6.222,-21.5696,,adl
9.036105,-0.2852,-1.133,-1.4478,0.2482,0.2116,-0.0993,-32.8424,6.222,-21.5696,,adl
9.037533,-0.2852,-1.133,-1.4478,0.2482,0.2116,-0.0993,-32.8424,6.222,-21.5696,,adl
9.0383,-0.2852,-1.133,-1.4478,0.2482,0.2116,-0.0993,-32.8424,6.222,-21.5696,,adl
9.058473,-0.2852,-1.133,-1.4478,0.2482,0.2116,-0.0993,-32.3788,6.0024,-22.1552,,adl
9.078124,-0.2852,-1.133,-1.4478,-0.149,0.0225,-0.1949,-32.3788,6.0024,-22.1552,,adl
9.087549,-0.5447,0.9033,-0.6345,-0.149,0.0225,-0.1949,-32.3788,6.0024,-22.1552,,adl
9.102622,-0.5447,0.9033,-0.6345,-0.149,0.0225,-0.1949,-32.3788,6.0024,-22.1552,,adl
9.105587,-0.5447,0.9033,-0.6345,-0.149,0.0225,-0.1949,-32.3788,6.0024,-22.1552,,adl
9.108013,-0.5447,0.9033,-0.6345,-0.149,0.0225,-0.1949,-32.3788,6.0024,-22.1552,,adl
9.110488,-0.5447,0.9033,-0.6345,-0.149,0.0225,-0.1949,-32.3788,6.0024,-22.1552,,adl
9.116422,-0.5447,0.9033,-0.6345,-0.149,0.0225,-0.1949,-31.9518,5.7706,-22.6676,,adl
9.1481,-0.5447,0.9033,-0.6345,-0.1254,-0.2201,-0.1501,-31.9518,5.7706,-22.6676,,adl
9.158112,0.2815,0.2666,-0.8837,-0.1254,-0.2201,-0.1501,-31.9518,5.7706,-22.6676,,adl
9.169448,0.2815,0.2666,-0.8837,-0.1254,-0.2201,-0.1501,-31.9518,5.7706,-22.6676,,adl
9.172542,0.2815,0.2666,-0.8837,-0.1254,-0.2201,-0.1501,-31.9518,5.7706,-22.6676,,adl
9.175407,0.2815,0.2666,-0.8837,-0.1254,-0.2201,-0.1501,-31.9518,5.7706,-22.6676,,adl
9.178408,0.2815,0.2666,-0.8837,-0.1254,-0.2201,-0.1501,-31.6102,5.5022,-23.1434,,adl
9.218136,0.2815,0.2666,-0.8837,-0.0262,-0.2694,-0.1953,-31.6102,5.5022,-23.1434,,adl
9.230029,0.286,0.032,-1.0211,-0.0262,-0.2694,-0.1953,-31.6102,5.5022,-23.1434,,adl
9.23719,0.286,0.032,-1.0211,-0.0262,-0.2694,-0.1953,-31.6102,5.5022,-23.1434,,adl
9.240498,0.286,0.032,-1.0211,-0.0262,-0.2694,-0.1953,-31.6102,5.5022,-23.1434,,adl
9.243738,0.286,0.032,-1.0211,-0.0262,-0.2694,-0.1953,-31.6102,5.5022,-23.1434,,adl
9.246182,0.286,0.032,-1.0211,-0.0262,-0.2694,-0.1953,-31.3174,5.246,-23.485,,adl
9.287756,0.286,0.032,-1.0211,0.0204,-0.5424,-0.1651,-31.3174,5.246,-23.485,,adl
9.301076,0.286,0.032,-1.0211,0.0204,-0.5424,-0.1651,-31.1344,4.9654,-23.7168,,adl
9.304614,0.0153,-0.0504,-0.5619,0.0204,-0.5424,-0.1651,-31.1344,4.9654,-23.7168,,adl
9.307288,0.0153,-0.0504,-0.5619,0.0204,-0.5424,-0.1651,-31.1344,4.9654,-23.7168,,adl
9.309698,0.0153,-0.0504,-0.5619,0.0204,-0.5424,-0.1651,-31.1344,4.9654,-23.7168,,adl
9.311899,0.0153,-0.0504,-0.5619,0.0204,-0.5424,-0.1651,-31.1344,4.9654,-23.7168,,adl
9.315103,0.0153,-0.0504,-0.5619,0.0204,-0.5424,-0.1651,-31.1344,4.9654,-23.7168,,adl
9.357604,0.0153,-0.0504,-0.5619,0.0574,-0.8619,-0.1012,-31.1344,4.9654,-23.7168,,adl
9.359582,0.0153,-0.0504,-0.5619,0.0574,-0.8619,-0.1012,-31.171,4.7336,-23.668,,adl
9.366393,-0.0437,0.1312,0.1736,0.0574,-0.8619,-0.1012,-31.171,4.7336,-23.668,,adl
9.368114,-0.0437,0.1312,0.1736,0.0574,-0.8619,-0.1012,-31.171,4.7336,-23.668,,adl
9.369478,-0.0437,0.1312,0.1736,0.0574,-0.8619,-0.1012,-31.171,4.7336,-23.668,,adl
9.370899,-0.0437,0.1312,0.1736,0.0574,-0.8619,-0.1012,-31.171,4.7336,-23.668,,adl
9.417342,-0.0437,0.1312,0.1736,0.0574,-0.8619,-0.1012,-31.4882,4.3798,-23.2776,,adl
9.427171,-0.0437,0.1312,0.1736,0.0414,-0.9651,-0.0776,-31.4882,4.3798,-23.2776,,adl
9.436806,0.1163,-0.022,0.283,0.0414,-0.9651,-0.0776,-31.4882,4.3798,-23.2776,,adl
9.440733,0.1163,-0.022,0.283,0.0414,-0.9651,-0.0776,-31.4882,4.3798,-23.2776,,adl
9.443356,0.1163,-0.022,0.283,0.0414,-0.9651,-0.0776,-31.4882,4.3798,-23.2776,,adl
9.446026,0.1163,-0.022,0.283,0.0414,-0.9651,-0.0776,-31.4882,4.3798,-23.2776,,adl
9.449029,0.1163,-0.022,0.283,0.0414,-0.9651,-0.0776,-31.4882,4.3798,-23.2776,,adl
9.476605,0.1163,-0.022,0.283,0.0414,-0.9651,-0.0776,-32.0738,4.0382,-22.5456,,adl
9.496894,0.1163,-0.022,0.283,0.0948,-1.1153,-0.0257,-32.0738,4.0382,-22.5456,,adl
9.501533,0.1163,-0.022,0.283,0.0948,-1.1153,-0.0257,-32.0738,4.0382,-22.5456,,adl
9.504193,0.1163,-0.022,0.283,0.0948,-1.1153,-0.0257,-32.0738,4.0382,-22.5456,,adl
9.507122,0.1163,-0.022,0.283,0.0948,-1.1153,-0.0257,-32.0738,4.0382,-22.5456,,adl
9.509506,0.4297,0.1255,0.1502,0.0948,-1.1153,-0.0257,-32.0738,4.0382,-22.5456,,adl
9.537315,0.4297,0.1255,0.1502,0.0948,-1.1153,-0.0257,-32.8058,3.7698,-21.4598,,adl
9.566363,0.4297,0.1255,0.1502,0.0925,-1.2441,0.0539,-32.8058,3.7698,-21.4598,,adl
9.569879,0.4297,0.1255,0.1502,0.0925,-1.2441,0.0539,-32.8058,3.7698,-21.4598,,adl
9.572105,0.4297,0.1255,0.1502,0.0925,-1.2441,0.0539,-32.8058,3.7698,-21.4598,,adl
9.574504,0.4297,0.1255,0.1502,0.0925,-1.2441,0.0539,-32.8058,3.7698,-21.4598,,adl
9.576697,0.2747,-0.084,0.205,0.0925,-1.2441,0.0539,-32.8058,3.7698,-21.4598,,adl
9.594793,0.2747,-0.084,0.205,0.0925,-1.2441,0.0539,-33.6964,3.5014,-19.9958,,adl
9.634828,0.2747,-0.084,0.205,0.0646,-1.2714,0.1503,-33.6964,3.5014,-19.9958,,adl
9.638142,0.2747,-0.084,0.205,0.0646,-1.2714,0.1503,-33.6964,3.5014,-19.9958,,adl
9.640626,0.2747,-0.084,0.205,0.0646,-1.2714,0.1503,-33.6964,3.5014,-19.9958,,adl
9.643026,0.2747,-0.084,0.205,0.0646,-1.2714,0.1503,-33.6964,3.5014,-19.9958,,adl
9.645328,0.2747,-0.084,0.205,0.0646,-1.2714,0.1503,-33.6964,3.5014,-19.9958,,adl
9.647419,0.5442,0.2434,-0.0376,0.0646,-1.2714,0.1503,-33.6964,3.5014,-19.9958,,adl
9.655699,0.5442,0.2434,-0.0376,0.0646,-1.2714,0.1503,-34.709,3.294,-18.178,,adl
9.704052,0.5442,0.2434,-0.0376,0.0646,-1.2714,0.1503,-34.709,3.294,-18.178,,adl
9.707147,0.5442,0.2434,-0.0376,0.0646,-1.2714,0.1503,-34.709,3.294,-18.178,,adl
9.709308,0.5442,0.2434,-0.0376,0.0646,-1.2714,0.1503,-34.709,3.294,-18.178,,adl
9.711384,0.5442,0.2434,-0.0376,-0.0292,-1.2954,0.3244,-34.709,3.294,-18.178,,adl
9.720897,0.5442,0.2434,-0.0376,-0.0292,-1.2954,0.3244,-35.7216,3.1842,-16.0674,,adl
9.723185,0.6653,0.2627,0.0352,-0.0292,-1.2954,0.3244,-35.7216,3.1842,-16.0674,,adl
9.770418,0.6653,0.2627,0.0352,-0.0292,-1.2954,0.3244,-35.7216,3.1842,-16.0674,,adl
9.773826,0.6653,0.2627,0.0352,-0.0292,-1.2954,0.3244,-35.7216,3.1842,-16.0674,,adl
9.776946,0.6653,0.2627,0.0352,-0.0292,-1.2954,0.3244,-35.7216,3.1842,-16.0674,,adl
9.779547,0.6653,0.2627,0.0352,-0.0292,-1.2954,0.3244,-36.7098,3.2818,-13.7372,,adl
9.782633,0.6653,0.2627,0.0352,-0.0676,-1.2611,0.3545,-36.7098,3.2818,-13.7372,,adl
9.785794,0.743,0.1932,-0.0994,-0.0676,-1.2611,0.3545,-36.7098,3.2818,-13.7372,,adl
9.836548,0.743,0.1932,-0.0994,-0.0676,-1.2611,0.3545,-37.6492,3.477,-11.0898,,adl
9.839666,0.743,0.1932,-0.0994,-0.0676,-1.2611,0.3545,-37.6492,3.477,-11.0898,,adl
9.842047,0.743,0.1932,-0.0994,-0.0676,-1.2611,0.3545,-37.6492,3.477,-11.0898,,adl
9.84386,0.743,0.1932,-0.0994,-0.0676,-1.2611,0.3545,-37.6492,3.477,-11.0898,,adl
9.84593,0.743,0.1932,-0.0994,-0.0676,-1.2611,0.3545,-37.6492,3.477,-11.0898,,adl
9.847776,0.743,0.1932,-0.0994,0.0948,-1.7525,0.2055,-37.6492,3.477,-11.0898,,adl
9.854969,0.5911,-0.3864,-0.19,0.0948,-1.7525,0.2055,-37.6492,3.477,-11.0898,,adl
9.895831,0.5911,-0.3864,-0.19,0.0948,-1.7525,0.2055,-38.3934,3.6966,-8.1374,,adl
9.901273,0.5911,-0.3864,-0.19,0.0948,-1.7525,0.2055,-38.3934,3.6966,-8.1374,,adl
9.90345,0.5911,-0.3864,-0.19,0.0948,-1.7525,0.2055,-38.3934,3.6966,-8.1374,,adl
9.905709,0.5911,-0.3864,-0.19,0.0948,-1.7525,0.2055,-38.3934,3.6966,-8.1374,,adl
9.915218,0.5911,-0.3864,-0.19,-0.2072,-1.4811,0.0055,-38.3934,3.6966,-8.1374,,adl
9.926181,-0.5646,-0.5266,-0.3249,-0.2072,-1.4811,0.0055,-38.3934,3.6966,-8.1374,,adl
9.956318,-0.5646,-0.5266,-0.3249,-0.2072,-1.4811,0.0055,-38.9058,3.9406,-4.9776,,adl
9.969276,-0.5646,-0.5266,-0.3249,-0.2072,-1.4811,0.0055,-38.9058,3.9406,-4.9776,,adl
9.970719,-0.5646,-0.5266,-0.3249,-0.2072,-1.4811,0.0055,-38.9058,3.9406,-4.9776,,adl
9.971928,-0.5646,-0.5266,-0.3249,-0.2072,-1.4811,0.0055,-38.9058,3.9406,-4.9776,,adl
9.983202,-0.5646,-0.5266,-0.3249,-0.1487,-1.5312,0.1659,-38.9058,3.9406,-4.9776,,adl
9.993791,1.0322,0.5373,-0.3862,-0.1487,-1.5312,0.1659,-38.9058,3.9406,-4.9776,,adl
10.014935,1.0322,0.5373,-0.3862,-0.1487,-1.5312,0.1659,-39.1864,4.2212,-1.647,,adl
10.036581,1.0322,0.5373,-0.3862,-0.1487,-1.5312,0.1659,-39.1864,4.2212,-1.647,,adl
10.040856,1.0322,0.5373,-0.3862,-0.1487,-1.5312,0.1659,-39.1864,4.2212,-1.647,,adl
10.043932,1.0322,0.5373,-0.3862,-0.1487,-1.5312,0.1659,-39.1864,4.2212,-1.647,,adl
10.046552,1.0322,0.5373,-0.3862,-0.1487,-1.5312,0.1659,-39.1864,4.2212,-1.647,,adl
10.055316,1.0322,0.5373,-0.3862,-0.227,-1.39,0.1623,-39.1864,4.2212,-1.647,,adl
10.064627,-0.6909,-0.0338,0.1449,-0.227,-1.39,0.1623,-39.1864,4.2212,-1.647,,adl
10.074828,-0.6909,-0.0338,0.1449,-0.227,-1.39,0.1623,-39.2108,4.4896,1.6592,,adl
10.103637,-0.6909,-0.0338,0.1449,-0.227,-1.39,0.1623,-39.2108,4.4896,1.6592,,adl
10.107165,-0.6909,-0.0338,0.1449,-0.227,-1.39,0.1623,-39.2108,4.4896,1.6592,,adl
10.109906,-0.6909,-0.0338,0.1449,-0.227,-1.39,0.1623,-39.2108,4.4896,1.6592,,adl
10.124806,-0.6909,-0.0338,0.1449,-0.1338,-1.4259,0.0827,-39.2108,4.4896,1.6592,,adl
10.134348,-0.6909,-0.0338,0.1449,-0.1338,-1.4259,0.0827,-38.9058,4.7824,5.002,,adl
10.137664,-0.474,0.0735,0.3485,-0.1338,-1.4259,0.0827,-38.9058,4.7824,5.002,,adl
10.169799,-0.474,0.0735,0.3485,-0.1338,-1.4259,0.0827,-38.9058,4.7824,5.002,,adl
10.172935,-0.474,0.0735,0.3485,-0.1338,-1.4259,0.0827,-38.9058,4.7824,5.002,,adl
10.175646,-0.474,0.0735,0.3485,-0.1338,-1.4259,0.0827,-38.9058,4.7824,5.002,,adl
10.194448,-0.474,0.0735,0.3485,-0.0815,-1.3309,-0.0627,-38.9058,4.7824,5.002,,adl
10.198394,-0.474,0.0735,0.3485,-0.0815,-1.3309,-0.0627,-38.3568,4.941,8.3204,,adl
10.206966,-0.7801,0.0195,0.5343,-0.0815,-1.3309,-0.0627,-38.3568,4.941,8.3204,,adl
10.236062,-0.7801,0.0195,0.5343,-0.0815,-1.3309,-0.0627,-38.3568,4.941,8.3204,,adl
10.238667,-0.7801,0.0195,0.5343,-0.0815,-1.3309,-0.0627,-38.3568,4.941,8.3204,,adl
10.240299,-0.7801,0.0195,0.5343,-0.0815,-1.3309,-0.0627,-38.3568,4.941,8.3204,,adl
10.242443,-0.7801,0.0195,0.5343,-0.0815,-1.3309,-0.0627,-38.3568,4.941,8.3204,,adl
10.255202,-0.7801,0.0195,0.5343,-0.0815,-1.3309,-0.0627,-37.5638,4.9654,11.5778,,adl
10.263303,-0.7801,0.0195,0.5343,0.0256,-1.1132,-0.0943,-37.5638,4.9654,11.5778,,adl
10.272733,-0.1525,-0.2758,0.5441,0.0256,-1.1132,-0.0943,-37.5638,4.9654,11.5778,,adl
10.303614,-0.1525,-0.2758,0.5441,0.0256,-1.1132,-0.0943,-37.5638,4.9654,11.5778,,adl
10.30721,-0.1525,-0.2758,0.5441,0.0256,-1.1132,-0.0943,-37.5638,4.9654,11.5778,,adl
10.310184,-0.1525,-0.2758,0.5441,0.0256,-1.1132,-0.0943,-37.5638,4.9654,11.5778,,adl
10.3147,-0.1525,-0.2758,0.5441,0.0256,-1.1132,-0.0943,-36.5268,4.8922,14.7498,,adl
10.332047,-0.1525,-0.2758,0.5441,0.1023,-1.1051,-0.0787,-36.5268,4.8922,14.7498,,adl
10.342115,-0.2119,-0.01,0.399,0.1023,-1.1051,-0.0787,-36.5268,4.8922,14.7498,,adl
10.369581,-0.2119,-0.01,0.399,0.1023,-1.1051,-0.0787,-36.5268,4.8922,14.7498,,adl
10.372597,-0.2119,-0.01,0.399,0.1023,-1.1051,-0.0787,-36.5268,4.8922,14.7498,,adl
10.375227,-0.2119,-0.01,0.399,0.1023,-1.1051,-0.0787,-36.5268,4.8922,14.7498,,adl
10.378073,-0.2119,-0.01,0.399,0.1023,-1.1051,-0.0787,-35.2946,4.8068,17.6534,,adl
10.403367,-0.2119,-0.01,0.399,0.1005,-1.2021,-0.1454,-35.2946,4.8068,17.6534,,adl
10.413489,-0.5343,0.1976,0.272,0.1005,-1.2021,-0.1454,-35.2946,4.8068,17.6534,,adl
10.433322,-0.5343,0.1976,0.272,0.1005,-1.2021,-0.1454,-33.8916,4.6848,20.3496,,adl
10.437137,-0.5343,0.1976,0.272,0.1005,-1.2021,-0.1454,-33.8916,4.6848,20.3496,,adl
10.439888,-0.5343,0.1976,0.272,0.1005,-1.2021,-0.1454,-33.8916,4.6848,20.3496,,adl
10.443432,-0.5343,0.1976,0.272,0.1005,-1.2021,-0.1454,-33.8916,4.6848,20.3496,,adl
10.445659,-0.5343,0.1976,0.272,0.1005,-1.2021,-0.1454,-33.8916,4.6848,20.3496,,adl
10.473446,-0.5343,0.1976,0.272,-0.0008,-1.2563,-0.137,-33.8916,4.6848,20.3496,,adl
10.484664,-0.8685,0.1375,0.0465,-0.0008,-1.2563,-0.137,-33.8916,4.6848,20.3496,,adl
10.493181,-0.8685,0.1375,0.0465,-0.0008,-1.2563,-0.137,-32.2202,4.5262,22.814,,adl
10.502504,-0.8685,0.1375,0.0465,-0.0008,-1.2563,-0.137,-32.2202,4.5262,22.814,,adl
10.503972,-0.8685,0.1375,0.0465,-0.0008,-1.2563,-0.137,-32.2202,4.5262,22.814,,adl
10.505191,-0.8685,0.1375,0.0465,-0.0008,-1.2563,-0.137,-32.2202,4.5262,22.814,,adl
10.543381,-0.8685,0.1375,0.0465,0.1218,-0.7981,-0.2204,-32.2202,4.5262,22.814,,adl
10.553337,-0.6435,-0.3569,-0.3791,0.1218,-0.7981,-0.2204,-32.2202,4.5262,22.814,,adl
10.557147,-0.6435,-0.3569,-0.3791,0.1218,-0.7981,-0.2204,-30.4878,4.3676,25.1076,,adl
10.569234,-0.6435,-0.3569,-0.3791,0.1218,-0.7981,-0.2204,-30.4878,4.3676,25.1076,,adl
10.570954,-0.6435,-0.3569,-0.3791,0.1218,-0.7981,-0.2204,-30.4878,4.3676,25.1076,,adl
10.5725,-0.6435,-0.3569,-0.3791,0.1218,-0.7981,-0.2204,-30.4878,4.3676,25.1076,,adl
10.613511,-0.6435,-0.3569,-0.3791,0.1727,-0.4249,-0.1891,-30.4878,4.3676,25.1076,,adl
10.615732,-0.6435,-0.3569,-0.3791,0.1727,-0.4249,-0.1891,-28.8042,4.209,27.084,,adl
10.624759,0.5807,-0.0037,0.2135,0.1727,-0.4249,-0.1891,-28.8042,4.209,27.084,,adl
10.637406,0.5807,-0.0037,0.2135,0.1727,-0.4249,-0.1891,-28.8042,4.209,27.084,,adl
10.638711,0.5807,-0.0037,0.2135,0.1727,-0.4249,-0.1891,-28.8042,4.209,27.084,,adl
10.639602,0.5807,-0.0037,0.2135,0.1727,-0.4249,-0.1891,-28.8042,4.209,27.084,,adl
10.640485,0.5807,-0.0037,0.2135,0.1727,-0.4249,-0.1891,-28.8042,4.209,27.084,,adl
10.673766,0.5807,-0.0037,0.2135,0.1727,-0.4249,-0.1891,-27.1816,4.1114,28.7798,,adl
10.682402,0.5807,-0.0037,0.2135,0.073,-0.357,-0.2115,-27.1816,4.1114,28.7798,,adl
10.692636,-0.0624,-0.0014,-0.0291,0.073,-0.357,-0.2115,-27.1816,4.1114,28.7798,,adl
10.703134,-0.0624,-0.0014,-0.0291,0.073,-0.357,-0.2115,-27.1816,4.1114,28.7798,,adl
10.706586,-0.0624,-0.0014,-0.0291,0.073,-0.357,-0.2115,-27.1816,4.1114,28.7798,,adl
10.709974,-0.0624,-0.0014,-0.0291,0.073,-0.357,-0.2115,-27.1816,4.1114,28.7798,,adl
10.733275,-0.0624,-0.0014,-0.0291,0.073,-0.357,-0.2115,-25.6078,3.9772,30.3658,,adl
10.752935,-0.0624,-0.0014,-0.0291,0.0252,-0.6132,-0.1426,-25.6078,3.9772,30.3658,,adl
10.762426,-0.1494,0.2976,-0.1879,0.0252,-0.6132,-0.1426,-25.6078,3.9772,30.3658,,adl
10.769687,-0.1494,0.2976,-0.1879,0.0252,-0.6132,-0.1426,-25.6078,3.9772,30.3658,,adl
10.773195,-0.1494,0.2976,-0.1879,0.0252,-0.6132,-0.1426,-25.6078,3.9772,30.3658,,adl
10.775973,-0.1494,0.2976,-0.1879,0.0252,-0.6132,-0.1426,-25.6078,3.9772,30.3658,,adl
10.802204,-0.1494,0.2976,-0.1879,0.0252,-0.6132,-0.1426,-24.0706,3.7942,31.6956,,adl
10.822246,-0.1494,0.2976,-0.1879,0.0009,-0.8441,-0.1642,-24.0706,3.7942,31.6956,,adl
10.831714,-0.1421,0.2859,-0.3631,0.0009,-0.8441,-0.1642,-24.0706,3.7942,31.6956,,adl
10.835616,-0.1421,0.2859,-0.3631,0.0009,-0.8441,-0.1642,-24.0706,3.7942,31.6956,,adl
10.838507,-0.1421,0.2859,-0.3631,0.0009,-0.8441,-0.1642,-24.0706,3.7942,31.6956,,adl
10.840938,-0.1421,0.2859,-0.3631,0.0009,-0.8441,-0.1642,-24.0706,3.7942,31.6956,,adl
10.842569,-0.1421,0.2859,-0.3631,0.0009,-0.8441,-0.1642,-24.0706,3.7942,31.6956,,adl
10.86172,-0.1421,0.2859,-0.3631,0.0009,-0.8441,-0.1642,-22.448,3.6966,32.8058,,adl
10.891582,-0.1421,0.2859,-0.3631,-0.0208,-1.2984,-0.2008,-22.448,3.6966,32.8058,,adl
10.900667,0.7481,-0.4082,-0.3439,-0.0208,-1.2984,-0.2008,-22.448,3.6966,32.8058,,adl
10.904307,0.7481,-0.4082,-0.3439,-0.0208,-1.2984,-0.2008,-22.448,3.6966,32.8058,,adl
10.907135,0.7481,-0.4082,-0.3439,-0.0208,-1.2984,-0.2008,-22.448,3.6966,32.8058,,adl
10.910021,0.7481,-0.4082,-0.3439,-0.0208,-1.2984,-0.2008,-22.448,3.6966,32.8058,,adl
10.919814,0.7481,-0.4082,-0.3439,-0.0208,-1.2984,-0.2008,-20.74,3.5624,33.855,,adl
10.962278,0.7481,-0.4082,-0.3439,0.0475,-1.4994,-0.2104,-20.74,3.5624,33.855,,adl
10.968036,0.7481,-0.4082,-0.3439,0.0475,-1.4994,-0.2104,-20.74,3.5624,33.855,,adl
10.970665,0.7481,-0.4082,-0.3439,0.0475,-1.4994,-0.2104,-20.74,3.5624,33.855,,adl
10.973443,0.7481,-0.4082,-0.3439,0.0475,-1.4994,-0.2104,-20.74,3.5624,33.855,,adl
10.975571,0.443,-0.0825,-0.3747,0.0475,-1.4994,-0.2104,-20.74,3.5624,33.855,,adl
10.984043,0.443,-0.0825,-0.3747,0.0475,-1.4994,-0.2104,-18.9588,3.477,34.7822,,adl
11.031808,0.443,-0.0825,-0.3747,0.0672,-1.4117,-0.1696,-18.9588,3.477,34.7822,,adl
11.035321,0.443,-0.0825,-0.3747,0.0672,-1.4117,-0.1696,-18.9588,3.477,34.7822,,adl
11.037903,0.443,-0.0825,-0.3747,0.0672,-1.4117,-0.1696,-18.9588,3.477,34.7822,,adl
11.040411,0.443,-0.0825,-0.3747,0.0672,-1.4117,-0.1696,-18.9588,3.477,34.7822,,adl
11.043325,0.443,-0.0825,-0.3747,0.0672,-1.4117,-0.1696,-18.9588,3.477,34.7822,,adl
11.046518,0.443,-0.0825,-0.3747,0.0672,-1.4117,-0.1696,-16.9214,3.416,35.6362,,adl
11.048318,0.4457,0.014,-0.6193,0.0672,-1.4117,-0.1696,-16.9214,3.416,35.6362,,adl
11.102218,0.4457,0.014,-0.6193,0.0672,-1.4117,-0.1696,-16.9214,3.416,35.6362,,adl
11.104583,0.4457,0.014,-0.6193,0.0672,-1.4117,-0.1696,-16.9214,3.416,35.6362,,adl
11.107204,0.4457,0.014,-0.6193,0.0672,-1.4117,-0.1696,-16.9214,3.416,35.6362,,adl
11.109732,0.4457,0.014,-0.6193,0.0822,-1.3625,-0.0886,-16.9214,3.416,35.6362,,adl
11.112597,0.4457,0.014,-0.6193,0.0822,-1.3625,-0.0886,-14.5668,3.3306,36.4536,,adl
11.115712,0.9271,0.0751,-0.5182,0.0822,-1.3625,-0.0886,-14.5668,3.3306,36.4536,,adl
11.161293,0.9271,0.0751,-0.5182,0.0822,-1.3625,-0.0886,-11.956,3.2574,37.1734,,adl
11.168751,0.9271,0.0751,-0.5182,0.1671,-1.3858,-0.0298,-11.956,3.2574,37.1734,,adl
11.171478,0.9271,0.0751,-0.5182,0.1671,-1.3858,-0.0298,-11.956,3.2574,37.1734,,adl
11.173825,0.9271,0.0751,-0.5182,0.1671,-1.3858,-0.0298,-11.956,3.2574,37.1734,,adl
11.175917,0.9271,0.0751,-0.5182,0.1671,-1.3858,-0.0298,-11.956,3.2574,37.1734,,adl
11.177807,0.9271,0.0751,-0.5182,0.1671,-1.3858,-0.0298,-11.956,3.2574,37.1734,,adl
11.180213,0.4396,-0.1421,-0.3171,0.1671,-1.3858,-0.0298,-11.956,3.2574,37.1734,,adl
11.221122,0.4396,-0.1421,-0.3171,0.1671,-1.3858,-0.0298,-8.9792,3.3306,37.7102,,adl
11.236475,0.4396,-0.1421,-0.3171,0.1671,-1.3858,-0.0298,-8.9792,3.3306,37.7102,,adl
11.239538,0.4396,-0.1421,-0.3171,0.1671,-1.3858,-0.0298,-8.9792,3.3306,37.7102,,adl
11.24209,0.4396,-0.1421,-0.3171,0.1671,-1.3858,-0.0298,-8.9792,3.3306,37.7102,,adl
11.244582,0.4396,-0.1421,-0.3171,0.1417,-1.4745,-0.0313,-8.9792,3.3306,37.7102,,adl
11.251578,0.2764,-0.1924,0.0446,0.1417,-1.4745,-0.0313,-8.9792,3.3306,37.7102,,adl
11.280485,0.2764,-0.1924,0.0446,0.1417,-1.4745,-0.0313,-5.795,3.4526,38.1128,,adl
11.303087,0.2764,-0.1924,0.0446,0.1417,-1.4745,-0.0313,-5.795,3.4526,38.1128,,adl
11.3064,0.2764,-0.1924,0.0446,0.1417,-1.4745,-0.0313,-5.795,3.4526,38.1128,,adl
11.308903,0.2764,-0.1924,0.0446,0.1417,-1.4745,-0.0313,-5.795,3.4526,38.1128,,adl
11.312228,0.2764,-0.1924,0.0446,0.1125,-1.4057,0.0076,-5.795,3.4526,38.1128,,adl
11.321844,0.3855,0.1319,-0.0068,0.1125,-1.4057,0.0076,-5.795,3.4526,38.1128,,adl
11.338464,0.3855,0.1319,-0.0068,0.1125,-1.4057,0.0076,-2.44,3.538,38.3446,,adl
11.369885,0.3855,0.1319,-0.0068,0.1125,-1.4057,0.0076,-2.44,3.538,38.3446,,adl
11.372722,0.3855,0.1319,-0.0068,0.1125,-1.4057,0.0076,-2.44,3.538,38.3446,,adl
11.375008,0.3855,0.1319,-0.0068,0.1125,-1.4057,0.0076,-2.44,3.538,38.3446,,adl
11.377253,0.3855,0.1319,-0.0068,0.1125,-1.4057,0.0076,-2.44,3.538,38.3446,,adl
11.380203,0.3855,0.1319,-0.0068,0.0642,-1.2317,0.0549,-2.44,3.538,38.3446,,adl
11.389377,0.3798,0.4837,0.0955,0.0642,-1.2317,0.0549,-2.44,3.538,38.3446,,adl
11.399636,0.3798,0.4837,0.0955,0.0642,-1.2317,0.0549,0.976,3.6966,38.369,,adl
11.436609,0.3798,0.4837,0.0955,0.0642,-1.2317,0.0549,0.976,3.6966,38.369,,adl
11.439413,0.3798,0.4837,0.0955,0.0642,-1.2317,0.0549,0.976,3.6966,38.369,,adl
11.44166,0.3798,0.4837,0.0955,0.0642,-1.2317,0.0549,0.976,3.6966,38.369,,adl
11.450034,0.3798,0.4837,0.0955,0.0804,-1.169,0.1734,0.976,3.6966,38.369,,adl
11.46121,0.3798,0.4837,0.0955,0.0804,-1.169,0.1734,4.2944,3.904,38.1128,,adl
11.46424,0.396,0.1617,0.078,0.0804,-1.169,0.1734,4.2944,3.904,38.1128,,adl
11.503372,0.396,0.1617,0.078,0.0804,-1.169,0.1734,4.2944,3.904,38.1128,,adl
11.50627,0.396,0.1617,0.078,0.0804,-1.169,0.1734,4.2944,3.904,38.1128,,adl
11.508304,0.396,0.1617,0.078,0.0804,-1.169,0.1734,4.2944,3.904,38.1128,,adl
11.519806,0.396,0.1617,0.078,0.0804,-1.169,0.1734,7.5152,4.0504,37.637,,adl
11.523502,0.396,0.1617,0.078,0.0884,-1.128,0.2875,7.5152,4.0504,37.637,,adl
11.52949,0.2436,-0.0922,0.1599,0.0884,-1.128,0.2875,7.5152,4.0504,37.637,,adl
11.569929,0.2436,-0.0922,0.1599,0.0884,-1.128,0.2875,7.5152,4.0504,37.637,,adl
11.572781,0.2436,-0.0922,0.1599,0.0884,-1.128,0.2875,7.5152,4.0504,37.637,,adl
11.575025,0.2436,-0.0922,0.1599,0.0884,-1.128,0.2875,7.5152,4.0504,37.637,,adl
11.577726,0.2436,-0.0922,0.1599,0.0884,-1.128,0.2875,7.5152,4.0504,37.637,,adl
11.579988,0.2436,-0.0922,0.1599,0.0884,-1.128,0.2875,10.6384,4.1968,36.8562,,adl
11.588535,0.2436,-0.0922,0.1599,0.0782,-1.5247,0.3747,10.6384,4.1968,36.8562,,adl
11.599182,0.0373,0.4554,0.1573,0.0782,-1.5247,0.3747,10.6384,4.1968,36.8562,,adl
11.637163,0.0373,0.4554,0.1573,0.0782,-1.5247,0.3747,13.7738,4.27,35.8436,,adl
11.640482,0.0373,0.4554,0.1573,0.0782,-1.5247,0.3747,13.7738,4.27,35.8436,,adl
11.642794,0.0373,0.4554,0.1573,0.0782,-1.5247,0.3747,13.7738,4.27,35.8436,,adl
11.644868,0.0373,0.4554,0.1573,0.0782,-1.5247,0.3747,13.7738,4.27,35.8436,,adl
11.659312,0.0373,0.4554,0.1573,0.0644,-1.6263,0.0519,13.7738,4.27,35.8436,,adl
11.668858,-0.7764,-0.461,-0.3709,0.0644,-1.6263,0.0519,13.7738,4.27,35.8436,,adl
11.698898,-0.7764,-0.461,-0.3709,0.0644,-1.6263,0.0519,16.8604,4.2944,34.465,,adl
11.70213,-0.7764,-0.461,-0.3709,0.0644,-1.6263,0.0519,16.8604,4.2944,34.465,,adl
11.704429,-0.7764,-0.461,-0.3709,0.0644,-1.6263,0.0519,16.8604,4.2944,34.465,,adl
11.706727,-0.7764,-0.461,-0.3709,0.0644,-1.6263,0.0519,16.8604,4.2944,34.465,,adl
11.728689,-0.7764,-0.461,-0.3709,-0.0977,-1.5715,-0.0706,16.8604,4.2944,34.465,,adl
11.744621,-0.0347,0.7358,-0.9681,-0.0977,-1.5715,-0.0706,16.8604,4.2944,34.465,,adl
11.758609,-0.0347,0.7358,-0.9681,-0.0977,-1.5715,-0.0706,19.8494,4.2822,32.8424,,adl
11.767885,-0.0347,0.7358,-0.9681,-0.0977,-1.5715,-0.0706,19.8494,4.2822,32.8424,,adl
11.769376,-0.0347,0.7358,-0.9681,-0.0977,-1.5715,-0.0706,19.8494,4.2822,32.8424,,adl
11.770412,-0.0347,0.7358,-0.9681,-0.0977,-1.5715,-0.0706,19.8494,4.2822,32.8424,,adl
11.77148,-0.0347,0.7358,-0.9681,-0.0977,-1.5715,-0.0706,19.8494,4.2822,32.8424,,adl
11.798825,-0.0347,0.7358,-0.9681,-0.0029,-0.6782,0.0788,19.8494,4.2822,32.8424,,adl
11.811832,1.1372,-0.5993,0.7361,-0.0029,-0.6782,0.0788,19.8494,4.2822,32.8424,,adl
11.819293,1.1372,-0.5993,0.7361,-0.0029,-0.6782,0.0788,22.57,4.2334,31.2198,,adl
11.835914,1.1372,-0.5993,0.7361,-0.0029,-0.6782,0.0788,22.57,4.2334,31.2198,,adl
11.837456,1.1372,-0.5993,0.7361,-0.0029,-0.6782,0.0788,22.57,4.2334,31.2198,,adl
11.838383,1.1372,-0.5993,0.7361,-0.0029,-0.6782,0.0788,22.57,4.2334,31.2198,,adl
11.868749,1.1372,-0.5993,0.7361,0.0846,-0.596,0.2672,22.57,4.2334,31.2198,,adl
11.879822,1.1372,-0.5993,0.7361,0.0846,-0.596,0.2672,25.0588,4.1602,29.524,,adl
11.883109,0.3289,-0.4724,0.6299,0.0846,-0.596,0.2672,25.0588,4.1602,29.524,,adl
11.901794,0.3289,-0.4724,0.6299,0.0846,-0.596,0.2672,25.0588,4.1602,29.524,,adl
11.90372,0.3289,-0.4724,0.6299,0.0846,-0.596,0.2672,25.0588,4.1602,29.524,,adl
11.905236,0.3289,-0.4724,0.6299,0.0846,-0.596,0.2672,25.0588,4.1602,29.524,,adl
11.938746,0.3289,-0.4724,0.6299,0.0846,-0.596,0.2672,27.2914,3.9772,27.8282,,adl
11.942111,0.3289,-0.4724,0.6299,-0.075,-0.3075,0.1274,27.2914,3.9772,27.8282,,adl
11.947908,-0.4554,0.3501,0.3545,-0.075,-0.3075,0.1274,27.2914,3.9772,27.8282,,adl
11.969437,-0.4554,0.3501,0.3545,-0.075,-0.3075,0.1274,27.2914,3.9772,27.8282,,adl
11.971574,-0.4554,0.3501,0.3545,-0.075,-0.3075,0.1274,27.2914,3.9772,27.8282,,adl
11.972951,-0.4554,0.3501,0.3545,-0.075,-0.3075,0.1274,27.2914,3.9772,27.8282,,adl
11.974372,-0.4554,0.3501,0.3545,-0.075,-0.3075,0.1274,27.2914,3.9772,27.8282,,adl
11.997831,-0.4554,0.3501,0.3545,-0.075,-0.3075,0.1274,29.2312,3.8064,26.1934,,adl
12.008126,-0.4554,0.3501,0.3545,-0.037,-0.2577,0.0236,29.2312,3.8064,26.1934,,adl
12.019212,-0.3459,0.2545,0.1851,-0.037,-0.2577,0.0236,29.2312,3.8064,26.1934,,adl
12.036051,-0.3459,0.2545,0.1851,-0.037,-0.2577,0.0236,29.2312,3.8064,26.1934,,adl
12.037997,-0.3459,0.2545,0.1851,-0.037,-0.2577,0.0236,29.2312,3.8064,26.1934,,adl
12.039379,-0.3459,0.2545,0.1851,-0.037,-0.2577,0.0236,29.2312,3.8064,26.1934,,adl
12.05761,-0.3459,0.2545,0.1851,-0.037,-0.2577,0.0236,30.927,3.599,24.827,,adl
12.076029,-0.3459,0.2545,0.1851,-0.0238,-0.1172,-0.0265,30.927,3.599,24.827,,adl
12.088766,-0.3615,-0.0488,0.4763,-0.0238,-0.1172,-0.0265,30.927,3.599,24.827,,adl
12.103346,-0.3615,-0.0488,0.4763,-0.0238,-0.1172,-0.0265,30.927,3.599,24.827,,adl
12.105603,-0.3615,-0.0488,0.4763,-0.0238,-0.1172,-0.0265,30.927,3.599,24.827,,adl
12.106672,-0.3615,-0.0488,0.4763,-0.0238,-0.1172,-0.0265,30.927,3.599,24.827,,adl
12.115904,-0.3615,-0.0488,0.4763,-0.0238,-0.1172,-0.0265,32.269,3.4038,23.6924,,adl
12.147965,-0.3615,-0.0488,0.4763,-0.0326,-0.0017,-0.0345,32.269,3.4038,23.6924,,adl
12.157793,-0.2803,0.0379,0.6084,-0.0326,-0.0017,-0.0345,32.269,3.4038,23.6924,,adl
12.169905,-0.2803,0.0379,0.6084,-0.0326,-0.0017,-0.0345,32.269,3.4038,23.6924,,adl
12.173474,-0.2803,0.0379,0.6084,-0.0326,-0.0017,-0.0345,32.269,3.4038,23.6924,,adl
12.175606,-0.2803,0.0379,0.6084,-0.0326,-0.0017,-0.0345,32.269,3.4038,23.6924,,adl
12.177968,-0.2803,0.0379,0.6084,-0.0326,-0.0017,-0.0345,32.269,3.4038,23.6924,,adl
12.180423,-0.2803,0.0379,0.6084,-0.0326,-0.0017,-0.0345,33.184,3.2208,22.9116,,adl
12.216252,-0.2803,0.0379,0.6084,-0.0031,0.2814,-0.0695,33.184,3.2208,22.9116,,adl
12.225709,-0.3781,0.0898,0.856,-0.0031,0.2814,-0.0695,33.184,3.2208,22.9116,,adl
12.235902,-0.3781,0.0898,0.856,-0.0031,0.2814,-0.0695,33.7574,3.111,22.4236,,adl
12.239649,-0.3781,0.0898,0.856,-0.0031,0.2814,-0.0695,33.7574,3.111,22.4236,,adl
12.242636,-0.3781,0.0898,0.856,-0.0031,0.2814,-0.0695,33.7574,3.111,22.4236,,adl
12.245435,-0.3781,0.0898,0.856,-0.0031,0.2814,-0.0695,33.7574,3.111,22.4236,,adl
12.287121,-0.3781,0.0898,0.856,0.1039,0.489,-0.1249,33.7574,3.111,22.4236,,adl
12.303379,-0.3781,0.0898,0.856,0.1039,0.489,-0.1249,34.1234,3.0866,22.1796,,adl
12.306309,-0.1097,-0.0138,1.1181,0.1039,0.489,-0.1249,34.1234,3.0866,22.1796,,adl
12.308447,-0.1097,-0.0138,1.1181,0.1039,0.489,-0.1249,34.1234,3.0866,22.1796,,adl
12.310499,-0.1097,-0.0138,1.1181,0.1039,0.489,-0.1249,34.1234,3.0866,22.1796,,adl
12.312313,-0.1097,-0.0138,1.1181,0.1039,0.489,-0.1249,34.1234,3.0866,22.1796,,adl
12.356772,-0.1097,-0.0138,1.1181,0.1039,0.489,-0.1249,34.282,3.05,22.1552,,adl
12.36129,-0.1097,-0.0138,1.1181,-0.1659,0.2185,0.1866,34.282,3.05,22.1552,,adl
12.364899,-0.385,-0.0779,0.7455,-0.1659,0.2185,0.1866,34.282,3.05,22.1552,,adl
12.367144,-0.385,-0.0779,0.7455,-0.1659,0.2185,0.1866,34.282,3.05,22.1552,,adl
12.36821,-0.385,-0.0779,0.7455,-0.1659,0.2185,0.1866,34.282,3.05,22.1552,,adl
12.369356,-0.385,-0.0779,0.7455,-0.1659,0.2185,0.1866,34.282,3.05,22.1552,,adl
12.370395,-0.385,-0.0779,0.7455,-0.1659,0.2185,0.1866,34.282,3.05,22.1552,,adl
12.417679,-0.385,-0.0779,0.7455,-0.1659,0.2185,0.1866,34.343,3.0378,22.387,,adl
12.426718,-0.385,-0.0779,0.7455,0.0674,0.6922,-0.0961,34.343,3.0378,22.387,,adl
12.437513,-0.6898,-2.0009,-1.3681,0.0674,0.6922,-0.0961,34.343,3.0378,22.387,,adl
12.439939,-0.6898,-2.0009,-1.3681,0.0674,0.6922,-0.0961,34.343,3.0378,22.387,,adl
12.441847,-0.6898,-2.0009,-1.3681,0.0674,0.6922,-0.0961,34.343,3.0378,22.387,,adl
12.443612,-0.6898,-2.0009,-1.3681,0.0674,0.6922,-0.0961,34.343,3.0378,22.387,,adl
12.476895,-0.6898,-2.0009,-1.3681,0.0674,0.6922,-0.0961,34.221,3.05,22.875,,adl
12.496047,-0.6898,-2.0009,-1.3681,0.0543,0.2407,-0.0031,34.221,3.05,22.875,,adl
12.501414,-0.6898,-2.0009,-1.3681,0.0543,0.2407,-0.0031,34.221,3.05,22.875,,adl
12.503631,-0.6898,-2.0009,-1.3681,0.0543,0.2407,-0.0031,34.221,3.05,22.875,,adl
12.506526,-0.6898,-2.0009,-1.3681,0.0543,0.2407,-0.0031,34.221,3.05,22.875,,adl
12.508722,1.4348,1.7843,-0.9706,0.0543,0.2407,-0.0031,34.221,3.05,22.875,,adl
12.536206,1.4348,1.7843,-0.9706,0.0543,0.2407,-0.0031,34.0624,3.1964,23.302,,adl
12.565919,1.4348,1.7843,-0.9706,0.0893,-0.0198,-0.1799,34.0624,3.1964,23.302,,adl
12.570579,1.4348,1.7843,-0.9706,0.0893,-0.0198,-0.1799,34.0624,3.1964,23.302,,adl
12.573163,1.4348,1.7843,-0.9706,0.0893,-0.0198,-0.1799,34.0624,3.1964,23.302,,adl
12.576223,1.4348,1.7843,-0.9706,0.0893,-0.0198,-0.1799,34.0624,3.1964,23.302,,adl
12.578862,1.4348,1.7843,-0.9706,0.0893,-0.0198,-0.1799,34.0624,3.1964,23.302,,adl
12.581469,-0.2214,-0.7281,-0.9627,0.0893,-0.0198,-0.1799,34.0624,3.1964,23.302,,adl
12.594709,-0.2214,-0.7281,-0.9627,0.0893,-0.0198,-0.1799,33.8428,3.4404,23.7534,,adl
12.635847,-0.2214,-0.7281,-0.9627,0.0684,0.0806,-0.276,33.8428,3.4404,23.7534,,adl
12.640155,-0.2214,-0.7281,-0.9627,0.0684,0.0806,-0.276,33.8428,3.4404,23.7534,,adl
12.642517,-0.2214,-0.7281,-0.9627,0.0684,0.0806,-0.276,33.8428,3.4404,23.7534,,adl
12.644615,-0.2214,-0.7281,-0.9627,0.0684,0.0806,-0.276,33.8428,3.4404,23.7534,,adl
12.646876,0.6067,0.0973,-0.6754,0.0684,0.0806,-0.276,33.8428,3.4404,23.7534,,adl
12.657596,0.6067,0.0973,-0.6754,0.0684,0.0806,-0.276,33.611,3.6966,24.2658,,adl
12.703629,0.6067,0.0973,-0.6754,0.0987,0.0903,-0.2222,33.611,3.6966,24.2658,,adl
12.706444,0.6067,0.0973,-0.6754,0.0987,0.0903,-0.2222,33.611,3.6966,24.2658,,adl
12.707822,0.6067,0.0973,-0.6754,0.0987,0.0903,-0.2222,33.611,3.6966,24.2658,,adl
12.709315,0.6067,0.0973,-0.6754,0.0987,0.0903,-0.2222,33.611,3.6966,24.2658,,adl
12.715166,0.3178,0.4468,-0.1127,0.0987,0.0903,-0.2222,33.611,3.6966,24.2658,,adl
12.717515,0.3178,0.4468,-0.1127,0.0987,0.0903,-0.2222,33.4036,4.026,24.766,,adl
12.770276,0.3178,0.4468,-0.1127,0.0987,0.0903,-0.2222,33.4036,4.026,24.766,,adl
12.772536,0.3178,0.4468,-0.1127,0.0987,0.0903,-0.2222,33.4036,4.026,24.766,,adl
12.774769,0.3178,0.4468,-0.1127,0.0987,0.0903,-0.2222,33.4036,4.026,24.766,,adl
12.777023,0.3178,0.4468,-0.1127,0.0987,0.0903,-0.2222,33.4036,4.026,24.766,,adl
12.779162,0.3178,0.4468,-0.1127,0.0987,0.0903,-0.2222,33.2084,4.392,25.2174,,adl
12.782087,0.3178,0.4468,-0.1127,0.1184,0.136,-0.1874,33.2084,4.392,25.2174,,adl
12.784449,0.1331,0.119,0.1523,0.1184,0.136,-0.1874,33.2084,4.392,25.2174,,adl
12.833661,0.1331,0.119,0.1523,0.1184,0.136,-0.1874,33.0498,4.7946,25.6688,,adl
12.837066,0.1331,0.119,0.1523,0.1184,0.136,-0.1874,33.0498,4.7946,25.6688,,adl
12.83916,0.1331,0.119,0.1523,0.1184,0.136,-0.1874,33.0498,4.7946,25.6688,,adl
12.841363,0.1331,0.119,0.1523,0.1184,0.136,-0.1874,33.0498,4.7946,25.6688,,adl
12.845789,0.1331,0.119,0.1523,0.1168,0.0527,-0.1281,33.0498,4.7946,25.6688,,adl
12.855093,0.3975,0.2339,0.1599,0.1168,0.0527,-0.1281,33.0498,4.7946,25.6688,,adl
12.894024,0.3975,0.2339,0.1599,0.1168,0.0527,-0.1281,32.9644,5.3314,26.0592,,adl
12.902384,0.3975,0.2339,0.1599,0.1168,0.0527,-0.1281,32.9644,5.3314,26.0592,,adl
12.905428,0.3975,0.2339,0.1599,0.1168,0.0527,-0.1281,32.9644,5.3314,26.0592,,adl
12.907252,0.3975,0.2339,0.1599,0.1168,0.0527,-0.1281,32.9644,5.3314,26.0592,,adl
12.914361,0.3975,0.2339,0.1599,0.0776,-0.0993,-0.031,32.9644,5.3314,26.0592,,adl
12.927324,0.0723,0.1048,0.2707,0.0776,-0.0993,-0.031,32.9644,5.3314,26.0592,,adl
12.954017,0.0723,0.1048,0.2707,0.0776,-0.0993,-0.031,32.9644,5.8682,26.1934,,adl
12.970065,0.0723,0.1048,0.2707,0.0776,-0.0993,-0.031,32.9644,5.8682,26.1934,,adl
12.973145,0.0723,0.1048,0.2707,0.0776,-0.0993,-0.031,32.9644,5.8682,26.1934,,adl
12.97565,0.0723,0.1048,0.2707,0.0776,-0.0993,-0.031,32.9644,5.8682,26.1934,,adl
12.977841,0.0723,0.1048,0.2707,0.0776,-0.0993,-0.031,32.9644,5.8682,26.1934,,adl
12.98461,0.0723,0.1048,0.2707,0.0005,-0.1562,0.083,32.9644,5.8682,26.1934,,adl
12.992385,0.1357,0.5978,0.2605,0.0005,-0.1562,0.083,32.9644,5.8682,26.1934,,adl
13.012638,0.1357,0.5978,0.2605,0.0005,-0.1562,0.083,32.9644,6.283,26.3642,,adl
13.03665,0.1357,0.5978,0.2605,0.0005,-0.1562,0.083,32.9644,6.283,26.3642,,adl
13.03964,0.1357,0.5978,0.2605,0.0005,-0.1562,0.083,32.9644,6.283,26.3642,,adl
13.042037,0.1357,0.5978,0.2605,0.0005,-0.1562,0.083,32.9644,6.283,26.3642,,adl
13.054219,0.1357,0.5978,0.2605,0.2061,-0.286,0.1369,32.9644,6.283,26.3642,,adl
13.06413,0.5501,-0.1018,0.5412,0.2061,-0.286,0.1369,32.9644,6.283,26.3642,,adl
13.074162,0.5501,-0.1018,0.5412,0.2061,-0.286,0.1369,33.001,6.6734,26.4496,,adl
13.103092,0.5501,-0.1018,0.5412,0.2061,-0.286,0.1369,33.001,6.6734,26.4496,,adl
13.10608,0.5501,-0.1018,0.5412,0.2061,-0.286,0.1369,33.001,6.6734,26.4496,,adl
13.108148,0.5501,-0.1018,0.5412,0.2061,-0.286,0.1369,33.001,6.6734,26.4496,,adl
13.110639,0.5501,-0.1018,0.5412,0.2061,-0.286,0.1369,33.001,6.6734,26.4496,,adl
13.124424,0.5501,-0.1018,0.5412,0.0506,-0.3915,0.0923,33.001,6.6734,26.4496,,adl
13.136024,0.2859,0.0379,0.9415,0.0506,-0.3915,0.0923,33.001,6.6734,26.4496,,adl
13.140202,0.2859,0.0379,0.9415,0.0506,-0.3915,0.0923,33.123,7.0272,26.3886,,adl
13.169764,0.2859,0.0379,0.9415,0.0506,-0.3915,0.0923,33.123,7.0272,26.3886,,adl
13.172641,0.2859,0.0379,0.9415,0.0506,-0.3915,0.0923,33.123,7.0272,26.3886,,adl
13.174897,0.2859,0.0379,0.9415,0.0506,-0.3915,0.0923,33.123,7.0272,26.3886,,adl
13.194286,0.2859,0.0379,0.9415,0.0506,-0.3915,0.0923,33.245,7.2956,26.352,,adl
13.197774,0.2859,0.0379,0.9415,0.0217,0.1562,-0.0644,33.245,7.2956,26.352,,adl
13.206502,0.9294,-1.9324,-0.1552,0.0217,0.1562,-0.0644,33.245,7.2956,26.352,,adl
13.235618,0.9294,-1.9324,-0.1552,0.0217,0.1562,-0.0644,33.245,7.2956,26.352,,adl
13.237432,0.9294,-1.9324,-0.1552,0.0217,0.1562,-0.0644,33.245,7.2956,26.352,,adl
13.238588,0.9294,-1.9324,-0.1552,0.0217,0.1562,-0.0644,33.245,7.2956,26.352,,adl
13.253663,0.9294,-1.9324,-0.1552,0.0217,0.1562,-0.0644,33.4158,7.4298,26.1812,,adl
13.263396,0.9294,-1.9324,-0.1552,0.0357,-0.7503,0.2,33.4158,7.4298,26.1812,,adl
13.275417,-0.064,0.2171,-0.9719,0.0357,-0.7503,0.2,33.4158,7.4298,26.1812,,adl
13.303409,-0.064,0.2171,-0.9719,0.0357,-0.7503,0.2,33.4158,7.4298,26.1812,,adl
13.305991,-0.064,0.2171,-0.9719,0.0357,-0.7503,0.2,33.4158,7.4298,26.1812,,adl
13.307384,-0.064,0.2171,-0.9719,0.0357,-0.7503,0.2,33.4158,7.4298,26.1812,,adl
13.308757,-0.064,0.2171,-0.9719,0.0357,-0.7503,0.2,33.4158,7.4298,26.1812,,adl
13.313016,-0.064,0.2171,-0.9719,0.0357,-0.7503,0.2,33.733,7.4908,25.7908,,adl
13.332906,-0.064,0.2171,-0.9719,0.0103,-0.3453,-0.155,33.733,7.4908,25.7908,,adl
13.343097,-1.8437,1.3547,-1.2197,0.0103,-0.3453,-0.155,33.733,7.4908,25.7908,,adl
13.367917,-1.8437,1.3547,-1.2197,0.0103,-0.3453,-0.155,33.733,7.4908,25.7908,,adl
13.371247,-1.8437,1.3547,-1.2197,0.0103,-0.3453,-0.155,33.733,7.4908,25.7908,,adl
13.373608,-1.8437,1.3547,-1.2197,0.0103,-0.3453,-0.155,33.733,7.4908,25.7908,,adl
13.375195,-1.8437,1.3547,-1.2197,0.0103,-0.3453,-0.155,34.0624,7.564,25.315,,adl
13.402812,-1.8437,1.3547,-1.2197,0.1248,0.0991,0.2478,34.0624,7.564,25.315,,adl
13.418216,0.5992,-1.2313,-0.2525,0.1248,0.0991,0.2478,34.0624,7.564,25.315,,adl
13.433373,0.5992,-1.2313,-0.2525,0.1248,0.0991,0.2478,34.4406,7.5518,24.9368,,adl
13.436437,0.5992,-1.2313,-0.2525,0.1248,0.0991,0.2478,34.4406,7.5518,24.9368,,adl
13.438467,0.5992,-1.2313,-0.2525,0.1248,0.0991,0.2478,34.4406,7.5518,24.9368,,adl
13.440307,0.5992,-1.2313,-0.2525,0.1248,0.0991,0.2478,34.4406,7.5518,24.9368,,adl
13.471664,0.5992,-1.2313,-0.2525,-0.0459,0.023,0.2651,34.4406,7.5518,24.9368,,adl
13.484632,-0.2871,0.4261,-0.3995,-0.0459,0.023,0.2651,34.4406,7.5518,24.9368,,adl
13.492475,-0.2871,0.4261,-0.3995,-0.0459,0.023,0.2651,34.77,7.4664,24.583,,adl
13.502372,-0.2871,0.4261,-0.3995,-0.0459,0.023,0.2651,34.77,7.4664,24.583,,adl
13.503839,-0.2871,0.4261,-0.3995,-0.0459,0.023,0.2651,34.77,7.4664,24.583,,adl
13.505256,-0.2871,0.4261,-0.3995,-0.0459,0.023,0.2651,34.77,7.4664,24.583,,adl
13.507135,-0.2871,0.4261,-0.3995,-0.0459,0.023,0.2651,34.77,7.4664,24.583,,adl
13.543046,-0.2871,0.4261,-0.3995,-0.0228,-0.0064,0.068,34.77,7.4664,24.583,,adl
13.553364,-0.2871,0.4261,-0.3995,-0.0228,-0.0064,0.068,35.0994,7.2834,24.3634,,adl
13.556613,-0.4042,0.6529,0.1065,-0.0228,-0.0064,0.068,35.0994,7.2834,24.3634,,adl
13.569165,-0.4042,0.6529,0.1065,-0.0228,-0.0064,0.068,35.0994,7.2834,24.3634,,adl
13.570932,-0.4042,0.6529,0.1065,-0.0228,-0.0064,0.068,35.0994,7.2834,24.3634,,adl
13.572052,-0.4042,0.6529,0.1065,-0.0228,-0.0064,0.068,35.0994,7.2834,24.3634,,adl
13.613888,-0.4042,0.6529,0.1065,-0.1253,-0.1149,-0.073,35.0994,7.2834,24.3634,,adl
13.618251,-0.4042,0.6529,0.1065,-0.1253,-0.1149,-0.073,35.3556,7.1126,24.1804,,adl
13.622118,-0.6334,0.421,0.6024,-0.1253,-0.1149,-0.073,35.3556,7.1126,24.1804,,adl
13.634424,-0.6334,0.421,0.6024,-0.1253,-0.1149,-0.073,35.3556,7.1126,24.1804,,adl
13.635986,-0.6334,0.421,0.6024,-0.1253,-0.1149,-0.073,35.3556,7.1126,24.1804,,adl
13.637699,-0.6334,0.421,0.6024,-0.1253,-0.1149,-0.073,35.3556,7.1126,24.1804,,adl
13.682659,-0.6334,0.421,0.6024,-0.1253,-0.1149,-0.073,35.6118,6.9906,23.8876,,adl
13.687827,-0.6334,0.421,0.6024,0.1541,0.068,-0.1001,35.6118,6.9906,23.8876,,adl
13.697356,-0.019,0.4058,0.7283,0.1541,0.068,-0.1001,35.6118,6.9906,23.8876,,adl
13.70355,-0.019,0.4058,0.7283,0.1541,0.068,-0.1001,35.6118,6.9906,23.8876,,adl
13.704474,-0.019,0.4058,0.7283,0.1541,0.068,-0.1001,35.6118,6.9906,23.8876,,adl
13.705331,-0.019,0.4058,0.7283,0.1541,0.068,-0.1001,35.6118,6.9906,23.8876,,adl
13.706113,-0.019,0.4058,0.7283,0.1541,0.068,-0.1001,35.6118,6.9906,23.8876,,adl
13.742547,-0.019,0.4058,0.7283,0.1541,0.068,-0.1001,35.807,6.9906,23.6924,,adl
13.751447,-0.019,0.4058,0.7283,0.0854,0.1463,0.0511,35.807,6.9906,23.6924,,adl
13.764311,-0.0891,-0.2792,0.5479,0.0854,0.1463,0.0511,35.807,6.9906,23.6924,,adl
13.768126,-0.0891,-0.2792,0.5479,0.0854,0.1463,0.0511,35.807,6.9906,23.6924,,adl
13.769785,-0.0891,-0.2792,0.5479,0.0854,0.1463,0.0511,35.807,6.9906,23.6924,,adl
13.770723,-0.0891,-0.2792,0.5479,0.0854,0.1463,0.0511,35.807,6.9906,23.6924,,adl
13.802,-0.0891,-0.2792,0.5479,0.0854,0.1463,0.0511,35.807,6.9906,23.7168,,adl
13.821538,-0.0891,-0.2792,0.5479,0.0767,0.4824,0.2318,35.807,6.9906,23.7168,,adl
13.831135,-0.3271,0.0301,0.5159,0.0767,0.4824,0.2318,35.807,6.9906,23.7168,,adl
13.835444,-0.3271,0.0301,0.5159,0.0767,0.4824,0.2318,35.807,6.9906,23.7168,,adl
13.837355,-0.3271,0.0301,0.5159,0.0767,0.4824,0.2318,35.807,6.9906,23.7168,,adl
13.839009,-0.3271,0.0301,0.5159,0.0767,0.4824,0.2318,35.807,6.9906,23.7168,,adl
13.860784,-0.3271,0.0301,0.5159,0.0767,0.4824,0.2318,35.6972,6.893,23.912,,adl
13.891319,-0.3271,0.0301,0.5159,0.2555,0.21,0.2511,35.6972,6.893,23.912,,adl
13.901549,0.0043,-2.1448,0.536,0.2555,0.21,0.2511,35.6972,6.893,23.912,,adl
13.903944,0.0043,-2.1448,0.536,0.2555,0.21,0.2511,35.6972,6.893,23.912,,adl
13.905736,0.0043,-2.1448,0.536,0.2555,0.21,0.2511,35.6972,6.893,23.912,,adl
13.907407,0.0043,-2.1448,0.536,0.2555,0.21,0.2511,35.6972,6.893,23.912,,adl
13.909252,0.0043,-2.1448,0.536,0.2555,0.21,0.2511,35.6972,6.893,23.912,,adl
13.921232,0.0043,-2.1448,0.536,0.2555,0.21,0.2511,35.5752,6.832,24.0828,,adl
13.961182,0.0043,-2.1448,0.536,-0.2047,0.4309,-0.1418,35.5752,6.832,24.0828,,adl
13.968844,-0.9273,-0.1686,-0.4448,-0.2047,0.4309,-0.1418,35.5752,6.832,24.0828,,adl
13.971875,-0.9273,-0.1686,-0.4448,-0.2047,0.4309,-0.1418,35.5752,6.832,24.0828,,adl
13.97444,-0.9273,-0.1686,-0.4448,-0.2047,0.4309,-0.1418,35.5752,6.832,24.0828,,adl
13.97648,-0.9273,-0.1686,-0.4448,-0.2047,0.4309,-0.1418,35.5752,6.832,24.0828,,adl
13.984942,-0.9273,-0.1686,-0.4448,-0.2047,0.4309,-0.1418,35.3312,6.8564,24.3634,,adl
14.031151,-0.9273,-0.1686,-0.4448,-0.0513,0.2088,0.0712,35.3312,6.8564,24.3634,,adl
14.034553,-0.9273,-0.1686,-0.4448,-0.0513,0.2088,0.0712,35.3312,6.8564,24.3634,,adl
14.036686,-0.9273,-0.1686,-0.4448,-0.0513,0.2088,0.0712,35.3312,6.8564,24.3634,,adl
14.03886,-0.9273,-0.1686,-0.4448,-0.0513,0.2088,0.0712,35.3312,6.8564,24.3634,,adl
14.04172,-0.9273,-0.1686,-0.4448,-0.0513,0.2088,0.0712,35.0384,6.9296,24.6318,,adl
14.044159,-0.0391,1.8858,-1.6558,-0.0513,0.2088,0.0712,35.0384,6.9296,24.6318,,adl
14.099551,-0.0391,1.8858,-1.6558,-0.0513,0.2088,0.0712,34.6968,7.0516,24.9734,,adl
14.103342,-0.0391,1.8858,-1.6558,0.2016,-0.0107,-0.2119,34.6968,7.0516,24.9734,,adl
14.10608,-0.0391,1.8858,-1.6558,0.2016,-0.0107,-0.2119,34.6968,7.0516,24.9734,,adl
14.109094,-0.0391,1.8858,-1.6558,0.2016,-0.0107,-0.2119,34.6968,7.0516,24.9734,,adl
14.111504,-0.0391,1.8858,-1.6558,0.2016,-0.0107,-0.2119,34.6968,7.0516,24.9734,,adl
14.114084,-0.0391,1.8858,-1.6558,0.2016,-0.0107,-0.2119,34.6968,7.0516,24.9734,,adl
14.116426,1.0867,-1.4249,-0.8849,0.2016,-0.0107,-0.2119,34.6968,7.0516,24.9734,,adl
14.159402,1.0867,-1.4249,-0.8849,0.2016,-0.0107,-0.2119,34.404,7.1858,25.4248,,adl
14.168733,1.0867,-1.4249,-0.8849,-0.1125,-0.0623,-0.2722,34.404,7.1858,25.4248,,adl
14.17224,1.0867,-1.4249,-0.8849,-0.1125,-0.0623,-0.2722,34.404,7.1858,25.4248,,adl
14.175227,1.0867,-1.4249,-0.8849,-0.1125,-0.0623,-0.2722,34.404,7.1858,25.4248,,adl
14.178031,1.0867,-1.4249,-0.8849,-0.1125,-0.0623,-0.2722,34.404,7.1858,25.4248,,adl
14.180168,-0.1015,0.4028,-0.5443,-0.1125,-0.0623,-0.2722,34.404,7.1858,25.4248,,adl
14.220336,-0.1015,0.4028,-0.5443,-0.1125,-0.0623,-0.2722,34.1478,7.3078,25.8274,,adl
14.236085,-0.1015,0.4028,-0.5443,-0.1125,-0.0623,-0.2722,34.1478,7.3078,25.8274,,adl
14.240224,-0.1015,0.4028,-0.5443,-0.1125,-0.0623,-0.2722,34.1478,7.3078,25.8274,,adl
14.243209,-0.1015,0.4028,-0.5443,-0.1125,-0.0623,-0.2722,34.1478,7.3078,25.8274,,adl
14.246572,-0.1015,0.4028,-0.5443,-0.1312,-0.0883,-0.1935,34.1478,7.3078,25.8274,,adl
14.249882,0.4011,0.682,0.1115,-0.1312,-0.0883,-0.1935,34.1478,7.3078,25.8274,,adl
14.280429,0.4011,0.682,0.1115,-0.1312,-0.0883,-0.1935,33.916,7.4786,26.1568,,adl
14.302888,0.4011,0.682,0.1115,-0.1312,-0.0883,-0.1935,33.916,7.4786,26.1568,,adl
14.306544,0.4011,0.682,0.1115,-0.1312,-0.0883,-0.1935,33.916,7.4786,26.1568,,adl
14.309417,0.4011,0.682,0.1115,-0.1312,-0.0883,-0.1935,33.916,7.4786,26.1568,,adl
14.31108,0.4011,0.682,0.1115,-0.1312,-0.0883,-0.1935,33.916,7.4786,26.1568,,adl
14.31278,0.4011,0.682,0.1115,-0.2205,0.0265,-0.1101,33.916,7.4786,26.1568,,adl
14.31933,0.1595,0.3488,0.6159,-0.2205,0.0265,-0.1101,33.916,7.4786,26.1568,,adl
14.337895,0.1595,0.3488,0.6159,-0.2205,0.0265,-0.1101,33.733,7.6982,26.352,,adl
14.370323,0.1595,0.3488,0.6159,-0.2205,0.0265,-0.1101,33.733,7.6982,26.352,,adl
14.373842,0.1595,0.3488,0.6159,-0.2205,0.0265,-0.1101,33.733,7.6982,26.352,,adl
14.376794,0.1595,0.3488,0.6159,-0.2205,0.0265,-0.1101,33.733,7.6982,26.352,,adl
14.379757,0.1595,0.3488,0.6159,-0.0656,0.1154,-0.0165,33.733,7.6982,26.352,,adl
14.390428,0.5301,0.5525,0.5702,-0.0656,0.1154,-0.0165,33.733,7.6982,26.352,,adl
14.397734,0.5301,0.5525,0.5702,-0.0656,0.1154,-0.0165,33.5378,7.93,26.5106,,adl
14.436685,0.5301,0.5525,0.5702,-0.0656,0.1154,-0.0165,33.5378,7.93,26.5106,,adl
14.44016,0.5301,0.5525,0.5702,-0.0656,0.1154,-0.0165,33.5378,7.93,26.5106,,adl
14.442648,0.5301,0.5525,0.5702,-0.0656,0.1154,-0.0165,33.5378,7.93,26.5106,,adl
14.449818,0.5301,0.5525,0.5702,0.1373,-0.1217,0.0948,33.5378,7.93,26.5106,,adl
14.457605,0.5301,0.5525,0.5702,0.1373,-0.1217,0.0948,33.4646,8.2106,26.535,,adl
14.459106,0.291,-0.0558,0.7583,0.1373,-0.1217,0.0948,33.4646,8.2106,26.535,,adl
14.503956,0.291,-0.0558,0.7583,0.1373,-0.1217,0.0948,33.4646,8.2106,26.535,,adl
14.507428,0.291,-0.0558,0.7583,0.1373,-0.1217,0.0948,33.4646,8.2106,26.535,,adl
14.509589,0.291,-0.0558,0.7583,0.1373,-0.1217,0.0948,33.4646,8.2106,26.535,,adl
14.511694,0.291,-0.0558,0.7583,0.1373,-0.1217,0.0948,33.4646,8.2106,26.535,,adl
14.519406,0.291,-0.0558,0.7583,0.1373,-0.1217,0.0948,33.489,8.4912,26.4496,,adl
14.522186,0.291,-0.0558,0.7583,0.0063,-0.422,0.0197,33.489,8.4912,26.4496,,adl
14.529388,-0.1352,0.0769,0.9081,0.0063,-0.422,0.0197,33.489,8.4912,26.4496,,adl
14.570126,-0.1352,0.0769,0.9081,0.0063,-0.422,0.0197,33.489,8.4912,26.4496,,adl
14.573444,-0.1352,0.0769,0.9081,0.0063,-0.422,0.0197,33.489,8.4912,26.4496,,adl
14.575564,-0.1352,0.0769,0.9081,0.0063,-0.422,0.0197,33.489,8.4912,26.4496,,adl
14.58016,-0.1352,0.0769,0.9081,0.0063,-0.422,0.0197,33.6354,8.8084,26.291,,adl
14.589818,-0.1352,0.0769,0.9081,0.122,-0.1364,-0.3674,33.6354,8.8084,26.291,,adl
14.601423,0.0754,-1.8409,0.2949,0.122,-0.1364,-0.3674,33.6354,8.8084,26.291,,adl
14.635493,0.0754,-1.8409,0.2949,0.122,-0.1364,-0.3674,33.6354,8.8084,26.291,,adl
14.640517,0.0754,-1.8409,0.2949,0.122,-0.1364,-0.3674,33.6354,8.8084,26.291,,adl
14.643153,0.0754,-1.8409,0.2949,0.122,-0.1364,-0.3674,33.6354,8.8084,26.291,,adl
14.645504,0.0754,-1.8409,0.2949,0.122,-0.1364,-0.3674,33.7574,9.1256,26.0348,,adl
14.656774,0.0754,-1.8409,0.2949,0.1117,-0.4016,0.1406,33.7574,9.1256,26.0348,,adl
14.6668,0.5173,-1.1896,-0.879,0.1117,-0.4016,0.1406,33.7574,9.1256,26.0348,,adl
14.698323,0.5173,-1.1896,-0.879,0.1117,-0.4016,0.1406,33.977,9.3818,25.6444,,adl
14.701386,0.5173,-1.1896,-0.879,0.1117,-0.4016,0.1406,33.977,9.3818,25.6444,,adl
14.703003,0.5173,-1.1896,-0.879,0.1117,-0.4016,0.1406,33.977,9.3818,25.6444,,adl
14.704571,0.5173,-1.1896,-0.879,0.1117,-0.4016,0.1406,33.977,9.3818,25.6444,,adl
14.706948,0.5173,-1.1896,-0.879,0.1117,-0.4016,0.1406,33.977,9.3818,25.6444,,adl
14.728193,0.5173,-1.1896,-0.879,-0.0892,-0.3904,-0.0656,33.977,9.3818,25.6444,,adl
14.738452,-0.1119,2.0454,-1.5112,-0.0892,-0.3904,-0.0656,33.977,9.3818,25.6444,,adl
14.756586,-0.1119,2.0454,-1.5112,-0.0892,-0.3904,-0.0656,34.2576,9.6624,25.1686,,adl
14.768276,-0.1119,2.0454,-1.5112,-0.0892,-0.3904,-0.0656,34.2576,9.6624,25.1686,,adl
14.770814,-0.1119,2.0454,-1.5112,-0.0892,-0.3904,-0.0656,34.2576,9.6624,25.1686,,adl
14.772202,-0.1119,2.0454,-1.5112,-0.0892,-0.3904,-0.0656,34.2576,9.6624,25.1686,,adl
14.798175,-0.1119,2.0454,-1.5112,-0.0029,0.3517,0.0072,34.2576,9.6624,25.1686,,adl
14.80823,-0.0766,-0.0318,-0.9859,-0.0029,0.3517,0.0072,34.2576,9.6624,25.1686,,adl
14.817519,-0.0766,-0.0318,-0.9859,-0.0029,0.3517,0.0072,34.5626,9.882,24.8758,,adl
14.836576,-0.0766,-0.0318,-0.9859,-0.0029,0.3517,0.0072,34.5626,9.882,24.8758,,adl
14.839227,-0.0766,-0.0318,-0.9859,-0.0029,0.3517,0.0072,34.5626,9.882,24.8758,,adl
14.841223,-0.0766,-0.0318,-0.9859,-0.0029,0.3517,0.0072,34.5626,9.882,24.8758,,adl
14.842879,-0.0766,-0.0318,-0.9859,-0.0029,0.3517,0.0072,34.5626,9.882,24.8758,,adl
14.867922,-0.0766,-0.0318,-0.9859,0.0976,0.5985,0.196,34.5626,9.882,24.8758,,adl
14.881197,-0.0766,-0.0318,-0.9859,0.0976,0.5985,0.196,34.77,10.0894,24.6684,,adl
14.883244,0.4377,-0.9825,-0.1781,0.0976,0.5985,0.196,34.77,10.0894,24.6684,,adl
14.903227,0.4377,-0.9825,-0.1781,0.0976,0.5985,0.196,34.77,10.0894,24.6684,,adl
14.904227,0.4377,-0.9825,-0.1781,0.0976,0.5985,0.196,34.77,10.0894,24.6684,,adl
14.904712,0.4377,-0.9825,-0.1781,0.0976,0.5985,0.196,34.77,10.0894,24.6684,,adl
14.938231,0.4377,-0.9825,-0.1781,0.0976,0.5985,0.196,34.8676,10.2236,24.6928,,adl
14.941583,0.4377,-0.9825,-0.1781,-0.1642,0.7392,0.1115,34.8676,10.2236,24.6928,,adl
14.951082,-0.0361,1.0712,-0.0283,-0.1642,0.7392,0.1115,34.8676,10.2236,24.6928,,adl
14.968296,-0.0361,1.0712,-0.0283,-0.1642,0.7392,0.1115,34.8676,10.2236,24.6928,,adl
14.96978,-0.0361,1.0712,-0.0283,-0.1642,0.7392,0.1115,34.8676,10.2236,24.6928,,adl
14.970523,-0.0361,1.0712,-0.0283,-0.1642,0.7392,0.1115,34.8676,10.2236,24.6928,,adl
14.997302,-0.0361,1.0712,-0.0283,-0.1642,0.7392,0.1115,34.77,10.2724,25.01,,adl
15.007081,-0.0361,1.0712,-0.0283,-0.1799,0.4238,0.0486,34.77,10.2724,25.01,,adl
15.016601,-0.6861,0.4135,0.0936,-0.1799,0.4238,0.0486,34.77,10.2724,25.01,,adl
15.035141,-0.6861,0.4135,0.0936,-0.1799,0.4238,0.0486,34.77,10.2724,25.01,,adl
15.037124,-0.6861,0.4135,0.0936,-0.1799,0.4238,0.0486,34.77,10.2724,25.01,,adl
15.038523,-0.6861,0.4135,0.0936,-0.1799,0.4238,0.0486,34.77,10.2724,25.01,,adl
15.039618,-0.6861,0.4135,0.0936,-0.1799,0.4238,0.0486,34.77,10.2724,25.01,,adl
15.055643,-0.6861,0.4135,0.0936,-0.1799,0.4238,0.0486,34.5138,10.2602,25.376,,adl
15.07574,-0.6861,0.4135,0.0936,-0.0362,0.4214,-0.0261,34.5138,10.2602,25.376,,adl
15.087015,-0.9151,-0.0198,0.3556,-0.0362,0.4214,-0.0261,34.5138,10.2602,25.376,,adl
15.104412,-0.9151,-0.0198,0.3556,-0.0362,0.4214,-0.0261,34.5138,10.2602,25.376,,adl
15.105822,-0.9151,-0.0198,0.3556,-0.0362,0.4214,-0.0261,34.5138,10.2602,25.376,,adl
15.106583,-0.9151,-0.0198,0.3556,-0.0362,0.4214,-0.0261,34.5138,10.2602,25.376,,adl
15.118482,-0.9151,-0.0198,0.3556,-0.0362,0.4214,-0.0261,34.16,10.187,25.9372,,adl
15.147057,-0.9151,-0.0198,0.3556,0.0377,0.5935,-0.0316,34.16,10.187,25.9372,,adl
15.158972,0.3541,-0.1509,0.4692,0.0377,0.5935,-0.0316,34.16,10.187,25.9372,,adl
15.170702,0.3541,-0.1509,0.4692,0.0377,0.5935,-0.0316,34.16,10.187,25.9372,,adl
15.172075,0.3541,-0.1509,0.4692,0.0377,0.5935,-0.0316,34.16,10.187,25.9372,,adl
15.172874,0.3541,-0.1509,0.4692,0.0377,0.5935,-0.0316,34.16,10.187,25.9372,,adl
15.175813,0.3541,-0.1509,0.4692,0.0377,0.5935,-0.0316,33.5256,10.1992,26.779,,adl
15.214641,0.3541,-0.1509,0.4692,0.0486,0.9854,-0.0473,33.5256,10.1992,26.779,,adl
15.224109,-0.0507,-0.1817,0.3847,0.0486,0.9854,-0.0473,33.5256,10.1992,26.779,,adl
15.23393,-0.0507,-0.1817,0.3847,0.0486,0.9854,-0.0473,32.6838,10.1626,27.938,,adl
15.234558,-0.0507,-0.1817,0.3847,0.0486,0.9854,-0.0473,32.6838,10.1626,27.938,,adl
15.234957,-0.0507,-0.1817,0.3847,0.0486,0.9854,-0.0473,32.6838,10.1626,27.938,,adl
15.235159,-0.0507,-0.1817,0.3847,0.0486,0.9854,-0.0473,32.6838,10.1626,27.938,,adl
15.235353,-0.0507,-0.1817,0.3847,0.0486,0.9854,-0.0473,32.6838,10.1626,27.938,,adl
15.288195,-0.0507,-0.1817,0.3847,0.0308,1.2859,0.0125,32.6838,10.1626,27.938,,adl
15.296102,-0.0507,-0.1817,0.3847,0.0308,1.2859,0.0125,31.4882,10.2236,29.1824,,adl
15.296766,0.4666,0.0234,0.5366,0.0308,1.2859,0.0125,31.4882,10.2236,29.1824,,adl
15.300633,0.4666,0.0234,0.5366,0.0308,1.2859,0.0125,31.4882,10.2236,29.1824,,adl
15.301273,0.4666,0.0234,0.5366,0.0308,1.2859,0.0125,31.4882,10.2236,29.1824,,adl
15.301673,0.4666,0.0234,0.5366,0.0308,1.2859,0.0125,31.4882,10.2236,29.1824,,adl
15.357946,0.4666,0.0234,0.5366,0.0308,1.2859,0.0125,30.0242,10.3456,30.5122,,adl
15.359268,0.4666,0.0234,0.5366,0.0293,1.2803,-0.1333,30.0242,10.3456,30.5122,,adl
15.366761,-0.0201,-1.878,-0.3952,0.0293,1.2803,-0.1333,30.0242,10.3456,30.5122,,adl
15.367888,-0.0201,-1.878,-0.3952,0.0293,1.2803,-0.1333,30.0242,10.3456,30.5122,,adl
