time,ax,ay,az,wx,wy,wz,Bx,By,Bz,Unnamed: 10,label
0.048726,0.0,0.0,0.0,0.0,0.0,0.0,0.0,0.0,0.0,,adl
0.056954,0.0,0.0,0.0,0.0,0.0,0.0,0.0,0.0,0.0,,adl
0.086051,0.0,0.0,0.0,0.0573,0.0285,0.0113,0.0,0.0,0.0,,adl
0.099127,0.0,0.0,0.0,0.0573,0.0285,0.0113,-30.866,-28.914,-5.4046,,adl
0.110842,0.0,0.0,0.0,0.0573,0.0285,0.0113,-30.866,-28.914,-5.4046,,adl
0.111426,0.0,0.0,0.0,0.0573,0.0285,0.0113,-30.866,-28.914,-5.4046,,adl
0.111897,0.0,0.0,0.0,0.0573,0.0285,0.0113,-30.866,-28.914,-5.4046,,adl
0.148781,0.0,0.0,0.0,0.0573,0.0285,0.0113,-31.1466,-28.7554,-5.8804,,adl
0.156791,0.0,0.0,0.0,0.0132,0.0134,-0.0053,-31.1466,-28.7554,-5.8804,,adl
0.165639,0.0,0.0,0.0,0.0132,0.0134,-0.0053,-31.1466,-28.7554,-5.8804,,adl
0.177156,0.0,0.0,0.0,0.0132,0.0134,-0.0053,-31.1466,-28.7554,-5.8804,,adl
0.177976,0.0,0.0,0.0,0.0132,0.0134,-0.0053,-31.1466,-28.7554,-5.8804,,adl
0.178581,0.0,0.0,0.0,0.0132,0.0134,-0.0053,-31.1466,-28.7554,-5.8804,,adl
0.197638,0.0,0.0,0.0,0.0132,0.0134,-0.0053,-31.1466,-28.67,-6.0024,,adl
0.225295,0.0,0.0,0.0,0.0148,0.0017,-0.0004,-31.1466,-28.67,-6.0024,,adl
0.236433,0.028,0.0262,-0.0657,0.0148,0.0017,-0.0004,-31.1466,-28.67,-6.0024,,adl
0.242813,0.028,0.0262,-0.0657,0.0148,0.0017,-0.0004,-31.1466,-28.67,-6.0024,,adl
0.243604,0.028,0.0262,-0.0657,0.0148,0.0017,-0.0004,-31.1466,-28.67,-6.0024,,adl
0.244424,0.028,0.0262,-0.0657,0.0148,0.0017,-0.0004,-31.1466,-28.67,-6.0024,,adl
0.247465,0.028,0.0262,-0.0657,0.0148,0.0017,-0.0004,-31.2564,-28.6578,-6.1244,,adl
0.296022,0.028,0.0262,-0.0657,0.0148,0.0017,-0.0004,-31.2564,-28.7066,-6.1244,,adl
0.297514,0.028,0.0262,-0.0657,0.0097,0.0028,0.0008,-31.2564,-28.7066,-6.1244,,adl
0.305267,0.0116,0.0191,0.0204,0.0097,0.0028,0.0008,-31.2564,-28.7066,-6.1244,,adl
0.308816,0.0116,0.0191,0.0204,0.0097,0.0028,0.0008,-31.2564,-28.7066,-6.1244,,adl
0.3093,0.0116,0.0191,0.0204,0.0097,0.0028,0.0008,-31.2564,-28.7066,-6.1244,,adl
0.309737,0.0116,0.0191,0.0204,0.0097,0.0028,0.0008,-31.2564,-28.7066,-6.1244,,adl
0.310143,0.0116,0.0191,0.0204,0.0097,0.0028,0.0008,-31.2564,-28.7066,-6.1244,,adl
0.348947,0.0116,0.0191,0.0204,0.0097,0.0028,0.0008,-31.232,-28.67,-6.1976,,adl
0.365232,0.0116,0.0191,0.0204,0.0364,0.0044,-0.0036,-31.232,-28.67,-6.1976,,adl
0.375895,0.0019,-0.0155,-0.0093,0.0364,0.0044,-0.0036,-31.232,-28.67,-6.1976,,adl
0.376869,0.0019,-0.0155,-0.0093,0.0364,0.0044,-0.0036,-31.232,-28.67,-6.1976,,adl
0.377508,0.0019,-0.0155,-0.0093,0.0364,0.0044,-0.0036,-31.232,-28.67,-6.1976,,adl
0.378123,0.0019,-0.0155,-0.0093,0.0364,0.0044,-0.0036,-31.232,-28.67,-6.1976,,adl
0.397199,0.0019,-0.0155,-0.0093,0.0364,0.0044,-0.0036,-31.3174,-28.6456,-6.1488,,adl
0.435253,0.0019,-0.0155,-0.0093,0.0264,0.0077,0.0025,-31.3174,-28.6456,-6.1488,,adl
0.443892,0.0243,0.0097,-0.0237,0.0264,0.0077,0.0025,-31.3174,-28.6456,-6.1488,,adl
0.444592,0.0243,0.0097,-0.0237,0.0264,0.0077,0.0025,-31.3174,-28.6456,-6.1488,,adl
0.445023,0.0243,0.0097,-0.0237,0.0264,0.0077,0.0025,-31.3174,-28.6456,-6.1488,,adl
0.445423,0.0243,0.0097,-0.0237,0.0264,0.0077,0.0025,-31.3174,-28.6456,-6.1488,,adl
0.445814,0.0243,0.0097,-0.0237,0.0264,0.0077,0.0025,-31.3174,-28.6456,-6.1488,,adl
0.446235,0.0243,0.0097,-0.0237,0.0264,0.0077,0.0025,-31.2808,-28.6944,-6.1732,,adl
0.498003,0.0243,0.0097,-0.0237,0.0264,0.0077,0.0025,-31.3418,-28.5968,-6.4172,,adl
0.504508,0.0243,0.0097,-0.0237,0.0224,0.0001,-0.0035,-31.3418,-28.5968,-6.4172,,adl
0.508769,0.0243,0.0097,-0.0237,0.0224,0.0001,-0.0035,-31.3418,-28.5968,-6.4172,,adl
0.509493,0.0243,0.0097,-0.0237,0.0224,0.0001,-0.0035,-31.3418,-28.5968,-6.4172,,adl
0.510105,0.0243,0.0097,-0.0237,0.0224,0.0001,-0.0035,-31.3418,-28.5968,-6.4172,,adl
0.516168,0.0035,-0.002,0.0091,0.0224,0.0001,-0.0035,-31.3418,-28.5968,-6.4172,,adl
0.548281,0.0035,-0.002,0.0091,0.0224,0.0001,-0.0035,-31.3296,-28.6334,-6.4416,,adl
0.574651,0.0035,-0.002,0.0091,0.0238,0.004,0.0011,-31.3296,-28.6334,-6.4416,,adl
0.575376,0.0035,-0.002,0.0091,0.0238,0.004,0.0011,-31.3296,-28.6334,-6.4416,,adl
0.576123,0.0035,-0.002,0.0091,0.0238,0.004,0.0011,-31.3296,-28.6334,-6.4416,,adl
0.576535,0.0035,-0.002,0.0091,0.0238,0.004,0.0011,-31.3296,-28.6334,-6.4416,,adl
0.584394,-0.0048,0.0218,-0.0139,0.0238,0.004,0.0011,-31.3296,-28.6334,-6.4416,,adl
0.59731,-0.0048,0.0218,-0.0139,0.0238,0.004,0.0011,-31.3662,-28.67,-6.4172,,adl
0.643572,-0.0048,0.0218,-0.0139,0.0228,-0.0009,0.0,-31.3662,-28.67,-6.4172,,adl
0.645022,-0.0048,0.0218,-0.0139,0.0228,-0.0009,0.0,-31.3662,-28.67,-6.4172,,adl
0.645687,-0.0048,0.0218,-0.0139,0.0228,-0.0009,0.0,-31.3662,-28.67,-6.4172,,adl
0.646336,-0.0048,0.0218,-0.0139,0.0228,-0.0009,0.0,-31.3662,-28.67,-6.4172,,adl
0.646917,-0.0048,0.0218,-0.0139,0.0228,-0.0009,0.0,-31.3662,-28.67,-6.4172,,adl
0.650495,-0.0048,0.0218,-0.0139,0.0228,-0.0009,0.0,-31.3418,-28.7066,-6.3684,,adl
0.653977,0.0058,-0.0127,0.0056,0.0228,-0.0009,0.0,-31.3418,-28.7066,-6.3684,,adl
0.697847,0.0058,-0.0127,0.0056,0.0228,-0.0009,0.0,-31.3418,-28.6944,-6.3562,,adl
0.711513,0.0058,-0.0127,0.0056,0.0228,-0.0009,0.0,-31.3418,-28.6944,-6.3562,,adl
0.712624,0.0058,-0.0127,0.0056,0.0228,-0.0009,0.0,-31.3418,-28.6944,-6.3562,,adl
0.713246,0.0058,-0.0127,0.0056,0.0228,-0.0009,0.0,-31.3418,-28.6944,-6.3562,,adl
0.713862,0.0058,-0.0127,0.0056,0.0266,0.0068,0.0017,-31.3418,-28.6944,-6.3562,,adl
0.72526,-0.0085,0.0008,0.0002,0.0266,0.0068,0.0017,-31.3418,-28.6944,-6.3562,,adl
0.748098,-0.0085,0.0008,0.0002,0.0266,0.0068,0.0017,-31.3906,-28.7798,-6.2708,,adl
0.777064,-0.0085,0.0008,0.0002,0.0266,0.0068,0.0017,-31.3906,-28.7798,-6.2708,,adl
0.777728,-0.0085,0.0008,0.0002,0.0266,0.0068,0.0017,-31.3906,-28.7798,-6.2708,,adl
0.778154,-0.0085,0.0008,0.0002,0.0266,0.0068,0.0017,-31.3906,-28.7798,-6.2708,,adl
0.783188,-0.0085,0.0008,0.0002,0.022,-0.01,-0.0051,-31.3906,-28.7798,-6.2708,,adl
0.794063,-0.0078,-0.0077,0.0097,0.022,-0.01,-0.0051,-31.3906,-28.7798,-6.2708,,adl
0.797857,-0.0078,-0.0077,0.0097,0.022,-0.01,-0.0051,-31.354,-28.8286,-6.2586,,adl
0.843952,-0.0078,-0.0077,0.0097,0.022,-0.01,-0.0051,-31.354,-28.8286,-6.2586,,adl
0.84525,-0.0078,-0.0077,0.0097,0.022,-0.01,-0.0051,-31.354,-28.8286,-6.2586,,adl
0.846034,-0.0078,-0.0077,0.0097,0.022,-0.01,-0.0051,-31.354,-28.8286,-6.2586,,adl
0.846808,-0.0078,-0.0077,0.0097,0.022,-0.01,-0.0051,-31.354,-28.8286,-6.2586,,adl
0.847583,-0.0078,-0.0077,0.0097,0.022,-0.01,-0.0051,-31.415,-28.7798,-6.2342,,adl
0.853364,-0.0078,-0.0077,0.0097,0.0218,0.0048,0.0011,-31.415,-28.7798,-6.2342,,adl
0.86324,0.0513,0.0354,-0.0497,0.0218,0.0048,0.0011,-31.415,-28.7798,-6.2342,,adl
0.897962,0.0513,0.0354,-0.0497,0.0218,0.0048,0.0011,-31.4028,-28.7798,-6.1,,adl
0.910249,0.0513,0.0354,-0.0497,0.0218,0.0048,0.0011,-31.4028,-28.7798,-6.1,,adl
0.91079,0.0513,0.0354,-0.0497,0.0218,0.0048,0.0011,-31.4028,-28.7798,-6.1,,adl
0.911194,0.0513,0.0354,-0.0497,0.0218,0.0048,0.0011,-31.4028,-28.7798,-6.1,,adl
0.924458,0.0513,0.0354,-0.0497,0.0196,0.0161,-0.0021,-31.4028,-28.7798,-6.1,,adl
0.932904,0.0106,-0.0003,0.0213,0.0196,0.0161,-0.0021,-31.4028,-28.7798,-6.1,,adl
0.947713,0.0106,-0.0003,0.0213,0.0196,0.0161,-0.0021,-31.4272,-28.7432,-6.0146,,adl
0.97692,0.0106,-0.0003,0.0213,0.0196,0.0161,-0.0021,-31.4272,-28.7432,-6.0146,,adl
0.977954,0.0106,-0.0003,0.0213,0.0196,0.0161,-0.0021,-31.4272,-28.7432,-6.0146,,adl
0.978632,0.0106,-0.0003,0.0213,0.0196,0.0161,-0.0021,-31.4272,-28.7432,-6.0146,,adl
0.994747,0.0106,-0.0003,0.0213,-0.0039,-0.0045,-0.0007,-31.4272,-28.7432,-6.0146,,adl
0.998878,0.0106,-0.0003,0.0213,-0.0039,-0.0045,-0.0007,-31.4028,-28.7554,-6.0512,,adl
1.000934,-0.03,-0.0193,0.0243,-0.0039,-0.0045,-0.0007,-31.4028,-28.7554,-6.0512,,adl
1.048651,-0.03,-0.0193,0.0243,-0.0039,-0.0045,-0.0007,-31.354,-28.6822,-6.0512,,adl
1.050128,-0.03,-0.0193,0.0243,-0.0039,-0.0045,-0.0007,-31.354,-28.6822,-6.0512,,adl
1.051041,-0.03,-0.0193,0.0243,-0.0039,-0.0045,-0.0007,-31.354,-28.6822,-6.0512,,adl
1.052014,-0.03,-0.0193,0.0243,-0.0039,-0.0045,-0.0007,-31.354,-28.6822,-6.0512,,adl
1.052943,-0.03,-0.0193,0.0243,-0.0039,-0.0045,-0.0007,-31.354,-28.6822,-6.0512,,adl
1.062624,-0.03,-0.0193,0.0243,-0.0137,-0.0045,-0.004,-31.354,-28.6822,-6.0512,,adl
1.072789,0.0096,0.0378,-0.0093,-0.0137,-0.0045,-0.004,-31.354,-28.6822,-6.0512,,adl
1.098198,0.0096,0.0378,-0.0093,-0.0137,-0.0045,-0.004,-31.354,-28.6578,-6.1,,adl
1.110263,0.0096,0.0378,-0.0093,-0.0137,-0.0045,-0.004,-31.354,-28.6578,-6.1,,adl
1.111362,0.0096,0.0378,-0.0093,-0.0137,-0.0045,-0.004,-31.354,-28.6578,-6.1,,adl
1.112389,0.0096,0.0378,-0.0093,-0.0137,-0.0045,-0.004,-31.354,-28.6578,-6.1,,adl
1.132773,0.0096,0.0378,-0.0093,-0.0273,0.0036,0.0049,-31.354,-28.6578,-6.1,,adl
1.142159,0.0081,0.0265,-0.0096,-0.0273,0.0036,0.0049,-31.354,-28.6578,-6.1,,adl
1.148055,0.0081,0.0265,-0.0096,-0.0273,0.0036,0.0049,-31.3174,-28.5846,-6.1488,,adl
1.176877,0.0081,0.0265,-0.0096,-0.0273,0.0036,0.0049,-31.3174,-28.5846,-6.1488,,adl
1.177903,0.0081,0.0265,-0.0096,-0.0273,0.0036,0.0049,-31.3174,-28.5846,-6.1488,,adl
1.178533,0.0081,0.0265,-0.0096,-0.0273,0.0036,0.0049,-31.3174,-28.5846,-6.1488,,adl
1.197672,0.0081,0.0265,-0.0096,-0.0273,0.0036,0.0049,-31.3052,-28.5236,-6.2708,,adl
1.200075,0.0081,0.0265,-0.0096,-0.0229,-0.0132,-0.0017,-31.3052,-28.5236,-6.2708,,adl
1.212051,-0.0128,-0.0016,0.0505,-0.0229,-0.0132,-0.0017,-31.3052,-28.5236,-6.2708,,adl
1.243476,-0.0128,-0.0016,0.0505,-0.0229,-0.0132,-0.0017,-31.3052,-28.5236,-6.2708,,adl
1.244906,-0.0128,-0.0016,0.0505,-0.0229,-0.0132,-0.0017,-31.3052,-28.5236,-6.2708,,adl
1.245791,-0.0128,-0.0016,0.0505,-0.0229,-0.0132,-0.0017,-31.3052,-28.5236,-6.2708,,adl
1.246691,-0.0128,-0.0016,0.0505,-0.0229,-0.0132,-0.0017,-31.3052,-28.5236,-6.2708,,adl
1.247607,-0.0128,-0.0016,0.0505,-0.0229,-0.0132,-0.0017,-31.2686,-28.5724,-6.2708,,adl
1.273677,-0.0128,-0.0016,0.0505,-0.0164,-0.0057,0.0024,-31.2686,-28.5724,-6.2708,,adl
1.281945,-0.0083,0.0155,-0.0573,-0.0164,-0.0057,0.0024,-31.2686,-28.5724,-6.2708,,adl
1.297521,-0.0083,0.0155,-0.0573,-0.0164,-0.0057,0.0024,-31.3052,-28.6456,-6.3196,,adl
1.309334,-0.0083,0.0155,-0.0573,-0.0164,-0.0057,0.0024,-31.3052,-28.6456,-6.3196,,adl
1.310388,-0.0083,0.0155,-0.0573,-0.0164,-0.0057,0.0024,-31.3052,-28.6456,-6.3196,,adl
1.311108,-0.0083,0.0155,-0.0573,-0.0164,-0.0057,0.0024,-31.3052,-28.6456,-6.3196,,adl
1.342086,-0.0083,0.0155,-0.0573,-0.0354,-0.0113,0.0032,-31.3052,-28.6456,-6.3196,,adl
1.347686,-0.0083,0.0155,-0.0573,-0.0354,-0.0113,0.0032,-31.293,-28.67,-6.344,,adl
1.351838,-0.0016,0.0401,0.0129,-0.0354,-0.0113,0.0032,-31.293,-28.67,-6.344,,adl
1.376721,-0.0016,0.0401,0.0129,-0.0354,-0.0113,0.0032,-31.293,-28.67,-6.344,,adl
1.377872,-0.0016,0.0401,0.0129,-0.0354,-0.0113,0.0032,-31.293,-28.67,-6.344,,adl
1.378652,-0.0016,0.0401,0.0129,-0.0354,-0.0113,0.0032,-31.293,-28.67,-6.344,,adl
1.397811,-0.0016,0.0401,0.0129,-0.0354,-0.0113,0.0032,-31.3174,-28.609,-6.3318,,adl
1.411462,-0.0016,0.0401,0.0129,-0.029,-0.0029,-0.0009,-31.3174,-28.609,-6.3318,,adl
1.421256,0.0074,-0.0232,-0.0067,-0.029,-0.0029,-0.0009,-31.3174,-28.609,-6.3318,,adl
1.443572,0.0074,-0.0232,-0.0067,-0.029,-0.0029,-0.0009,-31.3174,-28.609,-6.3318,,adl
1.444912,0.0074,-0.0232,-0.0067,-0.029,-0.0029,-0.0009,-31.3174,-28.609,-6.3318,,adl
1.445883,0.0074,-0.0232,-0.0067,-0.029,-0.0029,-0.0009,-31.3174,-28.609,-6.3318,,adl
1.446784,0.0074,-0.0232,-0.0067,-0.029,-0.0029,-0.0009,-31.3174,-28.609,-6.3318,,adl
1.447713,0.0074,-0.0232,-0.0067,-0.029,-0.0029,-0.0009,-31.3662,-28.5724,-6.3562,,adl
1.481522,0.0074,-0.0232,-0.0067,-0.0342,-0.0077,0.0007,-31.3662,-28.5724,-6.3562,,adl
1.491152,-0.008,0.026,0.0052,-0.0342,-0.0077,0.0007,-31.3662,-28.5724,-6.3562,,adl
1.497604,-0.008,0.026,0.0052,-0.0342,-0.0077,0.0007,-31.3784,-28.5602,-6.3562,,adl
1.510285,-0.008,0.026,0.0052,-0.0342,-0.0077,0.0007,-31.3784,-28.5602,-6.3562,,adl
1.511206,-0.008,0.026,0.0052,-0.0342,-0.0077,0.0007,-31.3784,-28.5602,-6.3562,,adl
1.512107,-0.008,0.026,0.0052,-0.0342,-0.0077,0.0007,-31.3784,-28.5602,-6.3562,,adl
1.548077,-0.008,0.026,0.0052,-0.0342,-0.0077,0.0007,-31.3906,-28.6212,-6.283,,adl
1.549371,-0.008,0.026,0.0052,-0.029,-0.0104,0.0011,-31.3906,-28.6212,-6.283,,adl
1.562773,-0.0179,0.0149,-0.0087,-0.029,-0.0104,0.0011,-31.3906,-28.6212,-6.283,,adl
1.57661,-0.0179,0.0149,-0.0087,-0.029,-0.0104,0.0011,-31.3906,-28.6212,-6.283,,adl
1.577664,-0.0179,0.0149,-0.0087,-0.029,-0.0104,0.0011,-31.3906,-28.6212,-6.283,,adl
1.578695,-0.0179,0.0149,-0.0087,-0.029,-0.0104,0.0011,-31.3906,-28.6212,-6.283,,adl
1.59775,-0.0179,0.0149,-0.0087,-0.029,-0.0104,0.0011,-31.3662,-28.6944,-6.0756,,adl
1.62129,-0.0179,0.0149,-0.0087,-0.0346,-0.0064,0.002,-31.3662,-28.6944,-6.0756,,adl
1.63169,0.0149,0.0132,0.0005,-0.0346,-0.0064,0.002,-31.3662,-28.6944,-6.0756,,adl
1.643358,0.0149,0.0132,0.0005,-0.0346,-0.0064,0.002,-31.3662,-28.6944,-6.0756,,adl
1.64455,0.0149,0.0132,0.0005,-0.0346,-0.0064,0.002,-31.3662,-28.6944,-6.0756,,adl
1.645335,0.0149,0.0132,0.0005,-0.0346,-0.0064,0.002,-31.3662,-28.6944,-6.0756,,adl
1.646087,0.0149,0.0132,0.0005,-0.0346,-0.0064,0.002,-31.3662,-28.6944,-6.0756,,adl
1.646867,0.0149,0.0132,0.0005,-0.0346,-0.0064,0.002,-31.4028,-28.7188,-5.9902,,adl
1.689355,0.0149,0.0132,0.0005,-0.0309,-0.0056,0.0019,-31.4028,-28.7188,-5.9902,,adl
1.696792,0.0149,0.0132,0.0005,-0.0309,-0.0056,0.0019,-31.3662,-28.6578,-6.0146,,adl
1.699191,0.0082,0.0065,-0.0022,-0.0309,-0.0056,0.0019,-31.3662,-28.6578,-6.0146,,adl
1.709051,0.0082,0.0065,-0.0022,-0.0309,-0.0056,0.0019,-31.3662,-28.6578,-6.0146,,adl
1.710045,0.0082,0.0065,-0.0022,-0.0309,-0.0056,0.0019,-31.3662,-28.6578,-6.0146,,adl
1.71081,0.0082,0.0065,-0.0022,-0.0309,-0.0056,0.0019,-31.3662,-28.6578,-6.0146,,adl
1.748558,0.0082,0.0065,-0.0022,-0.0309,-0.0056,0.0019,-31.3662,-28.6578,-6.0512,,adl
1.760285,0.0082,0.0065,-0.0022,-0.0312,-0.0079,0.0009,-31.3662,-28.6578,-6.0512,,adl
1.770107,-0.0133,0.009,0.0033,-0.0312,-0.0079,0.0009,-31.3662,-28.6578,-6.0512,,adl
1.775661,-0.0133,0.009,0.0033,-0.0312,-0.0079,0.0009,-31.3662,-28.6578,-6.0512,,adl
1.77668,-0.0133,0.009,0.0033,-0.0312,-0.0079,0.0009,-31.3662,-28.6578,-6.0512,,adl
1.77747,-0.0133,0.009,0.0033,-0.0312,-0.0079,0.0009,-31.3662,-28.6578,-6.0512,,adl
1.798056,-0.0133,0.009,0.0033,-0.0312,-0.0079,0.0009,-31.3296,-28.6822,-6.1122,,adl
1.831729,-0.0133,0.009,0.0033,-0.029,-0.0104,0.0,-31.3296,-28.6822,-6.1122,,adl
1.841482,-0.0125,0.0035,-0.0038,-0.029,-0.0104,0.0,-31.3296,-28.6822,-6.1122,,adl
1.842557,-0.0125,0.0035,-0.0038,-0.029,-0.0104,0.0,-31.3296,-28.6822,-6.1122,,adl
1.843341,-0.0125,0.0035,-0.0038,-0.029,-0.0104,0.0,-31.3296,-28.6822,-6.1122,,adl
1.844406,-0.0125,0.0035,-0.0038,-0.029,-0.0104,0.0,-31.3296,-28.6822,-6.1122,,adl
1.8452,-0.0125,0.0035,-0.0038,-0.029,-0.0104,0.0,-31.3296,-28.6822,-6.1122,,adl
1.848047,-0.0125,0.0035,-0.0038,-0.029,-0.0104,0.0,-31.3418,-28.792,-6.161,,adl
1.898495,-0.0125,0.0035,-0.0038,-0.029,-0.0104,0.0,-31.3662,-28.792,-6.2342,,adl
1.900039,-0.0125,0.0035,-0.0038,-0.0308,-0.0064,0.0007,-31.3662,-28.792,-6.2342,,adl
1.908758,0.0069,0.0062,0.0051,-0.0308,-0.0064,0.0007,-31.3662,-28.792,-6.2342,,adl
1.909756,0.0069,0.0062,0.0051,-0.0308,-0.0064,0.0007,-31.3662,-28.792,-6.2342,,adl
1.9105,0.0069,0.0062,0.0051,-0.0308,-0.0064,0.0007,-31.3662,-28.792,-6.2342,,adl
1.911208,0.0069,0.0062,0.0051,-0.0308,-0.0064,0.0007,-31.3662,-28.792,-6.2342,,adl
1.949692,0.0069,0.0062,0.0051,-0.0308,-0.0064,0.0007,-31.3296,-28.7066,-6.4416,,adl
1.969434,0.0069,0.0062,0.0051,-0.0365,-0.0072,0.0036,-31.3296,-28.7066,-6.4416,,adl
1.976402,0.0069,0.0062,0.0051,-0.0365,-0.0072,0.0036,-31.3296,-28.7066,-6.4416,,adl
1.977309,0.0069,0.0062,0.0051,-0.0365,-0.0072,0.0036,-31.3296,-28.7066,-6.4416,,adl
1.978107,0.0069,0.0062,0.0051,-0.0365,-0.0072,0.0036,-31.3296,-28.7066,-6.4416,,adl
1.978879,0.0059,0.0122,-0.0016,-0.0365,-0.0072,0.0036,-31.3296,-28.7066,-6.4416,,adl
1.998684,0.0059,0.0122,-0.0016,-0.0365,-0.0072,0.0036,-31.3174,-28.67,-6.6612,,adl
2.040943,0.0059,0.0122,-0.0016,-0.0238,0.0004,0.0015,-31.3174,-28.67,-6.6612,,adl
2.04208,0.0059,0.0122,-0.0016,-0.0238,0.0004,0.0015,-31.3174,-28.67,-6.6612,,adl
2.04275,0.0059,0.0122,-0.0016,-0.0238,0.0004,0.0015,-31.3174,-28.67,-6.6612,,adl
2.04334,0.0059,0.0122,-0.0016,-0.0238,0.0004,0.0015,-31.3174,-28.67,-6.6612,,adl
2.044034,0.0059,0.0122,-0.0016,-0.0238,0.0004,0.0015,-31.3174,-28.67,-6.6612,,adl
2.048085,0.0059,0.0122,-0.0016,-0.0238,0.0004,0.0015,-31.3174,-28.5602,-6.8198,,adl
2.04887,-0.0029,0.0089,0.009,-0.0238,0.0004,0.0015,-31.3174,-28.5602,-6.8198,,adl
2.099047,-0.0029,0.0089,0.009,-0.0238,0.0004,0.0015,-31.3052,-28.5968,-6.771,,adl
2.110696,-0.0029,0.0089,0.009,0.0047,-0.0047,0.0021,-31.3052,-28.5968,-6.771,,adl
2.111703,-0.0029,0.0089,0.009,0.0047,-0.0047,0.0021,-31.3052,-28.5968,-6.771,,adl
2.112533,-0.0029,0.0089,0.009,0.0047,-0.0047,0.0021,-31.3052,-28.5968,-6.771,,adl
2.113175,-0.0029,0.0089,0.009,0.0047,-0.0047,0.0021,-31.3052,-28.5968,-6.771,,adl
2.118884,-0.0095,-0.0316,-0.0162,0.0047,-0.0047,0.0021,-31.3052,-28.5968,-6.771,,adl
2.148601,-0.0095,-0.0316,-0.0162,0.0047,-0.0047,0.0021,-31.2686,-28.5968,-6.8198,,adl
2.178843,-0.0095,-0.0316,-0.0162,0.0047,-0.0047,0.0021,-31.2686,-28.5968,-6.8198,,adl
2.179929,-0.0095,-0.0316,-0.0162,0.0047,-0.0047,0.0021,-31.2686,-28.5968,-6.8198,,adl
2.180615,-0.0095,-0.0316,-0.0162,0.0047,-0.0047,0.0021,-31.2686,-28.5968,-6.8198,,adl
2.18123,-0.0095,-0.0316,-0.0162,0.0047,-0.0047,0.0021,-31.2686,-28.5968,-6.8198,,adl
2.181846,-0.0095,-0.0316,-0.0162,-0.0024,0.0012,0.0003,-31.2686,-28.5968,-6.8198,,adl
2.189485,0.012,0.0286,0.0092,-0.0024,0.0012,0.0003,-31.2686,-28.5968,-6.8198,,adl
2.199499,0.012,0.0286,0.0092,-0.0024,0.0012,0.0003,-31.2686,-28.5724,-6.8198,,adl
2.244322,0.012,0.0286,0.0092,-0.0024,0.0012,0.0003,-31.2686,-28.5724,-6.8198,,adl
2.245467,0.012,0.0286,0.0092,-0.0024,0.0012,0.0003,-31.2686,-28.5724,-6.8198,,adl
2.246134,0.012,0.0286,0.0092,-0.0024,0.0012,0.0003,-31.2686,-28.5724,-6.8198,,adl
2.249056,0.012,0.0286,0.0092,-0.0024,0.0012,0.0003,-31.1954,-28.5358,-6.8442,,adl
2.249832,0.012,0.0286,0.0092,0.0218,0.0019,-0.0011,-31.1954,-28.5358,-6.8442,,adl
2.258428,-0.003,-0.0489,-0.0061,0.0218,0.0019,-0.0011,-31.1954,-28.5358,-6.8442,,adl
2.300199,-0.003,-0.0489,-0.0061,0.0218,0.0019,-0.0011,-31.2198,-28.5602,-6.8076,,adl
2.310652,-0.003,-0.0489,-0.0061,0.0218,0.0019,-0.0011,-31.2198,-28.5602,-6.8076,,adl
2.311592,-0.003,-0.0489,-0.0061,0.0218,0.0019,-0.0011,-31.2198,-28.5602,-6.8076,,adl
2.312487,-0.003,-0.0489,-0.0061,0.0218,0.0019,-0.0011,-31.2198,-28.5602,-6.8076,,adl
2.317551,-0.003,-0.0489,-0.0061,0.0132,0.0045,-0.0007,-31.2198,-28.5602,-6.8076,,adl
2.328769,0.0061,-0.0068,-0.0016,0.0132,0.0045,-0.0007,-31.2198,-28.5602,-6.8076,,adl
2.348782,0.0061,-0.0068,-0.0016,0.0132,0.0045,-0.0007,-31.2076,-28.5846,-6.649,,adl
2.37802,0.0061,-0.0068,-0.0016,0.0132,0.0045,-0.0007,-31.2076,-28.5846,-6.649,,adl
2.378968,0.0061,-0.0068,-0.0016,0.0132,0.0045,-0.0007,-31.2076,-28.5846,-6.649,,adl
2.379616,0.0061,-0.0068,-0.0016,0.0132,0.0045,-0.0007,-31.2076,-28.5846,-6.649,,adl
2.38042,0.0061,-0.0068,-0.0016,0.0132,0.0045,-0.0007,-31.2076,-28.5846,-6.649,,adl
2.389279,0.0061,-0.0068,-0.0016,0.0105,-0.0007,-0.0004,-31.2076,-28.5846,-6.649,,adl
2.398259,0.0061,-0.0068,-0.0016,0.0105,-0.0007,-0.0004,-31.171,-28.5724,-6.588,,adl
2.399277,-0.0127,0.006,0.0148,0.0105,-0.0007,-0.0004,-31.171,-28.5724,-6.588,,adl
2.445083,-0.0127,0.006,0.0148,0.0105,-0.0007,-0.0004,-31.171,-28.5724,-6.588,,adl
2.446383,-0.0127,0.006,0.0148,0.0105,-0.0007,-0.0004,-31.171,-28.5724,-6.588,,adl
2.447175,-0.0127,0.006,0.0148,0.0105,-0.0007,-0.0004,-31.171,-28.5724,-6.588,,adl
2.448103,-0.0127,0.006,0.0148,0.0105,-0.0007,-0.0004,-31.1954,-28.5968,-6.527,,adl
2.457622,-0.0127,0.006,0.0148,0.0133,0.0025,0.002,-31.1954,-28.5968,-6.527,,adl
2.470034,0.0081,-0.0109,-0.0055,0.0133,0.0025,0.002,-31.1954,-28.5968,-6.527,,adl
2.499489,0.0081,-0.0109,-0.0055,0.0133,0.0025,0.002,-31.232,-28.5602,-6.6002,,adl
2.511426,0.0081,-0.0109,-0.0055,0.0133,0.0025,0.002,-31.232,-28.5602,-6.6002,,adl
2.512178,0.0081,-0.0109,-0.0055,0.0133,0.0025,0.002,-31.232,-28.5602,-6.6002,,adl
2.512603,0.0081,-0.0109,-0.0055,0.0133,0.0025,0.002,-31.232,-28.5602,-6.6002,,adl
2.527615,0.0081,-0.0109,-0.0055,0.0031,0.0027,0.002,-31.232,-28.5602,-6.6002,,adl
2.537528,0.0163,-0.006,0.0068,0.0031,0.0027,0.002,-31.232,-28.5602,-6.6002,,adl
2.547525,0.0163,-0.006,0.0068,0.0031,0.0027,0.002,-31.2442,-28.548,-6.527,,adl
2.579033,0.0163,-0.006,0.0068,0.0031,0.0027,0.002,-31.2442,-28.548,-6.527,,adl
2.579742,0.0163,-0.006,0.0068,0.0031,0.0027,0.002,-31.2442,-28.548,-6.527,,adl
2.580494,0.0163,-0.006,0.0068,0.0031,0.0027,0.002,-31.2442,-28.548,-6.527,,adl
2.580912,0.0163,-0.006,0.0068,0.0031,0.0027,0.002,-31.2442,-28.548,-6.527,,adl
2.599913,0.0163,-0.006,0.0068,0.0031,0.0027,0.002,-31.2808,-28.5724,-6.5636,,adl
2.600562,0.0163,-0.006,0.0068,-0.0005,0.0011,0.0007,-31.2808,-28.5724,-6.5636,,adl
2.607136,-0.001,0.0078,-0.0001,-0.0005,0.0011,0.0007,-31.2808,-28.5724,-6.5636,,adl
2.645701,-0.001,0.0078,-0.0001,-0.0005,0.0011,0.0007,-31.2808,-28.5724,-6.5636,,adl
2.646739,-0.001,0.0078,-0.0001,-0.0005,0.0011,0.0007,-31.2808,-28.5724,-6.5636,,adl
2.647349,-0.001,0.0078,-0.0001,-0.0005,0.0011,0.0007,-31.2808,-28.5724,-6.5636,,adl
2.648205,-0.001,0.0078,-0.0001,-0.0005,0.0011,0.0007,-31.3052,-28.5602,-6.527,,adl
2.667932,-0.001,0.0078,-0.0001,0.0083,-0.0064,-0.0021,-31.3052,-28.5602,-6.527,,adl
2.678902,-0.0343,-0.0096,0.0012,0.0083,-0.0064,-0.0021,-31.3052,-28.5602,-6.527,,adl
2.697837,-0.0343,-0.0096,0.0012,0.0083,-0.0064,-0.0021,-31.232,-28.548,-6.5392,,adl
2.712285,-0.0343,-0.0096,0.0012,0.0083,-0.0064,-0.0021,-31.232,-28.548,-6.5392,,adl
2.713334,-0.0343,-0.0096,0.0012,0.0083,-0.0064,-0.0021,-31.232,-28.548,-6.5392,,adl
2.714095,-0.0343,-0.0096,0.0012,0.0083,-0.0064,-0.0021,-31.232,-28.548,-6.5392,,adl
2.736831,-0.0343,-0.0096,0.0012,0.0041,0.0025,-0.0017,-31.232,-28.548,-6.5392,,adl
2.748852,-0.0343,-0.0096,0.0012,0.0041,0.0025,-0.0017,-31.2564,-28.4626,-6.6246,,adl
2.749765,0.0198,-0.0169,0.0015,0.0041,0.0025,-0.0017,-31.2564,-28.4626,-6.6246,,adl
2.778792,0.0198,-0.0169,0.0015,0.0041,0.0025,-0.0017,-31.2564,-28.4626,-6.6246,,adl
2.779933,0.0198,-0.0169,0.0015,0.0041,0.0025,-0.0017,-31.2564,-28.4626,-6.6246,,adl
2.780617,0.0198,-0.0169,0.0015,0.0041,0.0025,-0.0017,-31.2564,-28.4626,-6.6246,,adl
2.781218,0.0198,-0.0169,0.0015,0.0041,0.0025,-0.0017,-31.2564,-28.4626,-6.6246,,adl
2.797886,0.0198,-0.0169,0.0015,0.0041,0.0025,-0.0017,-31.3052,-28.487,-6.6246,,adl
2.806412,0.0198,-0.0169,0.0015,-0.0047,0.0032,0.0007,-31.3052,-28.487,-6.6246,,adl
2.81638,0.0055,0.015,0.0015,-0.0047,0.0032,0.0007,-31.3052,-28.487,-6.6246,,adl
2.845491,0.0055,0.015,0.0015,-0.0047,0.0032,0.0007,-31.3052,-28.487,-6.6246,,adl
2.846518,0.0055,0.015,0.0015,-0.0047,0.0032,0.0007,-31.3052,-28.487,-6.6246,,adl
2.847128,0.0055,0.015,0.0015,-0.0047,0.0032,0.0007,-31.3052,-28.487,-6.6246,,adl
2.847727,0.0055,0.015,0.0015,-0.0047,0.0032,0.0007,-31.232,-28.5602,-6.5514,,adl
2.878459,0.0055,0.015,0.0015,-0.0028,0.0019,0.0013,-31.232,-28.5602,-6.5514,,adl
2.886177,0.012,0.0027,0.0198,-0.0028,0.0019,0.0013,-31.232,-28.5602,-6.5514,,adl
2.898913,0.012,0.0027,0.0198,-0.0028,0.0019,0.0013,-31.1222,-28.67,-6.3928,,adl
2.912426,0.012,0.0027,0.0198,-0.0028,0.0019,0.0013,-31.1222,-28.67,-6.3928,,adl
2.913346,0.012,0.0027,0.0198,-0.0028,0.0019,0.0013,-31.1222,-28.67,-6.3928,,adl
2.913996,0.012,0.0027,0.0198,-0.0028,0.0019,0.0013,-31.1222,-28.67,-6.3928,,adl
2.946864,0.012,0.0027,0.0198,0.0145,0.0004,0.0012,-31.1222,-28.67,-6.3928,,adl
2.947568,0.012,0.0027,0.0198,0.0145,0.0004,0.0012,-31.1588,-28.7188,-6.344,,adl
2.957893,-0.0188,-0.0182,-0.0191,0.0145,0.0004,0.0012,-31.1588,-28.7188,-6.344,,adl
2.976058,-0.0188,-0.0182,-0.0191,0.0145,0.0004,0.0012,-31.1588,-28.7188,-6.344,,adl
2.976662,-0.0188,-0.0182,-0.0191,0.0145,0.0004,0.0012,-31.1588,-28.7188,-6.344,,adl
2.97709,-0.0188,-0.0182,-0.0191,0.0145,0.0004,0.0012,-31.1588,-28.7188,-6.344,,adl
2.977505,-0.0188,-0.0182,-0.0191,0.0145,0.0004,0.0012,-31.1588,-28.7188,-6.344,,adl
2.996504,-0.0188,-0.0182,-0.0191,0.0145,0.0004,0.0012,-31.1588,-28.7066,-6.344,,adl
3.015823,-0.0188,-0.0182,-0.0191,-0.0024,-0.0021,0.0,-31.1588,-28.7066,-6.344,,adl
3.027077,0.0039,0.0235,0.0113,-0.0024,-0.0021,0.0,-31.1588,-28.7066,-6.344,,adl
3.043925,0.0039,0.0235,0.0113,-0.0024,-0.0021,0.0,-31.1588,-28.7066,-6.344,,adl
3.045166,0.0039,0.0235,0.0113,-0.0024,-0.0021,0.0,-31.1588,-28.7066,-6.344,,adl
3.04595,0.0039,0.0235,0.0113,-0.0024,-0.0021,0.0,-31.1588,-28.7066,-6.344,,adl
3.046711,0.0039,0.0235,0.0113,-0.0024,-0.0021,0.0,-31.1344,-28.6944,-6.283,,adl
3.085799,0.0039,0.0235,0.0113,0.0047,0.0004,-0.0024,-31.1344,-28.6944,-6.283,,adl
3.096016,0.0039,0.0235,0.0113,0.0047,0.0004,-0.0024,-31.171,-28.67,-6.2342,,adl
3.096916,-0.0029,-0.0323,-0.0038,0.0047,0.0004,-0.0024,-31.171,-28.67,-6.2342,,adl
3.110262,-0.0029,-0.0323,-0.0038,0.0047,0.0004,-0.0024,-31.171,-28.67,-6.2342,,adl
3.11109,-0.0029,-0.0323,-0.0038,0.0047,0.0004,-0.0024,-31.171,-28.67,-6.2342,,adl
3.111689,-0.0029,-0.0323,-0.0038,0.0047,0.0004,-0.0024,-31.171,-28.67,-6.2342,,adl
3.149194,-0.0029,-0.0323,-0.0038,0.0047,0.0004,-0.0024,-31.2198,-28.7676,-6.1976,,adl
3.156931,-0.0029,-0.0323,-0.0038,-0.0015,-0.0011,0.0004,-31.2198,-28.7676,-6.1976,,adl
3.165268,0.008,0.012,0.0023,-0.0015,-0.0011,0.0004,-31.2198,-28.7676,-6.1976,,adl
3.176833,0.008,0.012,0.0023,-0.0015,-0.0011,0.0004,-31.2198,-28.7676,-6.1976,,adl
3.177785,0.008,0.012,0.0023,-0.0015,-0.0011,0.0004,-31.2198,-28.7676,-6.1976,,adl
3.178563,0.008,0.012,0.0023,-0.0015,-0.0011,0.0004,-31.2198,-28.7676,-6.1976,,adl
3.179298,0.008,0.012,0.0023,-0.0015,-0.0011,0.0004,-31.2198,-28.7676,-6.1976,,adl
3.199171,0.008,0.012,0.0023,-0.0015,-0.0011,0.0004,-31.1954,-28.7676,-6.1732,,adl
3.225869,0.008,0.012,0.0023,0.0063,0.0013,-0.0007,-31.1954,-28.7676,-6.1732,,adl
3.236617,-0.014,0.0004,0.0061,0.0063,0.0013,-0.0007,-31.1954,-28.7676,-6.1732,,adl
3.24279,-0.014,0.0004,0.0061,0.0063,0.0013,-0.0007,-31.1954,-28.7676,-6.1732,,adl
3.243572,-0.014,0.0004,0.0061,0.0063,0.0013,-0.0007,-31.1954,-28.7676,-6.1732,,adl
3.244303,-0.014,0.0004,0.0061,0.0063,0.0013,-0.0007,-31.1954,-28.7676,-6.1732,,adl
3.247662,-0.014,0.0004,0.0061,0.0063,0.0013,-0.0007,-31.2442,-28.6944,-6.2586,,adl
3.294955,-0.014,0.0004,0.0061,-0.0045,-0.0009,0.0015,-31.2442,-28.6944,-6.2586,,adl
3.296513,-0.014,0.0004,0.0061,-0.0045,-0.0009,0.0015,-31.3174,-28.6822,-6.3684,,adl
3.304781,0.0062,-0.0058,-0.0051,-0.0045,-0.0009,0.0015,-31.3174,-28.6822,-6.3684,,adl
3.308774,0.0062,-0.0058,-0.0051,-0.0045,-0.0009,0.0015,-31.3174,-28.6822,-6.3684,,adl
3.309679,0.0062,-0.0058,-0.0051,-0.0045,-0.0009,0.0015,-31.3174,-28.6822,-6.3684,,adl
3.310465,0.0062,-0.0058,-0.0051,-0.0045,-0.0009,0.0015,-31.3174,-28.6822,-6.3684,,adl
3.348255,0.0062,-0.0058,-0.0051,-0.0045,-0.0009,0.0015,-31.293,-28.5846,-6.4172,,adl
3.364783,0.0062,-0.0058,-0.0051,0.0005,0.0039,0.0036,-31.293,-28.5846,-6.4172,,adl
3.37421,-0.0006,0.0157,0.0042,0.0005,0.0039,0.0036,-31.293,-28.5846,-6.4172,,adl
3.375331,-0.0006,0.0157,0.0042,0.0005,0.0039,0.0036,-31.293,-28.5846,-6.4172,,adl
3.375842,-0.0006,0.0157,0.0042,0.0005,0.0039,0.0036,-31.293,-28.5846,-6.4172,,adl
3.376281,-0.0006,0.0157,0.0042,0.0005,0.0039,0.0036,-31.293,-28.5846,-6.4172,,adl
3.376683,-0.0006,0.0157,0.0042,0.0005,0.0039,0.0036,-31.293,-28.5846,-6.4172,,adl
3.399161,-0.0006,0.0157,0.0042,0.0005,0.0039,0.0036,-31.3052,-28.609,-6.344,,adl
3.436643,-0.0006,0.0157,0.0042,0.0264,0.0061,-0.0023,-31.3052,-28.609,-6.344,,adl
3.44261,-0.0014,-0.0173,0.0049,0.0264,0.0061,-0.0023,-31.3052,-28.609,-6.344,,adl
3.443383,-0.0014,-0.0173,0.0049,0.0264,0.0061,-0.0023,-31.3052,-28.609,-6.344,,adl
3.444243,-0.0014,-0.0173,0.0049,0.0264,0.0061,-0.0023,-31.3052,-28.609,-6.344,,adl
3.444888,-0.0014,-0.0173,0.0049,0.0264,0.0061,-0.0023,-31.3052,-28.609,-6.344,,adl
3.449664,-0.0014,-0.0173,0.0049,0.0264,0.0061,-0.0023,-31.3174,-28.5724,-6.4172,,adl
3.498371,-0.0014,-0.0173,0.0049,0.0264,0.0061,-0.0023,-31.3052,-28.548,-6.466,,adl
3.504153,-0.0014,-0.0173,0.0049,0.0494,0.017,-0.0011,-31.3052,-28.548,-6.466,,adl
3.508793,-0.0014,-0.0173,0.0049,0.0494,0.017,-0.0011,-31.3052,-28.548,-6.466,,adl
3.509476,-0.0014,-0.0173,0.0049,0.0494,0.017,-0.0011,-31.3052,-28.548,-6.466,,adl
3.510069,-0.0014,-0.0173,0.0049,0.0494,0.017,-0.0011,-31.3052,-28.548,-6.466,,adl
3.516013,0.0229,-0.0161,-0.0126,0.0494,0.017,-0.0011,-31.3052,-28.548,-6.466,,adl
3.549537,0.0229,-0.0161,-0.0126,0.0494,0.017,-0.0011,-31.2564,-28.548,-6.4904,,adl
3.575727,0.0229,-0.0161,-0.0126,0.0731,0.0117,-0.0039,-31.2564,-28.548,-6.4904,,adl
3.577153,0.0229,-0.0161,-0.0126,0.0731,0.0117,-0.0039,-31.2564,-28.548,-6.4904,,adl
3.577808,0.0229,-0.0161,-0.0126,0.0731,0.0117,-0.0039,-31.2564,-28.548,-6.4904,,adl
3.578408,0.0229,-0.0161,-0.0126,0.0731,0.0117,-0.0039,-31.2564,-28.548,-6.4904,,adl
3.578977,0.0229,-0.0161,-0.0126,0.0731,0.0117,-0.0039,-31.2564,-28.548,-6.4904,,adl
3.583565,-0.0235,-0.035,-0.0135,0.0731,0.0117,-0.0039,-31.2564,-28.548,-6.4904,,adl
3.59655,-0.0235,-0.035,-0.0135,0.0731,0.0117,-0.0039,-31.293,-28.5602,-6.4782,,adl
3.646343,-0.0235,-0.035,-0.0135,0.0497,0.0088,-0.006,-31.293,-28.5602,-6.4782,,adl
3.64775,-0.0235,-0.035,-0.0135,0.0497,0.0088,-0.006,-31.293,-28.5602,-6.4782,,adl
3.64856,-0.0235,-0.035,-0.0135,0.0497,0.0088,-0.006,-31.293,-28.5602,-6.4782,,adl
3.649165,-0.0235,-0.035,-0.0135,0.0497,0.0088,-0.006,-31.293,-28.5602,-6.4782,,adl
3.649785,-0.0235,-0.035,-0.0135,0.0497,0.0088,-0.006,-31.2808,-28.5602,-6.4782,,adl
3.654084,0.0117,-0.0349,0.0182,0.0497,0.0088,-0.006,-31.2808,-28.5602,-6.4782,,adl
3.700302,0.0117,-0.0349,0.0182,0.0497,0.0088,-0.006,-31.2564,-28.548,-6.4294,,adl
3.710539,0.0117,-0.0349,0.0182,0.0497,0.0088,-0.006,-31.2564,-28.548,-6.4294,,adl
3.711504,0.0117,-0.0349,0.0182,0.0497,0.0088,-0.006,-31.2564,-28.548,-6.4294,,adl
3.712233,0.0117,-0.0349,0.0182,0.0497,0.0088,-0.006,-31.2564,-28.548,-6.4294,,adl
3.71285,0.0117,-0.0349,0.0182,0.0133,0.0138,0.002,-31.2564,-28.548,-6.4294,,adl
3.72319,0.012,0.0487,-0.0002,0.0133,0.0138,0.002,-31.2564,-28.548,-6.4294,,adl
3.747859,0.012,0.0487,-0.0002,0.0133,0.0138,0.002,-31.232,-28.6212,-6.4782,,adl
3.77881,0.012,0.0487,-0.0002,0.0133,0.0138,0.002,-31.232,-28.6212,-6.4782,,adl
3.779952,0.012,0.0487,-0.0002,0.0133,0.0138,0.002,-31.232,-28.6212,-6.4782,,adl
3.780415,0.012,0.0487,-0.0002,0.0133,0.0138,0.002,-31.232,-28.6212,-6.4782,,adl
3.780832,0.012,0.0487,-0.0002,0.0133,0.0138,0.002,-31.232,-28.6212,-6.4782,,adl
3.782675,0.012,0.0487,-0.0002,0.0447,0.0089,0.0,-31.232,-28.6212,-6.4782,,adl
3.79365,-0.0036,-0.0233,0.0218,0.0447,0.0089,0.0,-31.232,-28.6212,-6.4782,,adl
3.796189,-0.0036,-0.0233,0.0218,0.0447,0.0089,0.0,-31.1954,-28.67,-6.4172,,adl
3.850572,-0.0036,-0.0233,0.0218,0.0447,0.0089,0.0,-31.2198,-28.7066,-6.3318,,adl
3.852421,-0.0036,-0.0233,0.0218,0.03,0.0055,-0.0025,-31.2198,-28.7066,-6.3318,,adl
3.858393,-0.0036,-0.0233,0.0218,0.03,0.0055,-0.0025,-31.2198,-28.7066,-6.3318,,adl
3.859124,-0.0036,-0.0233,0.0218,0.03,0.0055,-0.0025,-31.2198,-28.7066,-6.3318,,adl
3.859767,-0.0036,-0.0233,0.0218,0.03,0.0055,-0.0025,-31.2198,-28.7066,-6.3318,,adl
3.860562,-0.0036,-0.0233,0.0218,0.03,0.0055,-0.0025,-31.2198,-28.7066,-6.3318,,adl
3.8646,-0.0074,-0.0307,-0.02,0.03,0.0055,-0.0025,-31.2198,-28.7066,-6.3318,,adl
3.902774,-0.0074,-0.0307,-0.02,0.03,0.0055,-0.0025,-31.2198,-28.7798,-6.2586,,adl
3.908803,-0.0074,-0.0307,-0.02,0.03,0.0055,-0.0025,-31.2198,-28.7798,-6.2586,,adl
3.909775,-0.0074,-0.0307,-0.02,0.03,0.0055,-0.0025,-31.2198,-28.7798,-6.2586,,adl
3.922718,-0.0074,-0.0307,-0.02,0.0204,0.0072,-0.0001,-31.2198,-28.7798,-6.2586,,adl
3.932656,0.0007,0.0287,0.0094,0.0204,0.0072,-0.0001,-31.2198,-28.7798,-6.2586,,adl
3.964331,0.0007,0.0287,0.0094,0.0204,0.0072,-0.0001,-31.2808,-28.7798,-6.222,,adl
3.976911,0.0007,0.0287,0.0094,0.0204,0.0072,-0.0001,-31.2808,-28.7798,-6.222,,adl
3.978057,0.0007,0.0287,0.0094,0.0204,0.0072,-0.0001,-31.2808,-28.7798,-6.222,,adl
3.978672,0.0007,0.0287,0.0094,0.0204,0.0072,-0.0001,-31.2808,-28.7798,-6.222,,adl
3.979258,0.0007,0.0287,0.0094,0.0204,0.0072,-0.0001,-31.2808,-28.7798,-6.222,,adl
3.992537,0.0007,0.0287,0.0094,0.019,0.0053,-0.0008,-31.2808,-28.7798,-6.222,,adl
4.002826,0.0076,-0.0057,-0.0098,0.019,0.0053,-0.0008,-31.2808,-28.7798,-6.222,,adl
4.024198,0.0076,-0.0057,-0.0098,0.019,0.0053,-0.0008,-31.2686,-28.7798,-6.222,,adl
4.045614,0.0076,-0.0057,-0.0098,0.019,0.0053,-0.0008,-31.2686,-28.7798,-6.222,,adl
4.046959,0.0076,-0.0057,-0.0098,0.019,0.0053,-0.0008,-31.2686,-28.7798,-6.222,,adl
4.047718,0.0076,-0.0057,-0.0098,0.019,0.0053,-0.0008,-31.2686,-28.7798,-6.222,,adl
4.064214,0.0076,-0.0057,-0.0098,0.0063,0.0024,-0.0019,-31.2686,-28.7798,-6.222,,adl
4.073175,-0.006,0.0036,0.0112,0.0063,0.0024,-0.0019,-31.2686,-28.7798,-6.222,,adl
4.082245,-0.006,0.0036,0.0112,0.0063,0.0024,-0.0019,-31.232,-28.8286,-6.1976,,adl
4.112734,-0.006,0.0036,0.0112,0.0063,0.0024,-0.0019,-31.232,-28.8286,-6.1976,,adl
4.114043,-0.006,0.0036,0.0112,0.0063,0.0024,-0.0019,-31.232,-28.8286,-6.1976,,adl
4.114702,-0.006,0.0036,0.0112,0.0063,0.0024,-0.0019,-31.232,-28.8286,-6.1976,,adl
4.115506,-0.006,0.0036,0.0112,0.0063,0.0024,-0.0019,-31.232,-28.8286,-6.1976,,adl
4.134338,-0.006,0.0036,0.0112,0.0136,0.0027,-0.0009,-31.232,-28.8286,-6.1976,,adl
4.141709,-0.006,0.0036,0.0112,0.0136,0.0027,-0.0009,-31.232,-28.8408,-6.1366,,adl
4.142709,-0.0072,0.0152,-0.0039,0.0136,0.0027,-0.0009,-31.232,-28.8408,-6.1366,,adl
4.178691,-0.0072,0.0152,-0.0039,0.0136,0.0027,-0.0009,-31.232,-28.8408,-6.1366,,adl
4.180196,-0.0072,0.0152,-0.0039,0.0136,0.0027,-0.0009,-31.232,-28.8408,-6.1366,,adl
4.180811,-0.0072,0.0152,-0.0039,0.0136,0.0027,-0.0009,-31.232,-28.8408,-6.1366,,adl
4.201809,-0.0072,0.0152,-0.0039,0.0136,0.0027,-0.0009,-31.2198,-28.853,-5.978,,adl
4.203234,-0.0072,0.0152,-0.0039,0.0116,0.0019,0.0015,-31.2198,-28.853,-5.978,,adl
4.211738,0.0064,-0.0023,0.0011,0.0116,0.0019,0.0015,-31.2198,-28.853,-5.978,,adl
4.242427,0.0064,-0.0023,0.0011,0.0116,0.0019,0.0015,-31.2198,-28.853,-5.978,,adl
4.243227,0.0064,-0.0023,0.0011,0.0116,0.0019,0.0015,-31.2198,-28.853,-5.978,,adl
4.243672,0.0064,-0.0023,0.0011,0.0116,0.0019,0.0015,-31.2198,-28.853,-5.978,,adl
4.260404,0.0064,-0.0023,0.0011,0.0116,0.0019,0.0015,-31.2198,-28.8774,-5.8926,,adl
4.271426,0.0064,-0.0023,0.0011,0.0093,0.0051,-0.0007,-31.2198,-28.8774,-5.8926,,adl
4.281708,0.0036,0.0061,-0.0019,0.0093,0.0051,-0.0007,-31.2198,-28.8774,-5.8926,,adl
4.310692,0.0036,0.0061,-0.0019,0.0093,0.0051,-0.0007,-31.2198,-28.8774,-5.8926,,adl
4.311852,0.0036,0.0061,-0.0019,0.0093,0.0051,-0.0007,-31.2198,-28.8774,-5.8926,,adl
4.31255,0.0036,0.0061,-0.0019,0.0093,0.0051,-0.0007,-31.2198,-28.8774,-5.8926,,adl
4.313215,0.0036,0.0061,-0.0019,0.0093,0.0051,-0.0007,-31.2198,-28.8774,-5.8926,,adl
4.321383,0.0036,0.0061,-0.0019,0.0093,0.0051,-0.0007,-31.1954,-28.9018,-5.8926,,adl
4.341336,0.0036,0.0061,-0.0019,0.0123,0.0024,-0.0011,-31.1954,-28.9018,-5.8926,,adl
4.353317,-0.0062,0.0002,-0.0002,0.0123,0.0024,-0.0011,-31.1954,-28.9018,-5.8926,,adl
4.377309,-0.0062,0.0002,-0.0002,0.0123,0.0024,-0.0011,-31.1954,-28.9018,-5.8926,,adl
4.380467,-0.0062,0.0002,-0.0002,0.0123,0.0024,-0.0011,-31.1954,-28.9018,-5.8926,,adl
4.38271,-0.0062,0.0002,-0.0002,0.0123,0.0024,-0.0011,-31.1954,-28.9018,-5.8926,,adl
4.385173,-0.0062,0.0002,-0.0002,0.0123,0.0024,-0.0011,-31.2076,-28.8896,-5.8682,,adl
4.41126,-0.0062,0.0002,-0.0002,0.008,0.0008,-0.0003,-31.2076,-28.8896,-5.8682,,adl
4.421449,-0.011,0.001,-0.0029,0.008,0.0008,-0.0003,-31.2076,-28.8896,-5.8682,,adl
4.440892,-0.011,0.001,-0.0029,0.008,0.0008,-0.0003,-31.171,-28.9506,-5.8438,,adl
4.443389,-0.011,0.001,-0.0029,0.008,0.0008,-0.0003,-31.171,-28.9506,-5.8438,,adl
4.444894,-0.011,0.001,-0.0029,0.008,0.0008,-0.0003,-31.171,-28.9506,-5.8438,,adl
4.446229,-0.011,0.001,-0.0029,0.008,0.0008,-0.0003,-31.171,-28.9506,-5.8438,,adl
4.483214,-0.011,0.001,-0.0029,-0.0096,-0.0025,-0.0009,-31.171,-28.9506,-5.8438,,adl
4.491224,0.0017,0.0109,-0.001,-0.0096,-0.0025,-0.0009,-31.171,-28.9506,-5.8438,,adl
4.502997,0.0017,0.0109,-0.001,-0.0096,-0.0025,-0.0009,-31.1466,-28.9628,-5.795,,adl
4.514473,0.0017,0.0109,-0.001,-0.0096,-0.0025,-0.0009,-31.1466,-28.9628,-5.795,,adl
4.516127,0.0017,0.0109,-0.001,-0.0096,-0.0025,-0.0009,-31.1466,-28.9628,-5.795,,adl
4.517189,0.0017,0.0109,-0.001,-0.0096,-0.0025,-0.0009,-31.1466,-28.9628,-5.795,,adl
4.518256,0.0017,0.0109,-0.001,-0.0096,-0.0025,-0.0009,-31.1466,-28.9628,-5.795,,adl
4.549195,0.0017,0.0109,-0.001,-0.0096,-0.0025,-0.0009,-31.11,-28.8896,-5.8926,,adl
4.550948,0.0017,0.0109,-0.001,-0.0096,-0.0025,-0.0009,-31.11,-28.8774,-5.978,,adl
4.552197,0.0017,0.0109,-0.001,-0.0261,-0.0053,-0.0003,-31.11,-28.8774,-5.978,,adl
4.563017,-0.0014,0.0234,0.0063,-0.0261,-0.0053,-0.0003,-31.11,-28.8774,-5.978,,adl
4.577217,-0.0014,0.0234,0.0063,-0.0261,-0.0053,-0.0003,-31.11,-28.8774,-5.978,,adl
4.580771,-0.0014,0.0234,0.0063,-0.0261,-0.0053,-0.0003,-31.11,-28.8774,-5.978,,adl
4.583572,-0.0014,0.0234,0.0063,-0.0261,-0.0053,-0.0003,-31.11,-28.8774,-5.978,,adl
4.598426,-0.0014,0.0234,0.0063,-0.0261,-0.0053,-0.0003,-31.1466,-28.792,-6.0146,,adl
4.621055,-0.0014,0.0234,0.0063,-0.0345,-0.0039,0.0028,-31.1466,-28.792,-6.0146,,adl
4.636097,0.0047,0.0332,-0.007,-0.0345,-0.0039,0.0028,-31.1466,-28.792,-6.0146,,adl
4.644207,0.0047,0.0332,-0.007,-0.0345,-0.0039,0.0028,-31.1466,-28.792,-6.0146,,adl
4.646327,0.0047,0.0332,-0.007,-0.0345,-0.0039,0.0028,-31.1466,-28.792,-6.0146,,adl
4.648062,0.0047,0.0332,-0.007,-0.0345,-0.0039,0.0028,-31.1466,-28.792,-6.0146,,adl
4.64952,0.0047,0.0332,-0.007,-0.0345,-0.0039,0.0028,-31.1466,-28.7676,-6.1122,,adl
4.691055,0.0047,0.0332,-0.007,-0.0077,-0.0024,-0.0024,-31.1466,-28.7676,-6.1122,,adl
4.702262,0.0047,0.0332,-0.007,-0.0077,-0.0024,-0.0024,-31.1832,-28.7676,-6.161,,adl
4.705472,-0.0196,-0.0306,0.0025,-0.0077,-0.0024,-0.0024,-31.1832,-28.7676,-6.161,,adl
4.710439,-0.0196,-0.0306,0.0025,-0.0077,-0.0024,-0.0024,-31.1832,-28.7676,-6.161,,adl
4.713659,-0.0196,-0.0306,0.0025,-0.0077,-0.0024,-0.0024,-31.1832,-28.7676,-6.161,,adl
4.716319,-0.0196,-0.0306,0.0025,-0.0077,-0.0024,-0.0024,-31.1832,-28.7676,-6.161,,adl
4.717653,-0.0196,-0.0306,0.0025,-0.0077,-0.0024,-0.0024,-31.1832,-28.7676,-6.161,,adl
4.749192,-0.0196,-0.0306,0.0025,-0.0077,-0.0024,-0.0024,-31.1954,-28.7798,-6.1732,,adl
4.759967,-0.0196,-0.0306,0.0025,-0.0425,-0.0134,0.0051,-31.1954,-28.7798,-6.1732,,adl
4.771182,-0.002,0.0524,-0.0076,-0.0425,-0.0134,0.0051,-31.1954,-28.7798,-6.1732,,adl
4.776421,-0.002,0.0524,-0.0076,-0.0425,-0.0134,0.0051,-31.1954,-28.7798,-6.1732,,adl
4.777713,-0.002,0.0524,-0.0076,-0.0425,-0.0134,0.0051,-31.1954,-28.7798,-6.1732,,adl
4.779031,-0.002,0.0524,-0.0076,-0.0425,-0.0134,0.0051,-31.1954,-28.7798,-6.1732,,adl
4.79714,-0.002,0.0524,-0.0076,-0.0425,-0.0134,0.0051,-31.1466,-28.8042,-6.1732,,adl
4.830189,-0.002,0.0524,-0.0076,-0.024,-0.0051,0.0009,-31.1466,-28.8042,-6.1732,,adl
4.840317,0.0055,-0.0061,-0.0014,-0.024,-0.0051,0.0009,-31.1466,-28.8042,-6.1732,,adl
4.84357,0.0055,-0.0061,-0.0014,-0.024,-0.0051,0.0009,-31.1466,-28.8042,-6.1732,,adl
4.846292,0.0055,-0.0061,-0.0014,-0.024,-0.0051,0.0009,-31.1466,-28.8042,-6.1732,,adl
4.849424,0.0055,-0.0061,-0.0014,-0.024,-0.0051,0.0009,-31.1466,-28.8042,-6.1732,,adl
4.852176,0.0055,-0.0061,-0.0014,-0.024,-0.0051,0.0009,-31.1832,-28.7554,-6.222,,adl
4.898817,0.0055,-0.0061,-0.0014,-0.024,-0.0051,0.0009,-31.1954,-28.8164,-6.1122,,adl
4.902082,0.0055,-0.0061,-0.0014,-0.0337,-0.0067,0.0003,-31.1954,-28.8164,-6.1122,,adl
4.911409,-0.0067,0.0016,-0.0091,-0.0337,-0.0067,0.0003,-31.1954,-28.8164,-6.1122,,adl
4.914675,-0.0067,0.0016,-0.0091,-0.0337,-0.0067,0.0003,-31.1954,-28.8164,-6.1122,,adl
4.917274,-0.0067,0.0016,-0.0091,-0.0337,-0.0067,0.0003,-31.1954,-28.8164,-6.1122,,adl
4.919703,-0.0067,0.0016,-0.0091,-0.0337,-0.0067,0.0003,-31.1954,-28.8164,-6.1122,,adl
4.921408,-0.0067,0.0016,-0.0091,-0.0337,-0.0067,0.0003,-31.1954,-28.8164,-6.1122,,adl
4.949028,-0.0067,0.0016,-0.0091,-0.0337,-0.0067,0.0003,-31.2686,-28.792,-6.1244,,adl
4.969897,-0.0067,0.0016,-0.0091,-0.0361,-0.0072,-0.0003,-31.2686,-28.792,-6.1244,,adl
4.981403,-0.0067,0.0016,-0.0091,-0.0361,-0.0072,-0.0003,-31.2686,-28.792,-6.1244,,adl
4.984205,-0.0067,0.0016,-0.0091,-0.0361,-0.0072,-0.0003,-31.2686,-28.792,-6.1244,,adl
4.986582,-0.0067,0.0016,-0.0091,-0.0361,-0.0072,-0.0003,-31.2686,-28.792,-6.1244,,adl
4.989243,-0.0125,0.0223,-0.0015,-0.0361,-0.0072,-0.0003,-31.2686,-28.792,-6.1244,,adl
4.996835,-0.0125,0.0223,-0.0015,-0.0361,-0.0072,-0.0003,-31.3296,-28.8164,-6.1854,,adl
5.039673,-0.0125,0.0223,-0.0015,-0.0337,-0.0084,0.002,-31.3296,-28.8164,-6.1854,,adl
5.044103,-0.0125,0.0223,-0.0015,-0.0337,-0.0084,0.002,-31.3296,-28.8164,-6.1854,,adl
5.046539,-0.0125,0.0223,-0.0015,-0.0337,-0.0084,0.002,-31.3296,-28.8164,-6.1854,,adl
5.049732,-0.0125,0.0223,-0.0015,-0.0337,-0.0084,0.002,-31.3296,-28.8164,-6.1854,,adl
5.052476,-0.0125,0.0223,-0.0015,-0.0337,-0.0084,0.002,-31.354,-28.7676,-6.1976,,adl
5.054188,-0.0097,0.0069,0.0055,-0.0337,-0.0084,0.002,-31.354,-28.7676,-6.1976,,adl
5.099396,-0.0097,0.0069,0.0055,-0.0337,-0.0084,0.002,-31.3662,-28.731,-6.2464,,adl
5.112068,-0.0097,0.0069,0.0055,-0.0362,-0.0071,0.0017,-31.3662,-28.731,-6.2464,,adl
5.115272,-0.0097,0.0069,0.0055,-0.0362,-0.0071,0.0017,-31.3662,-28.731,-6.2464,,adl
5.118134,-0.0097,0.0069,0.0055,-0.0362,-0.0071,0.0017,-31.3662,-28.731,-6.2464,,adl
5.121144,-0.0097,0.0069,0.0055,-0.0362,-0.0071,0.0017,-31.3662,-28.731,-6.2464,,adl
5.12359,-0.0097,0.0069,0.0055,-0.0362,-0.0071,0.0017,-31.3662,-28.731,-6.2464,,adl
5.125535,0.0105,0.0091,-0.0018,-0.0362,-0.0071,0.0017,-31.3662,-28.731,-6.2464,,adl
5.149537,0.0105,0.0091,-0.0018,-0.0362,-0.0071,0.0017,-31.3418,-28.6944,-6.283,,adl
5.177457,0.0105,0.0091,-0.0018,-0.0362,-0.0048,0.0031,-31.3418,-28.6944,-6.283,,adl
5.180884,0.0105,0.0091,-0.0018,-0.0362,-0.0048,0.0031,-31.3418,-28.6944,-6.283,,adl
5.18335,0.0105,0.0091,-0.0018,-0.0362,-0.0048,0.0031,-31.3418,-28.6944,-6.283,,adl
5.186079,0.0105,0.0091,-0.0018,-0.0362,-0.0048,0.0031,-31.3418,-28.6944,-6.283,,adl
5.188831,0.0085,0.0067,-0.0015,-0.0362,-0.0048,0.0031,-31.3418,-28.6944,-6.283,,adl
5.198972,0.0085,0.0067,-0.0015,-0.0362,-0.0048,0.0031,-31.415,-28.609,-6.3684,,adl
5.244837,0.0085,0.0067,-0.0015,-0.0362,-0.0048,0.0031,-31.415,-28.609,-6.3684,,adl
5.247977,0.0085,0.0067,-0.0015,-0.0362,-0.0048,0.0031,-31.415,-28.609,-6.3684,,adl
5.250384,0.0085,0.0067,-0.0015,-0.0362,-0.0048,0.0031,-31.415,-28.609,-6.3684,,adl
5.253092,0.0085,0.0067,-0.0015,-0.0362,-0.0048,0.0031,-31.3784,-28.6212,-6.4172,,adl
5.255559,0.0085,0.0067,-0.0015,-0.0378,-0.0101,0.0009,-31.3784,-28.6212,-6.4172,,adl
5.258623,-0.0183,0.0159,-0.0013,-0.0378,-0.0101,0.0009,-31.3784,-28.6212,-6.4172,,adl
5.299061,-0.0183,0.0159,-0.0013,-0.0378,-0.0101,0.0009,-31.415,-28.5968,-6.5026,,adl
5.31231,-0.0183,0.0159,-0.0013,-0.0378,-0.0101,0.0009,-31.415,-28.5968,-6.5026,,adl
5.315709,-0.0183,0.0159,-0.0013,-0.0378,-0.0101,0.0009,-31.415,-28.5968,-6.5026,,adl
5.31829,-0.0183,0.0159,-0.0013,-0.0378,-0.0101,0.0009,-31.415,-28.5968,-6.5026,,adl
5.320914,-0.0183,0.0159,-0.0013,-0.0378,-0.0101,0.0009,-31.415,-28.5968,-6.5026,,adl
5.323314,-0.0183,0.0159,-0.0013,-0.0329,-0.0103,-0.0001,-31.415,-28.5968,-6.5026,,adl
5.331444,-0.009,-0.0042,0.0014,-0.0329,-0.0103,-0.0001,-31.415,-28.5968,-6.5026,,adl
5.346887,-0.009,-0.0042,0.0014,-0.0329,-0.0103,-0.0001,-31.3174,-28.6334,-6.4416,,adl
5.377739,-0.009,-0.0042,0.0014,-0.0329,-0.0103,-0.0001,-31.3174,-28.6334,-6.4416,,adl
5.381434,-0.009,-0.0042,0.0014,-0.0329,-0.0103,-0.0001,-31.3174,-28.6334,-6.4416,,adl
5.38441,-0.009,-0.0042,0.0014,-0.0329,-0.0103,-0.0001,-31.3174,-28.6334,-6.4416,,adl
5.389238,-0.009,-0.0042,0.0014,-0.0429,-0.0093,0.0003,-31.3174,-28.6334,-6.4416,,adl
5.398077,0.0051,0.0072,-0.0034,-0.0429,-0.0093,0.0003,-31.3174,-28.6334,-6.4416,,adl
5.399485,0.0051,0.0072,-0.0034,-0.0429,-0.0093,0.0003,-31.2686,-28.609,-6.527,,adl
5.445026,0.0051,0.0072,-0.0034,-0.0429,-0.0093,0.0003,-31.2686,-28.609,-6.527,,adl
5.448523,0.0051,0.0072,-0.0034,-0.0429,-0.0093,0.0003,-31.2686,-28.609,-6.527,,adl
5.450955,0.0051,0.0072,-0.0034,-0.0429,-0.0093,0.0003,-31.2686,-28.609,-6.527,,adl
5.45348,0.0051,0.0072,-0.0034,-0.0429,-0.0093,0.0003,-31.2442,-28.548,-6.6124,,adl
5.458472,0.0051,0.0072,-0.0034,-0.0272,0.0013,0.0008,-31.2442,-28.548,-6.6124,,adl
5.469021,0.0076,0.0195,0.0041,-0.0272,0.0013,0.0008,-31.2442,-28.548,-6.6124,,adl
5.498433,0.0076,0.0195,0.0041,-0.0272,0.0013,0.0008,-31.232,-28.548,-6.6246,,adl
5.51283,0.0076,0.0195,0.0041,-0.0272,0.0013,0.0008,-31.232,-28.548,-6.6246,,adl
5.515375,0.0076,0.0195,0.0041,-0.0272,0.0013,0.0008,-31.232,-28.548,-6.6246,,adl
5.5176,0.0076,0.0195,0.0041,-0.0272,0.0013,0.0008,-31.232,-28.548,-6.6246,,adl
5.519668,0.0076,0.0195,0.0041,-0.0272,0.0013,0.0008,-31.232,-28.548,-6.6246,,adl
5.527416,0.0076,0.0195,0.0041,0.0028,-0.0016,0.0024,-31.232,-28.548,-6.6246,,adl
5.537897,-0.0043,-0.0456,-0.0176,0.0028,-0.0016,0.0024,-31.232,-28.548,-6.6246,,adl
5.546613,-0.0043,-0.0456,-0.0176,0.0028,-0.0016,0.0024,-31.1954,-28.6334,-6.5148,,adl
5.577604,-0.0043,-0.0456,-0.0176,0.0028,-0.0016,0.0024,-31.1954,-28.6334,-6.5148,,adl
5.580659,-0.0043,-0.0456,-0.0176,0.0028,-0.0016,0.0024,-31.1954,-28.6334,-6.5148,,adl
5.582746,-0.0043,-0.0456,-0.0176,0.0028,-0.0016,0.0024,-31.1954,-28.6334,-6.5148,,adl
5.597063,-0.0043,-0.0456,-0.0176,-0.0369,-0.008,0.0033,-31.1954,-28.6334,-6.5148,,adl
5.600308,-0.0043,-0.0456,-0.0176,-0.0369,-0.008,0.0033,-31.1466,-28.7066,-6.3928,,adl
5.610943,0.0002,0.0441,0.0075,-0.0369,-0.008,0.0033,-31.1466,-28.7066,-6.3928,,adl
5.64344,0.0002,0.0441,0.0075,-0.0369,-0.008,0.0033,-31.1466,-28.7066,-6.3928,,adl
5.64593,0.0002,0.0441,0.0075,-0.0369,-0.008,0.0033,-31.1466,-28.7066,-6.3928,,adl
5.649124,0.0002,0.0441,0.0075,-0.0369,-0.008,0.0033,-31.1466,-28.7066,-6.3928,,adl
5.652309,0.0002,0.0441,0.0075,-0.0369,-0.008,0.0033,-31.11,-28.7554,-6.3074,,adl
5.666074,0.0002,0.0441,0.0075,-0.027,-0.0144,-0.0039,-31.11,-28.7554,-6.3074,,adl
5.675687,-0.009,-0.0274,0.0004,-0.027,-0.0144,-0.0039,-31.11,-28.7554,-6.3074,,adl
5.697402,-0.009,-0.0274,0.0004,-0.027,-0.0144,-0.0039,-31.1344,-28.7798,-6.2464,,adl
5.709658,-0.009,-0.0274,0.0004,-0.027,-0.0144,-0.0039,-31.1344,-28.7798,-6.2464,,adl
5.711059,-0.009,-0.0274,0.0004,-0.027,-0.0144,-0.0039,-31.1344,-28.7798,-6.2464,,adl
5.712228,-0.009,-0.0274,0.0004,-0.027,-0.0144,-0.0039,-31.1344,-28.7798,-6.2464,,adl
5.713248,-0.009,-0.0274,0.0004,-0.027,-0.0144,-0.0039,-31.1344,-28.7798,-6.2464,,adl
5.73704,-0.009,-0.0274,0.0004,-0.0372,-0.0061,0.0004,-31.1344,-28.7798,-6.2464,,adl
5.751766,-0.0017,0.0125,-0.0032,-0.0372,-0.0061,0.0004,-31.1344,-28.7798,-6.2464,,adl
5.754523,-0.0017,0.0125,-0.0032,-0.0372,-0.0061,0.0004,-31.1832,-28.7066,-6.3684,,adl
5.777675,-0.0017,0.0125,-0.0032,-0.0372,-0.0061,0.0004,-31.1832,-28.7066,-6.3684,,adl
5.781011,-0.0017,0.0125,-0.0032,-0.0372,-0.0061,0.0004,-31.1832,-28.7066,-6.3684,,adl
5.783687,-0.0017,0.0125,-0.0032,-0.0372,-0.0061,0.0004,-31.1832,-28.7066,-6.3684,,adl
5.797831,-0.0017,0.0125,-0.0032,-0.0372,-0.0061,0.0004,-31.1466,-28.7188,-6.405,,adl
5.805681,-0.0017,0.0125,-0.0032,-0.0409,-0.0144,-0.0032,-31.1466,-28.7188,-6.405,,adl
5.814783,-0.0112,0.0061,0.0041,-0.0409,-0.0144,-0.0032,-31.1466,-28.7188,-6.405,,adl
5.844691,-0.0112,0.0061,0.0041,-0.0409,-0.0144,-0.0032,-31.1466,-28.7188,-6.405,,adl
5.848837,-0.0112,0.0061,0.0041,-0.0409,-0.0144,-0.0032,-31.1466,-28.7188,-6.405,,adl
5.851664,-0.0112,0.0061,0.0041,-0.0409,-0.0144,-0.0032,-31.1466,-28.7188,-6.405,,adl
5.854631,-0.0112,0.0061,0.0041,-0.0409,-0.0144,-0.0032,-31.1344,-28.7676,-6.405,,adl
5.876186,-0.0112,0.0061,0.0041,-0.032,0.0021,0.0071,-31.1344,-28.7676,-6.405,,adl
5.886263,0.0168,0.0175,-0.0051,-0.032,0.0021,0.0071,-31.1344,-28.7676,-6.405,,adl
5.898564,0.0168,0.0175,-0.0051,-0.032,0.0021,0.0071,-31.1466,-28.6822,-6.4782,,adl
5.910978,0.0168,0.0175,-0.0051,-0.032,0.0021,0.0071,-31.1466,-28.6822,-6.4782,,adl
5.913989,0.0168,0.0175,-0.0051,-0.032,0.0021,0.0071,-31.1466,-28.6822,-6.4782,,adl
5.916288,0.0168,0.0175,-0.0051,-0.032,0.0021,0.0071,-31.1466,-28.6822,-6.4782,,adl
5.917503,0.0168,0.0175,-0.0051,-0.032,0.0021,0.0071,-31.1466,-28.6822,-6.4782,,adl
5.946362,0.0168,0.0175,-0.0051,-0.0357,-0.0071,0.0032,-31.1466,-28.6822,-6.4782,,adl
5.949531,0.0168,0.0175,-0.0051,-0.0357,-0.0071,0.0032,-31.2198,-28.5968,-6.6612,,adl
5.956032,0.0025,-0.0102,0.0007,-0.0357,-0.0071,0.0032,-31.2198,-28.5968,-6.6612,,adl
5.976863,0.0025,-0.0102,0.0007,-0.0357,-0.0071,0.0032,-31.2198,-28.5968,-6.6612,,adl
5.978528,0.0025,-0.0102,0.0007,-0.0357,-0.0071,0.0032,-31.2198,-28.5968,-6.6612,,adl
5.979938,0.0025,-0.0102,0.0007,-0.0357,-0.0071,0.0032,-31.2198,-28.5968,-6.6612,,adl
5.999717,0.0025,-0.0102,0.0007,-0.0357,-0.0071,0.0032,-31.2564,-28.5358,-6.8076,,adl
6.015972,0.0025,-0.0102,0.0007,-0.0458,-0.0032,0.0003,-31.2564,-28.5358,-6.8076,,adl
6.026165,-0.0166,0.0023,0.0048,-0.0458,-0.0032,0.0003,-31.2564,-28.5358,-6.8076,,adl
6.044813,-0.0166,0.0023,0.0048,-0.0458,-0.0032,0.0003,-31.2564,-28.5358,-6.8076,,adl
6.048006,-0.0166,0.0023,0.0048,-0.0458,-0.0032,0.0003,-31.2564,-28.5358,-6.8076,,adl
6.050836,-0.0166,0.0023,0.0048,-0.0458,-0.0032,0.0003,-31.2564,-28.5358,-6.8076,,adl
6.054559,-0.0166,0.0023,0.0048,-0.0458,-0.0032,0.0003,-31.2564,-28.5358,-6.8076,,adl
6.057228,-0.0166,0.0023,0.0048,-0.0458,-0.0032,0.0003,-31.3174,-28.4504,-6.9418,,adl
6.08557,-0.0166,0.0023,0.0048,-0.035,-0.0043,0.004,-31.3174,-28.4504,-6.9418,,adl
6.095511,-0.0059,0.0268,-0.0015,-0.035,-0.0043,0.004,-31.3174,-28.4504,-6.9418,,adl
6.098883,-0.0059,0.0268,-0.0015,-0.035,-0.0043,0.004,-31.3296,-28.3894,-7.0882,,adl
6.110958,-0.0059,0.0268,-0.0015,-0.035,-0.0043,0.004,-31.3296,-28.3894,-7.0882,,adl
6.114325,-0.0059,0.0268,-0.0015,-0.035,-0.0043,0.004,-31.3296,-28.3894,-7.0882,,adl
6.1173,-0.0059,0.0268,-0.0015,-0.035,-0.0043,0.004,-31.3296,-28.3894,-7.0882,,adl
6.148542,-0.0059,0.0268,-0.0015,-0.035,-0.0043,0.004,-31.354,-28.4138,-7.1004,,adl
6.155189,-0.0059,0.0268,-0.0015,-0.0065,0.0016,-0.0007,-31.354,-28.4138,-7.1004,,adl
6.165457,0.0116,-0.042,-0.0066,-0.0065,0.0016,-0.0007,-31.354,-28.4138,-7.1004,,adl
6.177662,0.0116,-0.042,-0.0066,-0.0065,0.0016,-0.0007,-31.354,-28.4138,-7.1004,,adl
6.178979,0.0116,-0.042,-0.0066,-0.0065,0.0016,-0.0007,-31.354,-28.4138,-7.1004,,adl
6.179952,0.0116,-0.042,-0.0066,-0.0065,0.0016,-0.0007,-31.354,-28.4138,-7.1004,,adl
6.196894,0.0116,-0.042,-0.0066,-0.0065,0.0016,-0.0007,-31.3906,-28.4138,-7.1126,,adl
6.225244,0.0116,-0.042,-0.0066,-0.0269,-0.0029,0.0009,-31.3906,-28.4138,-7.1126,,adl
6.235276,0.0058,0.0099,0.0069,-0.0269,-0.0029,0.0009,-31.3906,-28.4138,-7.1126,,adl
6.245755,0.0058,0.0099,0.0069,-0.0269,-0.0029,0.0009,-31.3906,-28.4138,-7.1126,,adl
6.248713,0.0058,0.0099,0.0069,-0.0269,-0.0029,0.0009,-31.3906,-28.4138,-7.1126,,adl
6.251573,0.0058,0.0099,0.0069,-0.0269,-0.0029,0.0009,-31.3906,-28.4138,-7.1126,,adl
6.253619,0.0058,0.0099,0.0069,-0.0269,-0.0029,0.0009,-31.3906,-28.4138,-7.1126,,adl
6.2556,0.0058,0.0099,0.0069,-0.0269,-0.0029,0.0009,-31.4394,-28.426,-7.137,,adl
6.295288,0.0058,0.0099,0.0069,0.0127,0.0004,0.0017,-31.4394,-28.426,-7.137,,adl
6.297784,0.0058,0.0099,0.0069,0.0127,0.0004,0.0017,-31.4272,-28.4992,-7.1004,,adl
6.30924,-0.018,-0.0248,-0.0092,0.0127,0.0004,0.0017,-31.4272,-28.4992,-7.1004,,adl
6.311275,-0.018,-0.0248,-0.0092,0.0127,0.0004,0.0017,-31.4272,-28.4992,-7.1004,,adl
6.313136,-0.018,-0.0248,-0.0092,0.0127,0.0004,0.0017,-31.4272,-28.4992,-7.1004,,adl
6.315156,-0.018,-0.0248,-0.0092,0.0127,0.0004,0.0017,-31.4272,-28.4992,-7.1004,,adl
6.348748,-0.018,-0.0248,-0.0092,0.0127,0.0004,0.0017,-31.354,-28.4748,-7.0882,,adl
6.364724,-0.018,-0.0248,-0.0092,-0.0064,-0.0031,0.0012,-31.354,-28.4748,-7.0882,,adl
6.377005,0.0042,0.0202,0.0032,-0.0064,-0.0031,0.0012,-31.354,-28.4748,-7.0882,,adl
6.37889,0.0042,0.0202,0.0032,-0.0064,-0.0031,0.0012,-31.354,-28.4748,-7.0882,,adl
6.380649,0.0042,0.0202,0.0032,-0.0064,-0.0031,0.0012,-31.354,-28.4748,-7.0882,,adl
6.38211,0.0042,0.0202,0.0032,-0.0064,-0.0031,0.0012,-31.354,-28.4748,-7.0882,,adl
6.397287,0.0042,0.0202,0.0032,-0.0064,-0.0031,0.0012,-31.3784,-28.4626,-7.137,,adl
6.434987,0.0042,0.0202,0.0032,0.0186,0.0037,-0.0032,-31.3784,-28.4626,-7.137,,adl
6.442976,0.005,-0.0503,-0.0046,0.0186,0.0037,-0.0032,-31.3784,-28.4626,-7.137,,adl
6.445395,0.005,-0.0503,-0.0046,0.0186,0.0037,-0.0032,-31.3784,-28.4626,-7.137,,adl
6.447491,0.005,-0.0503,-0.0046,0.0186,0.0037,-0.0032,-31.3784,-28.4626,-7.137,,adl
6.449938,0.005,-0.0503,-0.0046,0.0186,0.0037,-0.0032,-31.3784,-28.4626,-7.137,,adl
6.452076,0.005,-0.0503,-0.0046,0.0186,0.0037,-0.0032,-31.3784,-28.4626,-7.137,,adl
6.454224,0.005,-0.0503,-0.0046,0.0186,0.0037,-0.0032,-31.3418,-28.4382,-7.1492,,adl
6.498398,0.005,-0.0503,-0.0046,0.0186,0.0037,-0.0032,-31.3174,-28.4626,-7.1614,,adl
6.505433,0.005,-0.0503,-0.0046,0.0097,0.004,0.0009,-31.3174,-28.4626,-7.1614,,adl
6.509278,0.005,-0.0503,-0.0046,0.0097,0.004,0.0009,-31.3174,-28.4626,-7.1614,,adl
6.511349,0.005,-0.0503,-0.0046,0.0097,0.004,0.0009,-31.3174,-28.4626,-7.1614,,adl
6.513981,0.005,-0.0503,-0.0046,0.0097,0.004,0.0009,-31.3174,-28.4626,-7.1614,,adl
6.515716,0.0063,0.0042,-0.0086,0.0097,0.004,0.0009,-31.3174,-28.4626,-7.1614,,adl
6.548467,0.0063,0.0042,-0.0086,0.0097,0.004,0.0009,-31.2808,-28.4382,-7.1614,,adl
6.574068,0.0063,0.0042,-0.0086,0.0121,0.0003,-0.0023,-31.2808,-28.4382,-7.1614,,adl
6.5769,0.0063,0.0042,-0.0086,0.0121,0.0003,-0.0023,-31.2808,-28.4382,-7.1614,,adl
6.578271,0.0063,0.0042,-0.0086,0.0121,0.0003,-0.0023,-31.2808,-28.4382,-7.1614,,adl
6.579432,0.0063,0.0042,-0.0086,0.0121,0.0003,-0.0023,-31.2808,-28.4382,-7.1614,,adl
6.585128,-0.0155,-0.0008,0.0156,0.0121,0.0003,-0.0023,-31.2808,-28.4382,-7.1614,,adl
6.597658,-0.0155,-0.0008,0.0156,0.0121,0.0003,-0.0023,-31.2564,-28.426,-7.1248,,adl
6.644597,-0.0155,-0.0008,0.0156,0.0256,0.0088,0.0,-31.2564,-28.426,-7.1248,,adl
6.64715,-0.0155,-0.0008,0.0156,0.0256,0.0088,0.0,-31.2564,-28.426,-7.1248,,adl
6.649072,-0.0155,-0.0008,0.0156,0.0256,0.0088,0.0,-31.2564,-28.426,-7.1248,,adl
6.650801,-0.0155,-0.0008,0.0156,0.0256,0.0088,0.0,-31.2564,-28.426,-7.1248,,adl
6.653503,-0.0155,-0.0008,0.0156,0.0256,0.0088,0.0,-31.2564,-28.426,-7.1248,,adl
6.655177,-0.0155,-0.0008,0.0156,0.0256,0.0088,0.0,-31.2076,-28.4016,-7.1492,,adl
6.657754,0.0115,-0.0212,-0.0095,0.0256,0.0088,0.0,-31.2076,-28.4016,-7.1492,,adl
6.698595,0.0115,-0.0212,-0.0095,0.0256,0.0088,0.0,-31.2198,-28.4016,-7.198,,adl
6.711392,0.0115,-0.0212,-0.0095,0.0256,0.0088,0.0,-31.2198,-28.4016,-7.198,,adl
6.713813,0.0115,-0.0212,-0.0095,0.0256,0.0088,0.0,-31.2198,-28.4016,-7.198,,adl
6.715762,0.0115,-0.0212,-0.0095,0.0256,0.0088,0.0,-31.2198,-28.4016,-7.198,,adl
6.717702,0.0115,-0.0212,-0.0095,0.0366,0.0083,-0.0012,-31.2198,-28.4016,-7.198,,adl
6.725337,0.0123,-0.0248,-0.0004,0.0366,0.0083,-0.0012,-31.2198,-28.4016,-7.198,,adl
6.747009,0.0123,-0.0248,-0.0004,0.0366,0.0083,-0.0012,-31.2198,-28.4504,-7.1492,,adl
6.77819,0.0123,-0.0248,-0.0004,0.0366,0.0083,-0.0012,-31.2198,-28.4504,-7.1492,,adl
6.781176,0.0123,-0.0248,-0.0004,0.0366,0.0083,-0.0012,-31.2198,-28.4504,-7.1492,,adl
6.783233,0.0123,-0.0248,-0.0004,0.0366,0.0083,-0.0012,-31.2198,-28.4504,-7.1492,,adl
6.785558,0.0123,-0.0248,-0.0004,0.0314,0.0069,-0.002,-31.2198,-28.4504,-7.1492,,adl
6.793243,-0.0034,-0.0054,-0.0023,0.0314,0.0069,-0.002,-31.2198,-28.4504,-7.1492,,adl
6.798433,-0.0034,-0.0054,-0.0023,0.0314,0.0069,-0.002,-31.1954,-28.4016,-7.1736,,adl
6.844915,-0.0034,-0.0054,-0.0023,0.0314,0.0069,-0.002,-31.1954,-28.4016,-7.1736,,adl
6.848641,-0.0034,-0.0054,-0.0023,0.0314,0.0069,-0.002,-31.1954,-28.4016,-7.1736,,adl
6.850733,-0.0034,-0.0054,-0.0023,0.0314,0.0069,-0.002,-31.1954,-28.4016,-7.1736,,adl
6.853595,-0.0034,-0.0054,-0.0023,0.0314,0.0069,-0.002,-31.1954,-28.4016,-7.1736,,adl
6.857063,-0.0034,-0.0054,-0.0023,0.0314,0.0069,-0.002,-31.1222,-28.4382,-7.0638,,adl
6.85931,-0.0034,-0.0054,-0.0023,0.0373,0.0056,-0.0015,-31.1222,-28.4382,-7.0638,,adl
6.864121,-0.0085,-0.0204,0.0008,0.0373,0.0056,-0.0015,-31.1222,-28.4382,-7.0638,,adl
6.898324,-0.0085,-0.0204,0.0008,0.0373,0.0056,-0.0015,-31.0856,-28.4626,-6.9784,,adl
6.91151,-0.0085,-0.0204,0.0008,0.0373,0.0056,-0.0015,-31.0856,-28.4626,-6.9784,,adl
6.914657,-0.0085,-0.0204,0.0008,0.0373,0.0056,-0.0015,-31.0856,-28.4626,-6.9784,,adl
6.916976,-0.0085,-0.0204,0.0008,0.0373,0.0056,-0.0015,-31.0856,-28.4626,-6.9784,,adl
6.922844,-0.0085,-0.0204,0.0008,0.0262,0.0036,-0.002,-31.0856,-28.4626,-6.9784,,adl
6.932448,-0.0023,0.0003,0.0055,0.0262,0.0036,-0.002,-31.0856,-28.4626,-6.9784,,adl
6.948589,-0.0023,0.0003,0.0055,0.0262,0.0036,-0.002,-31.0856,-28.4626,-6.9784,,adl
6.978036,-0.0023,0.0003,0.0055,0.0262,0.0036,-0.002,-31.0856,-28.4626,-6.9784,,adl
6.981332,-0.0023,0.0003,0.0055,0.0262,0.0036,-0.002,-31.0856,-28.4626,-6.9784,,adl
6.983407,-0.0023,0.0003,0.0055,0.0262,0.0036,-0.002,-31.0856,-28.4626,-6.9784,,adl
6.99255,-0.0023,0.0003,0.0055,0.0409,0.0117,-0.0028,-31.0856,-28.4626,-6.9784,,adl
6.99833,-0.0023,0.0003,0.0055,0.0409,0.0117,-0.0028,-31.1344,-28.4748,-7.015,,adl
7.003089,0.0149,-0.0152,0.0098,0.0409,0.0117,-0.0028,-31.1344,-28.4748,-7.015,,adl
7.044957,0.0149,-0.0152,0.0098,0.0409,0.0117,-0.0028,-31.1344,-28.4748,-7.015,,adl
7.047758,0.0149,-0.0152,0.0098,0.0409,0.0117,-0.0028,-31.1344,-28.4748,-7.015,,adl
7.050011,0.0149,-0.0152,0.0098,0.0409,0.0117,-0.0028,-31.1344,-28.4748,-7.015,,adl
7.052196,0.0149,-0.0152,0.0098,0.0409,0.0117,-0.0028,-31.1344,-28.4748,-7.015,,adl
7.054268,0.0149,-0.0152,0.0098,0.0409,0.0117,-0.0028,-31.1954,-28.5358,-6.954,,adl
7.061765,0.0149,-0.0152,0.0098,0.0634,0.0103,-0.0007,-31.1954,-28.5358,-6.954,,adl
7.070841,-0.0061,-0.0334,-0.0194,0.0634,0.0103,-0.0007,-31.1954,-28.5358,-6.954,,adl
7.098417,-0.0061,-0.0334,-0.0194,0.0634,0.0103,-0.0007,-31.2076,-28.5724,-6.8564,,adl
7.111553,-0.0061,-0.0334,-0.0194,0.0634,0.0103,-0.0007,-31.2076,-28.5724,-6.8564,,adl
7.114224,-0.0061,-0.0334,-0.0194,0.0634,0.0103,-0.0007,-31.2076,-28.5724,-6.8564,,adl
7.116809,-0.0061,-0.0334,-0.0194,0.0634,0.0103,-0.0007,-31.2076,-28.5724,-6.8564,,adl
7.131547,-0.0061,-0.0334,-0.0194,0.0202,0.0005,-0.0001,-31.2076,-28.5724,-6.8564,,adl
7.141706,0.0021,0.0271,0.0044,0.0202,0.0005,-0.0001,-31.2076,-28.5724,-6.8564,,adl
7.148685,0.0021,0.0271,0.0044,0.0202,0.0005,-0.0001,-31.2564,-28.5968,-6.8442,,adl
7.17598,0.0021,0.0271,0.0044,0.0202,0.0005,-0.0001,-31.2564,-28.5968,-6.8442,,adl
7.178786,0.0021,0.0271,0.0044,0.0202,0.0005,-0.0001,-31.2564,-28.5968,-6.8442,,adl
7.18104,0.0021,0.0271,0.0044,0.0202,0.0005,-0.0001,-31.2564,-28.5968,-6.8442,,adl
7.198511,0.0021,0.0271,0.0044,0.0202,0.0005,-0.0001,-31.2076,-28.7188,-6.6368,,adl
7.201563,0.0021,0.0271,0.0044,0.0328,0.0047,-0.0024,-31.2076,-28.7188,-6.6368,,adl
7.212401,-0.0042,-0.0236,0.0099,0.0328,0.0047,-0.0024,-31.2076,-28.7188,-6.6368,,adl
7.244151,-0.0042,-0.0236,0.0099,0.0328,0.0047,-0.0024,-31.2076,-28.7188,-6.6368,,adl
7.247428,-0.0042,-0.0236,0.0099,0.0328,0.0047,-0.0024,-31.2076,-28.7188,-6.6368,,adl
7.249862,-0.0042,-0.0236,0.0099,0.0328,0.0047,-0.0024,-31.2076,-28.7188,-6.6368,,adl
7.252086,-0.0042,-0.0236,0.0099,0.0328,0.0047,-0.0024,-31.2076,-28.7188,-6.6368,,adl
7.254179,-0.0042,-0.0236,0.0099,0.0328,0.0047,-0.0024,-31.3418,-28.7432,-6.6734,,adl
7.271386,-0.0042,-0.0236,0.0099,0.0274,0.0057,-0.0012,-31.3418,-28.7432,-6.6734,,adl
7.281815,0.0011,-0.0034,-0.0062,0.0274,0.0057,-0.0012,-31.3418,-28.7432,-6.6734,,adl
7.298805,0.0011,-0.0034,-0.0062,0.0274,0.0057,-0.0012,-31.3906,-28.731,-6.71,,adl
7.311002,0.0011,-0.0034,-0.0062,0.0274,0.0057,-0.0012,-31.3906,-28.731,-6.71,,adl
7.313931,0.0011,-0.0034,-0.0062,0.0274,0.0057,-0.0012,-31.3906,-28.731,-6.71,,adl
7.316154,0.0011,-0.0034,-0.0062,0.0274,0.0057,-0.0012,-31.3906,-28.731,-6.71,,adl
7.341214,0.0011,-0.0034,-0.0062,0.0446,0.0068,-0.0011,-31.3906,-28.731,-6.71,,adl
7.349185,-0.0015,-0.0039,0.0009,0.0446,0.0068,-0.0011,-31.3906,-28.731,-6.71,,adl
7.351439,-0.0015,-0.0039,0.0009,0.0446,0.0068,-0.0011,-31.354,-28.8164,-6.6246,,adl
7.377192,-0.0015,-0.0039,0.0009,0.0446,0.0068,-0.0011,-31.354,-28.8164,-6.6246,,adl
7.380136,-0.0015,-0.0039,0.0009,0.0446,0.0068,-0.0011,-31.354,-28.8164,-6.6246,,adl
7.382189,-0.0015,-0.0039,0.0009,0.0446,0.0068,-0.0011,-31.354,-28.8164,-6.6246,,adl
7.398586,-0.0015,-0.0039,0.0009,0.0446,0.0068,-0.0011,-31.293,-28.8286,-6.5758,,adl
7.410823,-0.0015,-0.0039,0.0009,0.0316,0.0047,-0.0012,-31.293,-28.8286,-6.5758,,adl
7.421031,0.0033,-0.0086,-0.0037,0.0316,0.0047,-0.0012,-31.293,-28.8286,-6.5758,,adl
7.443184,0.0033,-0.0086,-0.0037,0.0316,0.0047,-0.0012,-31.293,-28.8286,-6.5758,,adl
7.446662,0.0033,-0.0086,-0.0037,0.0316,0.0047,-0.0012,-31.293,-28.8286,-6.5758,,adl
7.449114,0.0033,-0.0086,-0.0037,0.0316,0.0047,-0.0012,-31.293,-28.8286,-6.5758,,adl
7.45137,0.0033,-0.0086,-0.0037,0.0316,0.0047,-0.0012,-31.293,-28.8286,-6.5758,,adl
7.453112,0.0033,-0.0086,-0.0037,0.0316,0.0047,-0.0012,-31.1954,-28.8286,-6.4538,,adl
7.48076,0.0033,-0.0086,-0.0037,0.0293,0.0053,-0.0007,-31.1954,-28.8286,-6.4538,,adl
7.490587,0.0002,0.0034,0.01,0.0293,0.0053,-0.0007,-31.1954,-28.8286,-6.4538,,adl
7.498333,0.0002,0.0034,0.01,0.0293,0.0053,-0.0007,-31.1344,-28.8286,-6.3928,,adl
7.510616,0.0002,0.0034,0.01,0.0293,0.0053,-0.0007,-31.1344,-28.8286,-6.3928,,adl
7.513886,0.0002,0.0034,0.01,0.0293,0.0053,-0.0007,-31.1344,-28.8286,-6.3928,,adl
7.516274,0.0002,0.0034,0.01,0.0293,0.0053,-0.0007,-31.1344,-28.8286,-6.3928,,adl
7.5493,0.0002,0.0034,0.01,0.0293,0.0053,-0.0007,-31.11,-28.792,-6.3562,,adl
7.552313,0.0002,0.0034,0.01,0.0222,0.0029,-0.0008,-31.11,-28.792,-6.3562,,adl
7.560397,-0.0026,0.0011,-0.0002,0.0222,0.0029,-0.0008,-31.11,-28.792,-6.3562,,adl
7.577345,-0.0026,0.0011,-0.0002,0.0222,0.0029,-0.0008,-31.11,-28.792,-6.3562,,adl
7.579557,-0.0026,0.0011,-0.0002,0.0222,0.0029,-0.0008,-31.11,-28.792,-6.3562,,adl
7.581632,-0.0026,0.0011,-0.0002,0.0222,0.0029,-0.0008,-31.11,-28.792,-6.3562,,adl
7.599086,-0.0026,0.0011,-0.0002,0.0222,0.0029,-0.0008,-31.1588,-28.7432,-6.405,,adl
7.620494,-0.0026,0.0011,-0.0002,0.027,0.0019,-0.0012,-31.1588,-28.7432,-6.405,,adl
7.631742,-0.0023,0.0041,-0.0013,0.027,0.0019,-0.0012,-31.1588,-28.7432,-6.405,,adl
7.644545,-0.0023,0.0041,-0.0013,0.027,0.0019,-0.0012,-31.1588,-28.7432,-6.405,,adl
7.648727,-0.0023,0.0041,-0.0013,0.027,0.0019,-0.0012,-31.1588,-28.7432,-6.405,,adl
7.65112,-0.0023,0.0041,-0.0013,0.027,0.0019,-0.0012,-31.1588,-28.7432,-6.405,,adl
7.653482,-0.0023,0.0041,-0.0013,0.027,0.0019,-0.0012,-31.1588,-28.7432,-6.405,,adl
7.65636,-0.0023,0.0041,-0.0013,0.027,0.0019,-0.0012,-31.0978,-28.7798,-6.3928,,adl
7.690325,-0.0023,0.0041,-0.0013,0.0262,0.0008,-0.0015,-31.0978,-28.7798,-6.3928,,adl
7.699223,-0.0023,0.0041,-0.0013,0.0262,0.0008,-0.0015,-31.1222,-28.8286,-6.3074,,adl
7.70187,0.0002,-0.0097,-0.0035,0.0262,0.0008,-0.0015,-31.1222,-28.8286,-6.3074,,adl
7.710783,0.0002,-0.0097,-0.0035,0.0262,0.0008,-0.0015,-31.1222,-28.8286,-6.3074,,adl
7.713679,0.0002,-0.0097,-0.0035,0.0262,0.0008,-0.0015,-31.1222,-28.8286,-6.3074,,adl
7.716243,0.0002,-0.0097,-0.0035,0.0262,0.0008,-0.0015,-31.1222,-28.8286,-6.3074,,adl
7.749117,0.0002,-0.0097,-0.0035,0.0262,0.0008,-0.0015,-31.1466,-28.8164,-6.283,,adl
7.760031,0.0002,-0.0097,-0.0035,0.0153,0.0025,0.0011,-31.1466,-28.8164,-6.283,,adl
7.771496,0.0016,0.0126,0.0001,0.0153,0.0025,0.0011,-31.1466,-28.8164,-6.283,,adl
7.777345,0.0016,0.0126,0.0001,0.0153,0.0025,0.0011,-31.1466,-28.8164,-6.283,,adl
7.778297,0.0016,0.0126,0.0001,0.0153,0.0025,0.0011,-31.1466,-28.8164,-6.283,,adl
7.7791,0.0016,0.0126,0.0001,0.0153,0.0025,0.0011,-31.1466,-28.8164,-6.283,,adl
7.79712,0.0016,0.0126,0.0001,0.0153,0.0025,0.0011,-31.2198,-28.8408,-6.2342,,adl
7.829533,0.0016,0.0126,0.0001,0.023,0.0099,0.0004,-31.2198,-28.8408,-6.2342,,adl
7.839442,0.011,0.0034,0.006,0.023,0.0099,0.0004,-31.2198,-28.8408,-6.2342,,adl
7.844277,0.011,0.0034,0.006,0.023,0.0099,0.0004,-31.2198,-28.8408,-6.2342,,adl
7.84665,0.011,0.0034,0.006,0.023,0.0099,0.0004,-31.2198,-28.8408,-6.2342,,adl
7.849201,0.011,0.0034,0.006,0.023,0.0099,0.0004,-31.2198,-28.8408,-6.2342,,adl
7.851096,0.011,0.0034,0.006,0.023,0.0099,0.0004,-31.2198,-28.8408,-6.2342,,adl
7.852928,0.011,0.0034,0.006,0.023,0.0099,0.0004,-31.232,-28.8286,-6.2952,,adl
7.899522,0.011,0.0034,0.006,0.023,0.0099,0.0004,-31.2564,-28.8286,-6.3318,,adl
7.901959,0.011,0.0034,0.006,0.0495,0.0092,-0.002,-31.2564,-28.8286,-6.3318,,adl
7.915282,-0.0072,-0.0275,-0.0125,0.0495,0.0092,-0.002,-31.2564,-28.8286,-6.3318,,adl
7.917848,-0.0072,-0.0275,-0.0125,0.0495,0.0092,-0.002,-31.2564,-28.8286,-6.3318,,adl
7.920568,-0.0072,-0.0275,-0.0125,0.0495,0.0092,-0.002,-31.2564,-28.8286,-6.3318,,adl
7.922045,-0.0072,-0.0275,-0.0125,0.0495,0.0092,-0.002,-31.2564,-28.8286,-6.3318,,adl
7.947688,-0.0072,-0.0275,-0.0125,0.0495,0.0092,-0.002,-31.232,-28.8774,-6.3196,,adl
7.966692,-0.0072,-0.0275,-0.0125,0.0104,0.0003,0.0015,-31.232,-28.8774,-6.3196,,adl
7.97853,-0.0018,0.0271,-0.0057,0.0104,0.0003,0.0015,-31.232,-28.8774,-6.3196,,adl
7.979017,-0.0018,0.0271,-0.0057,0.0104,0.0003,0.0015,-31.232,-28.8774,-6.3196,,adl
7.979154,-0.0018,0.0271,-0.0057,0.0104,0.0003,0.0015,-31.232,-28.8774,-6.3196,,adl
7.979284,-0.0018,0.0271,-0.0057,0.0104,0.0003,0.0015,-31.232,-28.8774,-6.3196,,adl
7.997049,-0.0018,0.0271,-0.0057,0.0104,0.0003,0.0015,-31.1832,-28.9628,-6.1854,,adl
8.038908,-0.0018,0.0271,-0.0057,0.0273,0.0057,-0.0012,-31.1832,-28.9628,-6.1854,,adl
8.044654,-0.0018,0.0271,-0.0057,0.0273,0.0057,-0.0012,-31.1832,-28.9628,-6.1854,,adl
8.045496,-0.0018,0.0271,-0.0057,0.0273,0.0057,-0.0012,-31.1832,-28.9628,-6.1854,,adl
8.04614,-0.0018,0.0271,-0.0057,0.0273,0.0057,-0.0012,-31.1832,-28.9628,-6.1854,,adl
8.046736,-0.0018,0.0271,-0.0057,0.0273,0.0057,-0.0012,-31.1832,-28.9628,-6.1854,,adl
8.048216,-0.0018,0.0271,-0.0057,0.0273,0.0057,-0.0012,-31.1832,-29.0116,-6.1,,adl
8.048991,0.0003,-0.0086,0.0079,0.0273,0.0057,-0.0012,-31.1832,-29.0116,-6.1,,adl
8.09894,0.0003,-0.0086,0.0079,0.0273,0.0057,-0.0012,-31.2076,-28.975,-6.0268,,adl
8.108055,0.0003,-0.0086,0.0079,0.0193,0.0056,0.0,-31.2076,-28.975,-6.0268,,adl
8.108736,0.0003,-0.0086,0.0079,0.0193,0.0056,0.0,-31.2076,-28.975,-6.0268,,adl
8.109166,0.0003,-0.0086,0.0079,0.0193,0.0056,0.0,-31.2076,-28.975,-6.0268,,adl
8.109566,0.0003,-0.0086,0.0079,0.0193,0.0056,0.0,-31.2076,-28.975,-6.0268,,adl
8.115967,0.0082,-0.0086,-0.0068,0.0193,0.0056,0.0,-31.2076,-28.975,-6.0268,,adl
8.146463,0.0082,-0.0086,-0.0068,0.0193,0.0056,0.0,-31.2198,-28.9872,-5.8926,,adl
8.178864,0.0082,-0.0086,-0.0068,0.0185,0.0032,-0.0013,-31.2198,-28.9872,-5.8926,,adl
8.180602,0.0082,-0.0086,-0.0068,0.0185,0.0032,-0.0013,-31.2198,-28.9872,-5.8926,,adl
8.181595,0.0082,-0.0086,-0.0068,0.0185,0.0032,-0.0013,-31.2198,-28.9872,-5.8926,,adl
8.182287,0.0082,-0.0086,-0.0068,0.0185,0.0032,-0.0013,-31.2198,-28.9872,-5.8926,,adl
8.183009,0.0082,-0.0086,-0.0068,0.0185,0.0032,-0.0013,-31.2198,-28.9872,-5.8926,,adl
8.190021,-0.0068,0.0151,0.0067,0.0185,0.0032,-0.0013,-31.2198,-28.9872,-5.8926,,adl
8.200345,-0.0068,0.0151,0.0067,0.0185,0.0032,-0.0013,-31.1954,-28.9994,-5.8438,,adl
8.24627,-0.0068,0.0151,0.0067,0.0185,0.0032,-0.0013,-31.1954,-28.9994,-5.8438,,adl
8.247744,-0.0068,0.0151,0.0067,0.0185,0.0032,-0.0013,-31.1954,-28.9994,-5.8438,,adl
8.248563,-0.0068,0.0151,0.0067,0.0185,0.0032,-0.0013,-31.1954,-28.9994,-5.8438,,adl
8.249337,-0.0068,0.0151,0.0067,0.0185,0.0032,-0.0013,-31.2564,-28.9994,-5.734,,adl
8.25008,-0.0068,0.0151,0.0067,0.0138,-0.0015,0.0004,-31.2564,-28.9994,-5.734,,adl
8.257209,0.0005,0.0023,-0.0034,0.0138,-0.0015,0.0004,-31.2564,-28.9994,-5.734,,adl
8.299458,0.0005,0.0023,-0.0034,0.0138,-0.0015,0.0004,-31.2442,-29.0482,-5.6364,,adl
8.311913,0.0005,0.0023,-0.0034,0.0138,-0.0015,0.0004,-31.2442,-29.0482,-5.6364,,adl
8.312913,0.0005,0.0023,-0.0034,0.0138,-0.0015,0.0004,-31.2442,-29.0482,-5.6364,,adl
8.313552,0.0005,0.0023,-0.0034,0.0138,-0.0015,0.0004,-31.2442,-29.0482,-5.6364,,adl
8.316821,0.0005,0.0023,-0.0034,-0.1411,0.0077,-0.0008,-31.2442,-29.0482,-5.6364,,adl
8.32733,-0.001,0.0047,0.0125,-0.1411,0.0077,-0.0008,-31.2442,-29.0482,-5.6364,,adl
8.34755,-0.001,0.0047,0.0125,-0.1411,0.0077,-0.0008,-31.2564,-29.036,-5.5876,,adl
8.379181,-0.001,0.0047,0.0125,-0.1411,0.0077,-0.0008,-31.2564,-29.036,-5.5876,,adl
8.380656,-0.001,0.0047,0.0125,-0.1411,0.0077,-0.0008,-31.2564,-29.036,-5.5876,,adl
8.381417,-0.001,0.0047,0.0125,-0.1411,0.0077,-0.0008,-31.2564,-29.036,-5.5876,,adl
8.382158,-0.001,0.0047,0.0125,-0.1411,0.0077,-0.0008,-31.2564,-29.036,-5.5876,,adl
8.387289,-0.001,0.0047,0.0125,-0.8872,-0.0297,-0.014,-31.2564,-29.036,-5.5876,,adl
8.39708,-0.001,0.0047,0.0125,-0.8872,-0.0297,-0.014,-31.2564,-28.9506,-5.856,,adl
8.398291,0.0083,0.3066,0.2474,-0.8872,-0.0297,-0.014,-31.2564,-28.9506,-5.856,,adl
8.443221,0.0083,0.3066,0.2474,-0.8872,-0.0297,-0.014,-31.171,-28.853,-6.0146,,adl
8.458186,0.0083,0.3066,0.2474,0.3019,0.0714,0.045,-31.171,-28.853,-6.0146,,adl
8.459189,0.0083,0.3066,0.2474,0.3019,0.0714,0.045,-31.171,-28.853,-6.0146,,adl
8.459585,0.0083,0.3066,0.2474,0.3019,0.0714,0.045,-31.171,-28.853,-6.0146,,adl
8.460162,0.0083,0.3066,0.2474,0.3019,0.0714,0.045,-31.171,-28.853,-6.0146,,adl
8.460555,0.0083,0.3066,0.2474,0.3019,0.0714,0.045,-31.171,-28.853,-6.0146,,adl
8.465554,-0.1187,0.2076,0.0473,0.3019,0.0714,0.045,-31.171,-28.853,-6.0146,,adl
8.507285,-0.1187,0.2076,0.0473,0.3019,0.0714,0.045,-31.0978,-28.8042,-6.2464,,adl
8.508627,-0.1187,0.2076,0.0473,0.3019,0.0714,0.045,-31.0978,-28.8042,-6.2464,,adl
8.509106,-0.1187,0.2076,0.0473,0.3019,0.0714,0.045,-31.0978,-28.8042,-6.2464,,adl
8.528655,-0.1187,0.2076,0.0473,-0.5113,0.0059,-0.0631,-31.0978,-28.8042,-6.2464,,adl
8.536204,0.2245,-0.3742,-0.3869,-0.5113,0.0059,-0.0631,-31.0978,-28.8042,-6.2464,,adl
8.568379,0.2245,-0.3742,-0.3869,-0.5113,0.0059,-0.0631,-31.0856,-28.7188,-6.6246,,adl
8.578973,0.2245,-0.3742,-0.3869,-0.5113,0.0059,-0.0631,-31.0856,-28.7188,-6.6246,,adl
8.580269,0.2245,-0.3742,-0.3869,-0.5113,0.0059,-0.0631,-31.0856,-28.7188,-6.6246,,adl
8.58107,0.2245,-0.3742,-0.3869,-0.5113,0.0059,-0.0631,-31.0856,-28.7188,-6.6246,,adl
8.581805,0.2245,-0.3742,-0.3869,-0.5113,0.0059,-0.0631,-31.0856,-28.7188,-6.6246,,adl
8.598341,0.2245,-0.3742,-0.3869,0.4266,0.1909,0.036,-31.0856,-28.7188,-6.6246,,adl
8.606219,-0.2236,0.2062,0.1396,0.4266,0.1909,0.036,-31.0856,-28.7188,-6.6246,,adl
8.628097,-0.2236,0.2062,0.1396,0.4266,0.1909,0.036,-31.0856,-28.6334,-6.9174,,adl
8.645913,-0.2236,0.2062,0.1396,0.4266,0.1909,0.036,-31.0856,-28.6334,-6.9174,,adl
8.646781,-0.2236,0.2062,0.1396,0.4266,0.1909,0.036,-31.0856,-28.6334,-6.9174,,adl
8.647205,-0.2236,0.2062,0.1396,0.4266,0.1909,0.036,-31.0856,-28.6334,-6.9174,,adl
8.666473,-0.2236,0.2062,0.1396,-0.3924,-0.2834,-0.0256,-31.0856,-28.6334,-6.9174,,adl
8.676047,0.2983,-0.2081,0.1459,-0.3924,-0.2834,-0.0256,-31.0856,-28.6334,-6.9174,,adl
8.687529,0.2983,-0.2081,0.1459,-0.3924,-0.2834,-0.0256,-31.0368,-28.548,-7.2834,,adl
8.712494,0.2983,-0.2081,0.1459,-0.3924,-0.2834,-0.0256,-31.0368,-28.548,-7.2834,,adl
8.713929,0.2983,-0.2081,0.1459,-0.3924,-0.2834,-0.0256,-31.0368,-28.548,-7.2834,,adl
8.714791,0.2983,-0.2081,0.1459,-0.3924,-0.2834,-0.0256,-31.0368,-28.548,-7.2834,,adl
8.737436,0.2983,-0.2081,0.1459,0.2863,0.5678,0.0136,-31.0368,-28.548,-7.2834,,adl
8.746202,0.2983,-0.2081,0.1459,0.2863,0.5678,0.0136,-31.0002,-28.4626,-7.6128,,adl
8.747078,-0.3827,0.2242,-0.5225,0.2863,0.5678,0.0136,-31.0002,-28.4626,-7.6128,,adl
8.77858,-0.3827,0.2242,-0.5225,0.2863,0.5678,0.0136,-31.0002,-28.4626,-7.6128,,adl
8.779453,-0.3827,0.2242,-0.5225,0.2863,0.5678,0.0136,-31.0002,-28.4626,-7.6128,,adl
8.779917,-0.3827,0.2242,-0.5225,0.2863,0.5678,0.0136,-31.0002,-28.4626,-7.6128,,adl
8.780335,-0.3827,0.2242,-0.5225,0.2863,0.5678,0.0136,-31.0002,-28.4626,-7.6128,,adl
8.808092,-0.3827,0.2242,-0.5225,0.2863,0.5678,0.0136,-30.988,-28.365,-7.9788,,adl
8.809195,-0.3827,0.2242,-0.5225,-0.2132,-0.6364,-0.0258,-30.988,-28.365,-7.9788,,adl
8.815227,0.3261,-0.1114,0.8739,-0.2132,-0.6364,-0.0258,-30.988,-28.365,-7.9788,,adl
8.845117,0.3261,-0.1114,0.8739,-0.2132,-0.6364,-0.0258,-30.988,-28.365,-7.9788,,adl
8.849106,0.3261,-0.1114,0.8739,-0.2132,-0.6364,-0.0258,-30.988,-28.365,-7.9788,,adl
8.852166,0.3261,-0.1114,0.8739,-0.2132,-0.6364,-0.0258,-30.988,-28.365,-7.9788,,adl
8.86592,0.3261,-0.1114,0.8739,-0.2132,-0.6364,-0.0258,-31.0124,-28.3406,-8.052,,adl
8.877146,0.3261,-0.1114,0.8739,0.1879,0.5748,-0.0053,-31.0124,-28.3406,-8.052,,adl
8.885876,-0.2689,-0.0445,-1.3039,0.1879,0.5748,-0.0053,-31.0124,-28.3406,-8.052,,adl
8.911292,-0.2689,-0.0445,-1.3039,0.1879,0.5748,-0.0053,-31.0124,-28.3406,-8.052,,adl
8.914147,-0.2689,-0.0445,-1.3039,0.1879,0.5748,-0.0053,-31.0124,-28.3406,-8.052,,adl
8.916428,-0.2689,-0.0445,-1.3039,0.1879,0.5748,-0.0053,-31.0124,-28.3406,-8.052,,adl
8.92616,-0.2689,-0.0445,-1.3039,0.1879,0.5748,-0.0053,-31.0368,-28.2918,-8.2716,,adl
8.945703,-0.2689,-0.0445,-1.3039,-0.1384,-0.5322,-0.0081,-31.0368,-28.2918,-8.2716,,adl
8.9553,0.1167,0.0769,1.4584,-0.1384,-0.5322,-0.0081,-31.0368,-28.2918,-8.2716,,adl
8.977051,0.1167,0.0769,1.4584,-0.1384,-0.5322,-0.0081,-31.0368,-28.2918,-8.2716,,adl
8.9792,0.1167,0.0769,1.4584,-0.1384,-0.5322,-0.0081,-31.0368,-28.2918,-8.2716,,adl
8.980646,0.1167,0.0769,1.4584,-0.1384,-0.5322,-0.0081,-31.0368,-28.2918,-8.2716,,adl
8.982022,0.1167,0.0769,1.4584,-0.1384,-0.5322,-0.0081,-31.0368,-28.2918,-8.2716,,adl
8.983716,0.1167,0.0769,1.4584,-0.1384,-0.5322,-0.0081,-31.049,-28.2674,-8.2838,,adl
9.015755,0.1167,0.0769,1.4584,0.325,0.221,0.0029,-31.049,-28.2674,-8.2838,,adl
9.031502,-0.125,-0.2167,-1.6195,0.325,0.221,0.0029,-31.049,-28.2674,-8.2838,,adl
9.04479,-0.125,-0.2167,-1.6195,0.325,0.221,0.0029,-31.049,-28.2674,-8.2838,,adl
9.046095,-0.125,-0.2167,-1.6195,0.325,0.221,0.0029,-31.049,-28.2674,-8.2838,,adl
9.046966,-0.125,-0.2167,-1.6195,0.325,0.221,0.0029,-31.049,-28.2674,-8.2838,,adl
9.048129,-0.125,-0.2167,-1.6195,0.325,0.221,0.0029,-31.0246,-28.304,-8.2106,,adl
9.085513,-0.125,-0.2167,-1.6195,-0.3963,0.0952,-0.0057,-31.0246,-28.304,-8.2106,,adl
9.097472,0.209,0.7707,1.1505,-0.3963,0.0952,-0.0057,-31.0246,-28.304,-8.2106,,adl
9.101237,0.209,0.7707,1.1505,-0.3963,0.0952,-0.0057,-30.988,-28.243,-8.2838,,adl
9.110301,0.209,0.7707,1.1505,-0.3963,0.0952,-0.0057,-30.988,-28.243,-8.2838,,adl
9.112473,0.209,0.7707,1.1505,-0.3963,0.0952,-0.0057,-30.988,-28.243,-8.2838,,adl
9.113717,0.209,0.7707,1.1505,-0.3963,0.0952,-0.0057,-30.988,-28.243,-8.2838,,adl
9.155604,0.209,0.7707,1.1505,0.3672,-0.1511,0.0049,-30.988,-28.243,-8.2838,,adl
9.164536,0.209,0.7707,1.1505,0.3672,-0.1511,0.0049,-30.9758,-28.243,-8.2716,,adl
9.166195,-0.1158,-1.0836,-0.1561,0.3672,-0.1511,0.0049,-30.9758,-28.243,-8.2716,,adl
9.177079,-0.1158,-1.0836,-0.1561,0.3672,-0.1511,0.0049,-30.9758,-28.243,-8.2716,,adl
9.178816,-0.1158,-1.0836,-0.1561,0.3672,-0.1511,0.0049,-30.9758,-28.243,-8.2716,,adl
9.180442,-0.1158,-1.0836,-0.1561,0.3672,-0.1511,0.0049,-30.9758,-28.243,-8.2716,,adl
9.181886,-0.1158,-1.0836,-0.1561,0.3672,-0.1511,0.0049,-30.9758,-28.243,-8.2716,,adl
9.225318,-0.1158,-1.0836,-0.1561,0.3672,-0.1511,0.0049,-31.0124,-28.2308,-8.2228,,adl
9.228725,-0.1158,-1.0836,-0.1561,-0.269,0.0639,-0.0177,-31.0124,-28.2308,-8.2228,,adl
9.234679,-0.1061,0.7877,-0.5091,-0.269,0.0639,-0.0177,-31.0124,-28.2308,-8.2228,,adl
9.244612,-0.1061,0.7877,-0.5091,-0.269,0.0639,-0.0177,-31.0124,-28.2308,-8.2228,,adl
9.247469,-0.1061,0.7877,-0.5091,-0.269,0.0639,-0.0177,-31.0124,-28.2308,-8.2228,,adl
9.250349,-0.1061,0.7877,-0.5091,-0.269,0.0639,-0.0177,-31.0124,-28.2308,-8.2228,,adl
9.28314,-0.1061,0.7877,-0.5091,-0.269,0.0639,-0.0177,-30.988,-28.2308,-8.2106,,adl
9.294219,-0.1061,0.7877,-0.5091,0.0804,-0.0509,0.0285,-30.988,-28.2308,-8.2106,,adl
9.311599,0.2232,-0.4675,1.0174,0.0804,-0.0509,0.0285,-30.988,-28.2308,-8.2106,,adl
9.314419,0.2232,-0.4675,1.0174,0.0804,-0.0509,0.0285,-30.988,-28.2308,-8.2106,,adl
9.316268,0.2232,-0.4675,1.0174,0.0804,-0.0509,0.0285,-30.988,-28.2308,-8.2106,,adl
9.31807,0.2232,-0.4675,1.0174,0.0804,-0.0509,0.0285,-30.988,-28.2308,-8.2106,,adl
9.34492,0.2232,-0.4675,1.0174,0.0804,-0.0509,0.0285,-30.988,-28.1576,-8.2228,,adl
9.362881,0.2232,-0.4675,1.0174,0.1511,0.0458,-0.0138,-30.988,-28.1576,-8.2228,,adl
9.376315,-0.2354,-0.0255,-1.3021,0.1511,0.0458,-0.0138,-30.988,-28.1576,-8.2228,,adl
9.379098,-0.2354,-0.0255,-1.3021,0.1511,0.0458,-0.0138,-30.988,-28.1576,-8.2228,,adl
9.381341,-0.2354,-0.0255,-1.3021,0.1511,0.0458,-0.0138,-30.988,-28.1576,-8.2228,,adl
9.383541,-0.2354,-0.0255,-1.3021,0.1511,0.0458,-0.0138,-30.988,-28.1576,-8.2228,,adl
9.384945,-0.2354,-0.0255,-1.3021,0.1511,0.0458,-0.0138,-30.988,-28.1576,-8.2228,,adl
9.402986,-0.2354,-0.0255,-1.3021,0.1511,0.0458,-0.0138,-30.988,-28.1942,-8.0886,,adl
9.434168,-0.2354,-0.0255,-1.3021,-0.3021,-0.0157,-0.0049,-30.988,-28.1942,-8.0886,,adl
9.445432,0.206,0.5382,1.2688,-0.3021,-0.0157,-0.0049,-30.988,-28.1942,-8.0886,,adl
9.447505,0.206,0.5382,1.2688,-0.3021,-0.0157,-0.0049,-30.988,-28.1942,-8.0886,,adl
9.449254,0.206,0.5382,1.2688,-0.3021,-0.0157,-0.0049,-30.988,-28.1942,-8.0886,,adl
9.450874,0.206,0.5382,1.2688,-0.3021,-0.0157,-0.0049,-30.988,-28.1942,-8.0886,,adl
9.462033,0.206,0.5382,1.2688,-0.3021,-0.0157,-0.0049,-30.9392,-28.2064,-8.113,,adl
9.504202,0.206,0.5382,1.2688,0.4858,-0.0378,0.0116,-30.9392,-28.2064,-8.113,,adl
9.509363,0.206,0.5382,1.2688,0.4858,-0.0378,0.0116,-30.9392,-28.2064,-8.113,,adl
9.512248,0.206,0.5382,1.2688,0.4858,-0.0378,0.0116,-30.9392,-28.2064,-8.113,,adl
9.514389,0.206,0.5382,1.2688,0.4858,-0.0378,0.0116,-30.9392,-28.2064,-8.113,,adl
9.5167,-0.2518,-0.7587,-1.1039,0.4858,-0.0378,0.0116,-30.9392,-28.2064,-8.113,,adl
9.524972,-0.2518,-0.7587,-1.1039,0.4858,-0.0378,0.0116,-30.9392,-28.1454,-8.1252,,adl
9.575475,-0.2518,-0.7587,-1.1039,-0.4617,0.0554,-0.0284,-30.9392,-28.1454,-8.1252,,adl
9.577497,-0.2518,-0.7587,-1.1039,-0.4617,0.0554,-0.0284,-30.9392,-28.1454,-8.1252,,adl
9.578443,-0.2518,-0.7587,-1.1039,-0.4617,0.0554,-0.0284,-30.9392,-28.1454,-8.1252,,adl
9.579346,-0.2518,-0.7587,-1.1039,-0.4617,0.0554,-0.0284,-30.9392,-28.1454,-8.1252,,adl
9.580373,-0.2518,-0.7587,-1.1039,-0.4617,0.0554,-0.0284,-30.9392,-28.1454,-8.1252,,adl
9.587456,-0.2518,-0.7587,-1.1039,-0.4617,0.0554,-0.0284,-30.927,-28.1698,-8.0398,,adl
9.589847,0.1775,0.7733,0.4994,-0.4617,0.0554,-0.0284,-30.927,-28.1698,-8.0398,,adl
9.644897,0.1775,0.7733,0.4994,-0.4617,0.0554,-0.0284,-30.9026,-28.1942,-7.9666,,adl
9.64845,0.1775,0.7733,0.4994,-0.4617,0.0554,-0.0284,-30.9026,-28.1942,-7.9666,,adl
9.65088,0.1775,0.7733,0.4994,-0.4617,0.0554,-0.0284,-30.9026,-28.1942,-7.9666,,adl
9.65348,0.1775,0.7733,0.4994,-0.4617,0.0554,-0.0284,-30.9026,-28.1942,-7.9666,,adl
9.65611,0.1775,0.7733,0.4994,0.2915,-0.0884,0.026,-30.9026,-28.1942,-7.9666,,adl
9.658607,-0.0042,-0.7696,0.4298,0.2915,-0.0884,0.026,-30.9026,-28.1942,-7.9666,,adl
9.703611,-0.0042,-0.7696,0.4298,0.2915,-0.0884,0.026,-30.866,-28.2308,-7.9178,,adl
9.709227,-0.0042,-0.7696,0.4298,0.2915,-0.0884,0.026,-30.866,-28.2308,-7.9178,,adl
9.71155,-0.0042,-0.7696,0.4298,0.2915,-0.0884,0.026,-30.866,-28.2308,-7.9178,,adl
9.713872,-0.0042,-0.7696,0.4298,0.2915,-0.0884,0.026,-30.866,-28.2308,-7.9178,,adl
9.716097,-0.0042,-0.7696,0.4298,0.049,-0.0112,-0.028,-30.866,-28.2308,-7.9178,,adl
9.724363,-0.061,0.4007,-0.9414,0.049,-0.0112,-0.028,-30.866,-28.2308,-7.9178,,adl
9.763484,-0.061,0.4007,-0.9414,0.049,-0.0112,-0.028,-30.8782,-28.2552,-7.8202,,adl
9.777414,-0.061,0.4007,-0.9414,0.049,-0.0112,-0.028,-30.8782,-28.2552,-7.8202,,adl
9.780758,-0.061,0.4007,-0.9414,0.049,-0.0112,-0.028,-30.8782,-28.2552,-7.8202,,adl
9.783455,-0.061,0.4007,-0.9414,0.049,-0.0112,-0.028,-30.8782,-28.2552,-7.8202,,adl
9.786019,-0.061,0.4007,-0.9414,0.049,-0.0112,-0.028,-30.8782,-28.2552,-7.8202,,adl
9.788702,-0.061,0.4007,-0.9414,-0.2563,0.1971,-0.0012,-30.8782,-28.2552,-7.8202,,adl
9.795535,0.0956,0.1021,0.8422,-0.2563,0.1971,-0.0012,-30.8782,-28.2552,-7.8202,,adl
9.822617,0.0956,0.1021,0.8422,-0.2563,0.1971,-0.0012,-30.8416,-28.2918,-7.869,,adl
9.844489,0.0956,0.1021,0.8422,-0.2563,0.1971,-0.0012,-30.8416,-28.2918,-7.869,,adl
9.848416,0.0956,0.1021,0.8422,-0.2563,0.1971,-0.0012,-30.8416,-28.2918,-7.869,,adl
9.851023,0.0956,0.1021,0.8422,-0.2563,0.1971,-0.0012,-30.8416,-28.2918,-7.869,,adl
9.85298,0.0956,0.1021,0.8422,0.2952,-0.2308,0.0189,-30.8416,-28.2918,-7.869,,adl
9.861411,-0.217,-0.4963,-0.3005,0.2952,-0.2308,0.0189,-30.8416,-28.2918,-7.869,,adl
9.882094,-0.217,-0.4963,-0.3005,0.2952,-0.2308,0.0189,-30.8782,-28.3284,-7.8202,,adl
9.911507,-0.217,-0.4963,-0.3005,0.2952,-0.2308,0.0189,-30.8782,-28.3284,-7.8202,,adl
9.914696,-0.217,-0.4963,-0.3005,0.2952,-0.2308,0.0189,-30.8782,-28.3284,-7.8202,,adl
9.916996,-0.217,-0.4963,-0.3005,0.2952,-0.2308,0.0189,-30.8782,-28.3284,-7.8202,,adl
9.919026,-0.217,-0.4963,-0.3005,0.2952,-0.2308,0.0189,-30.8782,-28.3284,-7.8202,,adl
9.923518,-0.217,-0.4963,-0.3005,-0.0025,0.0626,-0.0374,-30.8782,-28.3284,-7.8202,,adl
9.932672,0.1907,0.5788,-0.5002,-0.0025,0.0626,-0.0374,-30.8782,-28.3284,-7.8202,,adl
9.940251,0.1907,0.5788,-0.5002,-0.0025,0.0626,-0.0374,-30.9026,-28.4016,-7.6738,,adl
9.977461,0.1907,0.5788,-0.5002,-0.0025,0.0626,-0.0374,-30.9026,-28.4016,-7.6738,,adl
9.980959,0.1907,0.5788,-0.5002,-0.0025,0.0626,-0.0374,-30.9026,-28.4016,-7.6738,,adl
9.983422,0.1907,0.5788,-0.5002,-0.0025,0.0626,-0.0374,-30.9026,-28.4016,-7.6738,,adl
9.991975,0.1907,0.5788,-0.5002,-0.2593,0.1708,0.0073,-30.9026,-28.4016,-7.6738,,adl
10.001325,0.1907,0.5788,-0.5002,-0.2593,0.1708,0.0073,-30.8416,-28.4626,-7.6616,,adl
10.004066,0.0425,-0.2056,0.7828,-0.2593,0.1708,0.0073,-30.8416,-28.4626,-7.6616,,adl
10.044915,0.0425,-0.2056,0.7828,-0.2593,0.1708,0.0073,-30.8416,-28.4626,-7.6616,,adl
10.047501,0.0425,-0.2056,0.7828,-0.2593,0.1708,0.0073,-30.8416,-28.4626,-7.6616,,adl
10.049481,0.0425,-0.2056,0.7828,-0.2593,0.1708,0.0073,-30.8416,-28.4626,-7.6616,,adl
10.061762,0.0425,-0.2056,0.7828,0.2776,-0.2112,0.018,-30.8416,-28.4626,-7.6616,,adl
10.064515,0.0425,-0.2056,0.7828,0.2776,-0.2112,0.018,-30.866,-28.5358,-7.5762,,adl
10.072045,-0.2281,-0.4387,-0.1359,0.2776,-0.2112,0.018,-30.866,-28.5358,-7.5762,,adl
10.111396,-0.2281,-0.4387,-0.1359,0.2776,-0.2112,0.018,-30.866,-28.5358,-7.5762,,adl
10.114346,-0.2281,-0.4387,-0.1359,0.2776,-0.2112,0.018,-30.866,-28.5358,-7.5762,,adl
10.116758,-0.2281,-0.4387,-0.1359,0.2776,-0.2112,0.018,-30.866,-28.5358,-7.5762,,adl
10.118886,-0.2281,-0.4387,-0.1359,0.2776,-0.2112,0.018,-30.866,-28.5358,-7.5762,,adl
10.123276,-0.2281,-0.4387,-0.1359,0.2776,-0.2112,0.018,-30.8782,-28.5846,-7.503,,adl
10.132203,-0.2281,-0.4387,-0.1359,0.0228,0.041,-0.0377,-30.8782,-28.5846,-7.503,,adl
10.144013,0.2437,0.6169,-0.729,0.0228,0.041,-0.0377,-30.8782,-28.5846,-7.503,,adl
10.176077,0.2437,0.6169,-0.729,0.0228,0.041,-0.0377,-30.8782,-28.5846,-7.503,,adl
10.179025,0.2437,0.6169,-0.729,0.0228,0.041,-0.0377,-30.8782,-28.5846,-7.503,,adl
10.181265,0.2437,0.6169,-0.729,0.0228,0.041,-0.0377,-30.8782,-28.5846,-7.503,,adl
10.183376,0.2437,0.6169,-0.729,0.0228,0.041,-0.0377,-30.8782,-28.5602,-7.5152,,adl
10.201507,0.2437,0.6169,-0.729,-0.3176,0.1862,0.0188,-30.8782,-28.5602,-7.5152,,adl
10.212396,-0.0207,-0.1954,0.8857,-0.3176,0.1862,0.0188,-30.8782,-28.5602,-7.5152,,adl
10.241188,-0.0207,-0.1954,0.8857,-0.3176,0.1862,0.0188,-30.9026,-28.5724,-7.6006,,adl
10.245066,-0.0207,-0.1954,0.8857,-0.3176,0.1862,0.0188,-30.9026,-28.5724,-7.6006,,adl
10.24716,-0.0207,-0.1954,0.8857,-0.3176,0.1862,0.0188,-30.9026,-28.5724,-7.6006,,adl
10.250091,-0.0207,-0.1954,0.8857,-0.3176,0.1862,0.0188,-30.9026,-28.5724,-7.6006,,adl
10.271039,-0.0207,-0.1954,0.8857,0.2638,-0.247,0.0196,-30.9026,-28.5724,-7.6006,,adl
10.281888,-0.2144,-0.4999,0.0111,0.2638,-0.247,0.0196,-30.9026,-28.5724,-7.6006,,adl
10.299019,-0.2144,-0.4999,0.0111,0.2638,-0.247,0.0196,-30.927,-28.5846,-7.5396,,adl
10.310092,-0.2144,-0.4999,0.0111,0.2638,-0.247,0.0196,-30.927,-28.5846,-7.5396,,adl
10.313174,-0.2144,-0.4999,0.0111,0.2638,-0.247,0.0196,-30.927,-28.5846,-7.5396,,adl
10.315545,-0.2144,-0.4999,0.0111,0.2638,-0.247,0.0196,-30.927,-28.5846,-7.5396,,adl
10.317748,-0.2144,-0.4999,0.0111,0.2638,-0.247,0.0196,-30.927,-28.5846,-7.5396,,adl
10.339672,-0.2144,-0.4999,0.0111,0.1386,0.0679,-0.0334,-30.927,-28.5846,-7.5396,,adl
10.350951,0.1961,0.6877,-0.993,0.1386,0.0679,-0.0334,-30.927,-28.5846,-7.5396,,adl
10.360959,0.1961,0.6877,-0.993,0.1386,0.0679,-0.0334,-30.8904,-28.5724,-7.5518,,adl
10.377474,0.1961,0.6877,-0.993,0.1386,0.0679,-0.0334,-30.8904,-28.5724,-7.5518,,adl
10.380311,0.1961,0.6877,-0.993,0.1386,0.0679,-0.0334,-30.8904,-28.5724,-7.5518,,adl
10.382538,0.1961,0.6877,-0.993,0.1386,0.0679,-0.0334,-30.8904,-28.5724,-7.5518,,adl
10.410467,0.1961,0.6877,-0.993,-0.3723,0.118,0.0469,-30.8904,-28.5724,-7.5518,,adl
10.425176,0.1961,0.6877,-0.993,-0.3723,0.118,0.0469,-30.9148,-28.4992,-7.6494,,adl
10.427662,0.002,-0.2229,0.8447,-0.3723,0.118,0.0469,-30.9148,-28.4992,-7.6494,,adl
10.443564,0.002,-0.2229,0.8447,-0.3723,0.118,0.0469,-30.9148,-28.4992,-7.6494,,adl
10.445484,0.002,-0.2229,0.8447,-0.3723,0.118,0.0469,-30.9148,-28.4992,-7.6494,,adl
10.446872,0.002,-0.2229,0.8447,-0.3723,0.118,0.0469,-30.9148,-28.4992,-7.6494,,adl
10.480534,0.002,-0.2229,0.8447,-0.3723,0.118,0.0469,-30.988,-28.4504,-7.6982,,adl
10.48366,0.002,-0.2229,0.8447,0.1668,-0.1708,0.0274,-30.988,-28.4504,-7.6982,,adl
10.49316,-0.0586,-0.5492,0.468,0.1668,-0.1708,0.0274,-30.988,-28.4504,-7.6982,,adl
10.51043,-0.0586,-0.5492,0.468,0.1668,-0.1708,0.0274,-30.988,-28.4504,-7.6982,,adl
10.513432,-0.0586,-0.5492,0.468,0.1668,-0.1708,0.0274,-30.988,-28.4504,-7.6982,,adl
10.515473,-0.0586,-0.5492,0.468,0.1668,-0.1708,0.0274,-30.988,-28.4504,-7.6982,,adl
10.518099,-0.0586,-0.5492,0.468,0.1668,-0.1708,0.0274,-30.988,-28.4504,-7.6982,,adl
10.540579,-0.0586,-0.5492,0.468,0.1668,-0.1708,0.0274,-31.0002,-28.4504,-7.686,,adl
10.550001,-0.0586,-0.5492,0.468,0.2166,0.025,-0.0843,-31.0002,-28.4504,-7.686,,adl
10.560178,-0.1107,0.7453,-1.4366,0.2166,0.025,-0.0843,-31.0002,-28.4504,-7.686,,adl
10.575927,-0.1107,0.7453,-1.4366,0.2166,0.025,-0.0843,-31.0002,-28.4504,-7.686,,adl
10.577333,-0.1107,0.7453,-1.4366,0.2166,0.025,-0.0843,-31.0002,-28.4504,-7.686,,adl
10.57835,-0.1107,0.7453,-1.4366,0.2166,0.025,-0.0843,-31.0002,-28.4504,-7.686,,adl
10.600207,-0.1107,0.7453,-1.4366,0.2166,0.025,-0.0843,-30.9636,-28.4504,-7.6616,,adl
10.620223,-0.1107,0.7453,-1.4366,-0.1711,0.0474,0.0266,-30.9636,-28.4504,-7.6616,,adl
10.629622,0.2816,-0.1032,0.7911,-0.1711,0.0474,0.0266,-30.9636,-28.4504,-7.6616,,adl
10.647385,0.2816,-0.1032,0.7911,-0.1711,0.0474,0.0266,-30.9636,-28.4504,-7.6616,,adl
10.64999,0.2816,-0.1032,0.7911,-0.1711,0.0474,0.0266,-30.9636,-28.4504,-7.6616,,adl
10.652231,0.2816,-0.1032,0.7911,-0.1711,0.0474,0.0266,-30.9636,-28.4504,-7.6616,,adl
10.658384,0.2816,-0.1032,0.7911,-0.1711,0.0474,0.0266,-30.9758,-28.4504,-7.7348,,adl
10.689454,0.2816,-0.1032,0.7911,-0.2557,-0.0563,0.0402,-30.9758,-28.4504,-7.7348,,adl
10.704331,-0.254,-0.504,0.5955,-0.2557,-0.0563,0.0402,-30.9758,-28.4504,-7.7348,,adl
10.71226,-0.254,-0.504,0.5955,-0.2557,-0.0563,0.0402,-30.9758,-28.4504,-7.7348,,adl
10.715389,-0.254,-0.504,0.5955,-0.2557,-0.0563,0.0402,-30.9758,-28.4504,-7.7348,,adl
10.717407,-0.254,-0.504,0.5955,-0.2557,-0.0563,0.0402,-30.9758,-28.4504,-7.7348,,adl
10.719199,-0.254,-0.504,0.5955,-0.2557,-0.0563,0.0402,-30.9758,-28.4504,-7.7348,,adl
10.720619,-0.254,-0.504,0.5955,-0.2557,-0.0563,0.0402,-30.988,-28.4382,-7.6494,,adl
10.760248,-0.254,-0.504,0.5955,0.3538,0.0268,-0.0353,-30.988,-28.4382,-7.6494,,adl
10.768846,-0.0112,0.6027,-1.0008,0.3538,0.0268,-0.0353,-30.988,-28.4382,-7.6494,,adl
10.777533,-0.0112,0.6027,-1.0008,0.3538,0.0268,-0.0353,-30.988,-28.4382,-7.6494,,adl
10.779192,-0.0112,0.6027,-1.0008,0.3538,0.0268,-0.0353,-30.988,-28.4382,-7.6494,,adl
10.780357,-0.0112,0.6027,-1.0008,0.3538,0.0268,-0.0353,-30.988,-28.4382,-7.6494,,adl
10.78731,-0.0112,0.6027,-1.0008,0.3538,0.0268,-0.0353,-30.988,-28.426,-7.5762,,adl
10.829132,-0.0112,0.6027,-1.0008,-0.1245,-0.1001,-0.0156,-30.988,-28.426,-7.5762,,adl
10.838643,0.1196,-0.0736,0.2965,-0.1245,-0.1001,-0.0156,-30.988,-28.426,-7.5762,,adl
10.842641,0.1196,-0.0736,0.2965,-0.1245,-0.1001,-0.0156,-30.988,-28.426,-7.5762,,adl
10.845151,0.1196,-0.0736,0.2965,-0.1245,-0.1001,-0.0156,-30.988,-28.426,-7.5762,,adl
10.847469,0.1196,-0.0736,0.2965,-0.1245,-0.1001,-0.0156,-30.988,-28.426,-7.5762,,adl
10.849528,0.1196,-0.0736,0.2965,-0.1245,-0.1001,-0.0156,-31.0124,-28.426,-7.564,,adl
10.899346,0.1196,-0.0736,0.2965,-0.2097,0.0909,0.0317,-31.0124,-28.426,-7.564,,adl
10.909616,0.1196,-0.0736,0.2965,-0.2097,0.0909,0.0317,-30.988,-28.4016,-7.6006,,adl
10.912105,0.1196,-0.0736,0.2965,-0.2097,0.0909,0.0317,-30.988,-28.4016,-7.6006,,adl
10.914195,0.1196,-0.0736,0.2965,-0.2097,0.0909,0.0317,-30.988,-28.4016,-7.6006,,adl
10.916347,0.1196,-0.0736,0.2965,-0.2097,0.0909,0.0317,-30.988,-28.4016,-7.6006,,adl
10.918385,0.1196,-0.0736,0.2965,-0.2097,0.0909,0.0317,-30.988,-28.4016,-7.6006,,adl
10.920264,-0.0916,-0.4814,0.3935,-0.2097,0.0909,0.0317,-30.988,-28.4016,-7.6006,,adl
10.969801,-0.0916,-0.4814,0.3935,-0.2097,0.0909,0.0317,-30.9514,-28.426,-7.5518,,adl
10.973048,-0.0916,-0.4814,0.3935,0.2949,-0.0802,-0.0146,-30.9514,-28.426,-7.5518,,adl
10.976407,-0.05,0.363,-0.3398,0.2949,-0.0802,-0.0146,-30.9514,-28.426,-7.5518,,adl
10.978942,-0.05,0.363,-0.3398,0.2949,-0.0802,-0.0146,-30.9514,-28.426,-7.5518,,adl
10.980788,-0.05,0.363,-0.3398,0.2949,-0.0802,-0.0146,-30.9514,-28.426,-7.5518,,adl
10.982134,-0.05,0.363,-0.3398,0.2949,-0.0802,-0.0146,-30.9514,-28.426,-7.5518,,adl
11.029014,-0.05,0.363,-0.3398,0.2949,-0.0802,-0.0146,-30.9392,-28.3894,-7.5396,,adl
11.037884,-0.05,0.363,-0.3398,0.1826,0.038,-0.0084,-30.9392,-28.3894,-7.5396,,adl
11.042691,-0.05,0.363,-0.3398,0.1826,0.038,-0.0084,-30.9392,-28.3894,-7.5396,,adl
11.044981,-0.05,0.363,-0.3398,0.1826,0.038,-0.0084,-30.9392,-28.3894,-7.5396,,adl
11.046621,-0.05,0.363,-0.3398,0.1826,0.038,-0.0084,-30.9392,-28.3894,-7.5396,,adl
11.048384,0.1219,-0.095,-0.209,0.1826,0.038,-0.0084,-30.9392,-28.3894,-7.5396,,adl
11.088549,0.1219,-0.095,-0.209,0.1826,0.038,-0.0084,-30.988,-28.365,-7.503,,adl
11.107737,0.1219,-0.095,-0.209,0.2128,0.0583,0.0372,-30.988,-28.365,-7.503,,adl
11.110733,0.1219,-0.095,-0.209,0.2128,0.0583,0.0372,-30.988,-28.365,-7.503,,adl
11.112664,0.1219,-0.095,-0.209,0.2128,0.0583,0.0372,-30.988,-28.365,-7.503,,adl
11.114316,0.1219,-0.095,-0.209,0.2128,0.0583,0.0372,-30.988,-28.365,-7.503,,adl
11.116238,0.1219,-0.095,-0.209,0.2128,0.0583,0.0372,-30.988,-28.365,-7.503,,adl
11.118198,0.0438,-0.2343,0.1552,0.2128,0.0583,0.0372,-30.988,-28.365,-7.503,,adl
11.146241,0.0438,-0.2343,0.1552,0.2128,0.0583,0.0372,-31.0124,-28.3894,-7.3322,,adl
11.177313,0.0438,-0.2343,0.1552,-0.0401,-0.0533,0.0068,-31.0124,-28.3894,-7.3322,,adl
11.180809,0.0438,-0.2343,0.1552,-0.0401,-0.0533,0.0068,-31.0124,-28.3894,-7.3322,,adl
11.183229,0.0438,-0.2343,0.1552,-0.0401,-0.0533,0.0068,-31.0124,-28.3894,-7.3322,,adl
11.185864,0.0438,-0.2343,0.1552,-0.0401,-0.0533,0.0068,-31.0124,-28.3894,-7.3322,,adl
11.188457,-0.0273,0.0529,0.1093,-0.0401,-0.0533,0.0068,-31.0124,-28.3894,-7.3322,,adl
11.20886,-0.0273,0.0529,0.1093,-0.0401,-0.0533,0.0068,-31.0368,-28.426,-7.2102,,adl
11.245072,-0.0273,0.0529,0.1093,-0.0401,-0.0533,0.0068,-31.0368,-28.426,-7.2102,,adl
11.248646,-0.0273,0.0529,0.1093,-0.0401,-0.0533,0.0068,-31.0368,-28.426,-7.2102,,adl
11.251059,-0.0273,0.0529,0.1093,-0.0401,-0.0533,0.0068,-31.0368,-28.426,-7.2102,,adl
11.253582,-0.0273,0.0529,0.1093,-0.0182,-0.0132,0.0047,-31.0368,-28.426,-7.2102,,adl
11.257683,-0.0925,0.1077,0.0182,-0.0182,-0.0132,0.0047,-31.0368,-28.426,-7.2102,,adl
11.268225,-0.0925,0.1077,0.0182,-0.0182,-0.0132,0.0047,-31.049,-28.4382,-7.1126,,adl
11.311234,-0.0925,0.1077,0.0182,-0.0182,-0.0132,0.0047,-31.049,-28.4382,-7.1126,,adl
11.314414,-0.0925,0.1077,0.0182,-0.0182,-0.0132,0.0047,-31.049,-28.4382,-7.1126,,adl
11.317547,-0.0925,0.1077,0.0182,-0.0182,-0.0132,0.0047,-31.049,-28.4382,-7.1126,,adl
11.319995,-0.0925,0.1077,0.0182,-0.0182,-0.0132,0.0047,-31.049,-28.4382,-7.1126,,adl
11.322409,-0.0925,0.1077,0.0182,-0.0718,-0.0386,-0.0083,-31.049,-28.4382,-7.1126,,adl
11.332772,-0.0925,0.1077,0.0182,-0.0718,-0.0386,-0.0083,-31.049,-28.487,-6.9906,,adl
11.334088,-0.0686,-0.0376,0.012,-0.0718,-0.0386,-0.0083,-31.049,-28.487,-6.9906,,adl
11.37829,-0.0686,-0.0376,0.012,-0.0718,-0.0386,-0.0083,-31.049,-28.487,-6.9906,,adl
11.382297,-0.0686,-0.0376,0.012,-0.0718,-0.0386,-0.0083,-31.049,-28.487,-6.9906,,adl
11.385135,-0.0686,-0.0376,0.012,-0.0718,-0.0386,-0.0083,-31.049,-28.487,-6.9906,,adl
11.388208,-0.0686,-0.0376,0.012,-0.0718,-0.0386,-0.0083,-31.0612,-28.5968,-6.771,,adl
11.389859,-0.0686,-0.0376,0.012,-0.0889,-0.0256,-0.0039,-31.0612,-28.5968,-6.771,,adl
11.396251,-0.0061,0.0524,0.0057,-0.0889,-0.0256,-0.0039,-31.0612,-28.5968,-6.771,,adl
11.445263,-0.0061,0.0524,0.0057,-0.0889,-0.0256,-0.0039,-31.0856,-28.6212,-6.6124,,adl
11.449006,-0.0061,0.0524,0.0057,-0.0889,-0.0256,-0.0039,-31.0856,-28.6212,-6.6124,,adl
11.452006,-0.0061,0.0524,0.0057,-0.0889,-0.0256,-0.0039,-31.0856,-28.6212,-6.6124,,adl
11.45474,-0.0061,0.0524,0.0057,-0.0889,-0.0256,-0.0039,-31.0856,-28.6212,-6.6124,,adl
11.457654,-0.0061,0.0524,0.0057,-0.0281,-0.0011,0.004,-31.0856,-28.6212,-6.6124,,adl
11.465477,0.0542,0.008,-0.0076,-0.0281,-0.0011,0.004,-31.0856,-28.6212,-6.6124,,adl
11.507061,0.0542,0.008,-0.0076,-0.0281,-0.0011,0.004,-31.1222,-28.6578,-6.588,,adl
11.510315,0.0542,0.008,-0.0076,-0.0281,-0.0011,0.004,-31.1222,-28.6578,-6.588,,adl
11.512906,0.0542,0.008,-0.0076,-0.0281,-0.0011,0.004,-31.1222,-28.6578,-6.588,,adl
11.515301,0.0542,0.008,-0.0076,-0.0281,-0.0011,0.004,-31.1222,-28.6578,-6.588,,adl
11.517764,0.0542,0.008,-0.0076,-0.0281,-0.0011,0.004,-31.1222,-28.6578,-6.588,,adl
11.527956,0.0542,0.008,-0.0076,-0.0214,-0.0112,0.0041,-31.1222,-28.6578,-6.588,,adl
11.536203,0.0077,-0.0097,-0.0488,-0.0214,-0.0112,0.0041,-31.1222,-28.6578,-6.588,,adl
11.566895,0.0077,-0.0097,-0.0488,-0.0214,-0.0112,0.0041,-31.1466,-28.6456,-6.5758,,adl
11.577678,0.0077,-0.0097,-0.0488,-0.0214,-0.0112,0.0041,-31.1466,-28.6456,-6.5758,,adl
11.580662,0.0077,-0.0097,-0.0488,-0.0214,-0.0112,0.0041,-31.1466,-28.6456,-6.5758,,adl
11.583121,0.0077,-0.0097,-0.0488,-0.0214,-0.0112,0.0041,-31.1466,-28.6456,-6.5758,,adl
11.596643,0.0077,-0.0097,-0.0488,-0.0365,-0.0083,0.0068,-31.1466,-28.6456,-6.5758,,adl
11.606202,-0.0203,0.064,0.0185,-0.0365,-0.0083,0.0068,-31.1466,-28.6456,-6.5758,,adl
11.625987,-0.0203,0.064,0.0185,-0.0365,-0.0083,0.0068,-31.1466,-28.6334,-6.6124,,adl
11.644432,-0.0203,0.064,0.0185,-0.0365,-0.0083,0.0068,-31.1466,-28.6334,-6.6124,,adl
11.647369,-0.0203,0.064,0.0185,-0.0365,-0.0083,0.0068,-31.1466,-28.6334,-6.6124,,adl
11.649928,-0.0203,0.064,0.0185,-0.0365,-0.0083,0.0068,-31.1466,-28.6334,-6.6124,,adl
11.66571,-0.0203,0.064,0.0185,0.0015,-0.0088,-0.0076,-31.1466,-28.6334,-6.6124,,adl
11.675346,-0.0241,-0.0547,-0.0254,0.0015,-0.0088,-0.0076,-31.1466,-28.6334,-6.6124,,adl
11.684596,-0.0241,-0.0547,-0.0254,0.0015,-0.0088,-0.0076,-31.1344,-28.6456,-6.6368,,adl
11.709658,-0.0241,-0.0547,-0.0254,0.0015,-0.0088,-0.0076,-31.1344,-28.6456,-6.6368,,adl
11.712504,-0.0241,-0.0547,-0.0254,0.0015,-0.0088,-0.0076,-31.1344,-28.6456,-6.6368,,adl
11.714999,-0.0241,-0.0547,-0.0254,0.0015,-0.0088,-0.0076,-31.1344,-28.6456,-6.6368,,adl
11.717485,-0.0241,-0.0547,-0.0254,0.0015,-0.0088,-0.0076,-31.1344,-28.6456,-6.6368,,adl
11.73638,-0.0241,-0.0547,-0.0254,0.039,0.01,-0.0049,-31.1344,-28.6456,-6.6368,,adl
11.745989,-0.0241,-0.0547,-0.0254,0.039,0.01,-0.0049,-31.1466,-28.6334,-6.6978,,adl
11.748389,-0.003,0.0143,-0.0036,0.039,0.01,-0.0049,-31.1466,-28.6334,-6.6978,,adl
11.77814,-0.003,0.0143,-0.0036,0.039,0.01,-0.0049,-31.1466,-28.6334,-6.6978,,adl
11.781189,-0.003,0.0143,-0.0036,0.039,0.01,-0.0049,-31.1466,-28.6334,-6.6978,,adl
11.783223,-0.003,0.0143,-0.0036,0.039,0.01,-0.0049,-31.1466,-28.6334,-6.6978,,adl
11.805851,-0.003,0.0143,-0.0036,0.039,0.01,-0.0049,-31.1466,-28.5602,-6.7832,,adl
11.808826,-0.003,0.0143,-0.0036,0.0368,0.0072,0.004,-31.1466,-28.5602,-6.7832,,adl
11.820828,0.0347,-0.0733,-0.024,0.0368,0.0072,0.004,-31.1466,-28.5602,-6.7832,,adl
11.844286,0.0347,-0.0733,-0.024,0.0368,0.0072,0.004,-31.1466,-28.5602,-6.7832,,adl
11.845805,0.0347,-0.0733,-0.024,0.0368,0.0072,0.004,-31.1466,-28.5602,-6.7832,,adl
11.846815,0.0347,-0.0733,-0.024,0.0368,0.0072,0.004,-31.1466,-28.5602,-6.7832,,adl
11.847885,0.0347,-0.0733,-0.024,0.0368,0.0072,0.004,-31.1466,-28.5602,-6.7832,,adl
11.865575,0.0347,-0.0733,-0.024,0.0368,0.0072,0.004,-31.1954,-28.5114,-6.8442,,adl
11.874895,0.0347,-0.0733,-0.024,-0.0383,-0.0184,0.0025,-31.1954,-28.5114,-6.8442,,adl
11.889464,0.0064,0.0856,0.0312,-0.0383,-0.0184,0.0025,-31.1954,-28.5114,-6.8442,,adl
11.909771,0.0064,0.0856,0.0312,-0.0383,-0.0184,0.0025,-31.1954,-28.5114,-6.8442,,adl
11.911859,0.0064,0.0856,0.0312,-0.0383,-0.0184,0.0025,-31.1954,-28.5114,-6.8442,,adl
11.913271,0.0064,0.0856,0.0312,-0.0383,-0.0184,0.0025,-31.1954,-28.5114,-6.8442,,adl
11.923595,0.0064,0.0856,0.0312,-0.0383,-0.0184,0.0025,-31.232,-28.4382,-6.9662,,adl
11.944452,0.0064,0.0856,0.0312,0.0112,0.0101,-0.0015,-31.232,-28.4382,-6.9662,,adl
11.954519,-0.0134,0.0057,-0.0003,0.0112,0.0101,-0.0015,-31.232,-28.4382,-6.9662,,adl
11.977007,-0.0134,0.0057,-0.0003,0.0112,0.0101,-0.0015,-31.232,-28.4382,-6.9662,,adl
11.978662,-0.0134,0.0057,-0.0003,0.0112,0.0101,-0.0015,-31.232,-28.4382,-6.9662,,adl
11.98007,-0.0134,0.0057,-0.0003,0.0112,0.0101,-0.0015,-31.232,-28.4382,-6.9662,,adl
11.983157,-0.0134,0.0057,-0.0003,0.0112,0.0101,-0.0015,-31.2076,-28.4382,-6.9296,,adl
12.015008,-0.0134,0.0057,-0.0003,0.0602,0.0044,-0.0031,-31.2076,-28.4382,-6.9296,,adl
12.025251,-0.0093,-0.064,-0.0032,0.0602,0.0044,-0.0031,-31.2076,-28.4382,-6.9296,,adl
12.044928,-0.0093,-0.064,-0.0032,0.0602,0.0044,-0.0031,-31.2076,-28.4382,-6.9174,,adl
12.048162,-0.0093,-0.064,-0.0032,0.0602,0.0044,-0.0031,-31.2076,-28.4382,-6.9174,,adl
12.050242,-0.0093,-0.064,-0.0032,0.0602,0.0044,-0.0031,-31.2076,-28.4382,-6.9174,,adl
12.052688,-0.0093,-0.064,-0.0032,0.0602,0.0044,-0.0031,-31.2076,-28.4382,-6.9174,,adl
12.054735,-0.0093,-0.064,-0.0032,0.0602,0.0044,-0.0031,-31.2076,-28.4382,-6.9174,,adl
12.085018,-0.0093,-0.064,-0.0032,-0.0021,-0.0113,-0.0053,-31.2076,-28.4382,-6.9174,,adl
12.100021,0.0014,-0.0295,-0.0362,-0.0021,-0.0113,-0.0053,-31.2076,-28.4382,-6.9174,,adl
12.103915,0.0014,-0.0295,-0.0362,-0.0021,-0.0113,-0.0053,-31.1832,-28.426,-6.8808,,adl
12.112091,0.0014,-0.0295,-0.0362,-0.0021,-0.0113,-0.0053,-31.1832,-28.426,-6.8808,,adl
12.113569,0.0014,-0.0295,-0.0362,-0.0021,-0.0113,-0.0053,-31.1832,-28.426,-6.8808,,adl
12.114607,0.0014,-0.0295,-0.0362,-0.0021,-0.0113,-0.0053,-31.1832,-28.426,-6.8808,,adl
12.154991,0.0014,-0.0295,-0.0362,-0.0036,0.0136,0.0041,-31.1832,-28.426,-6.8808,,adl
12.167274,0.0014,-0.0295,-0.0362,-0.0036,0.0136,0.0041,-31.1832,-28.4016,-6.8564,,adl
12.169606,0.0252,0.079,0.0268,-0.0036,0.0136,0.0041,-31.1832,-28.4016,-6.8564,,adl
12.177341,0.0252,0.079,0.0268,-0.0036,0.0136,0.0041,-31.1832,-28.4016,-6.8564,,adl
12.180106,0.0252,0.079,0.0268,-0.0036,0.0136,0.0041,-31.1832,-28.4016,-6.8564,,adl
12.181335,0.0252,0.079,0.0268,-0.0036,0.0136,0.0041,-31.1832,-28.4016,-6.8564,,adl
12.224939,0.0252,0.079,0.0268,-0.0036,0.0136,0.0041,-31.171,-28.4138,-6.832,,adl
12.227763,0.0252,0.079,0.0268,-0.0148,-0.0048,0.0041,-31.171,-28.4138,-6.832,,adl
12.236903,0.0067,-0.0275,0.0304,-0.0148,-0.0048,0.0041,-31.171,-28.4138,-6.832,,adl
12.244064,0.0067,-0.0275,0.0304,-0.0148,-0.0048,0.0041,-31.171,-28.4138,-6.832,,adl
12.245968,0.0067,-0.0275,0.0304,-0.0148,-0.0048,0.0041,-31.171,-28.4138,-6.832,,adl
12.247619,0.0067,-0.0275,0.0304,-0.0148,-0.0048,0.0041,-31.171,-28.4138,-6.832,,adl
12.248903,0.0067,-0.0275,0.0304,-0.0148,-0.0048,0.0041,-31.171,-28.4138,-6.832,,adl
12.284323,0.0067,-0.0275,0.0304,-0.0148,-0.0048,0.0041,-31.1832,-28.4382,-6.7954,,adl
12.296453,0.0067,-0.0275,0.0304,-0.0543,-0.0021,0.0025,-31.1832,-28.4382,-6.7954,,adl
12.304053,-0.0135,0.0167,-0.0233,-0.0543,-0.0021,0.0025,-31.1832,-28.4382,-6.7954,,adl
12.309674,-0.0135,0.0167,-0.0233,-0.0543,-0.0021,0.0025,-31.1832,-28.4382,-6.7954,,adl
12.313624,-0.0135,0.0167,-0.0233,-0.0543,-0.0021,0.0025,-31.1832,-28.4382,-6.7954,,adl
12.31643,-0.0135,0.0167,-0.0233,-0.0543,-0.0021,0.0025,-31.1832,-28.4382,-6.7954,,adl
12.347536,-0.0135,0.0167,-0.0233,-0.0543,-0.0021,0.0025,-31.1832,-28.4382,-6.832,,adl
12.365984,-0.0135,0.0167,-0.0233,-0.026,-0.0127,-0.0001,-31.1832,-28.4382,-6.832,,adl
12.37964,-0.0053,0.0904,0.0214,-0.026,-0.0127,-0.0001,-31.1832,-28.4382,-6.832,,adl
12.384001,-0.0053,0.0904,0.0214,-0.026,-0.0127,-0.0001,-31.1832,-28.4382,-6.832,,adl
12.38582,-0.0053,0.0904,0.0214,-0.026,-0.0127,-0.0001,-31.1832,-28.4382,-6.832,,adl
12.387527,-0.0053,0.0904,0.0214,-0.026,-0.0127,-0.0001,-31.1832,-28.4382,-6.832,,adl
12.396534,-0.0053,0.0904,0.0214,-0.026,-0.0127,-0.0001,-31.1954,-28.4504,-6.8198,,adl
12.433322,-0.0053,0.0904,0.0214,0.0798,0.0072,-0.0108,-31.1954,-28.4504,-6.8198,,adl
12.448919,-0.0053,0.0904,0.0214,0.0798,0.0072,-0.0108,-31.2076,-28.4992,-6.8442,,adl
12.451524,-0.0194,-0.1001,-0.0763,0.0798,0.0072,-0.0108,-31.2076,-28.4992,-6.8442,,adl
12.457244,-0.0194,-0.1001,-0.0763,0.0798,0.0072,-0.0108,-31.2076,-28.4992,-6.8442,,adl
12.459429,-0.0194,-0.1001,-0.0763,0.0798,0.0072,-0.0108,-31.2076,-28.4992,-6.8442,,adl
12.46098,-0.0194,-0.1001,-0.0763,0.0798,0.0072,-0.0108,-31.2076,-28.4992,-6.8442,,adl
12.462297,-0.0194,-0.1001,-0.0763,0.0798,0.0072,-0.0108,-31.2076,-28.4992,-6.8442,,adl
12.504781,-0.0194,-0.1001,-0.0763,0.0358,0.0228,0.0007,-31.2076,-28.4992,-6.8442,,adl
12.507523,-0.0194,-0.1001,-0.0763,0.0358,0.0228,0.0007,-31.1832,-28.5114,-6.8442,,adl
12.509335,-0.0194,-0.1001,-0.0763,0.0358,0.0228,0.0007,-31.1832,-28.5114,-6.8442,,adl
12.511053,-0.0194,-0.1001,-0.0763,0.0358,0.0228,0.0007,-31.1832,-28.5114,-6.8442,,adl
12.512797,-0.0194,-0.1001,-0.0763,0.0358,0.0228,0.0007,-31.1832,-28.5114,-6.8442,,adl
12.51449,0.0291,-0.1002,0.0159,0.0358,0.0228,0.0007,-31.1832,-28.5114,-6.8442,,adl
12.561691,0.0291,-0.1002,0.0159,0.0358,0.0228,0.0007,-31.1954,-28.609,-6.771,,adl
12.572838,0.0291,-0.1002,0.0159,0.0015,-0.0079,-0.0004,-31.1954,-28.609,-6.771,,adl
12.575944,0.0291,-0.1002,0.0159,0.0015,-0.0079,-0.0004,-31.1954,-28.609,-6.771,,adl
12.577221,0.0291,-0.1002,0.0159,0.0015,-0.0079,-0.0004,-31.1954,-28.609,-6.771,,adl
12.578457,0.0291,-0.1002,0.0159,0.0015,-0.0079,-0.0004,-31.1954,-28.609,-6.771,,adl
12.584167,-0.0032,0.1052,0.0163,0.0015,-0.0079,-0.0004,-31.1954,-28.609,-6.771,,adl
12.623077,-0.0032,0.1052,0.0163,0.0015,-0.0079,-0.0004,-31.1466,-28.6944,-6.6612,,adl
12.642576,-0.0032,0.1052,0.0163,0.0202,0.0093,0.0036,-31.1466,-28.6944,-6.6612,,adl
12.645166,-0.0032,0.1052,0.0163,0.0202,0.0093,0.0036,-31.1466,-28.6944,-6.6612,,adl
12.646905,-0.0032,0.1052,0.0163,0.0202,0.0093,0.0036,-31.1466,-28.6944,-6.6612,,adl
12.64877,-0.0032,0.1052,0.0163,0.0202,0.0093,0.0036,-31.1466,-28.6944,-6.6612,,adl
12.650472,-0.0032,0.1052,0.0163,0.0202,0.0093,0.0036,-31.1466,-28.6944,-6.6612,,adl
12.652375,0.0108,0.0089,-0.005,0.0202,0.0093,0.0036,-31.1466,-28.6944,-6.6612,,adl
12.681398,0.0108,0.0089,-0.005,0.0202,0.0093,0.0036,-31.1222,-28.6944,-6.6124,,adl
12.711006,0.0108,0.0089,-0.005,0.0414,0.0182,0.0017,-31.1222,-28.6944,-6.6124,,adl
12.713853,0.0108,0.0089,-0.005,0.0414,0.0182,0.0017,-31.1222,-28.6944,-6.6124,,adl
12.715566,0.0108,0.0089,-0.005,0.0414,0.0182,0.0017,-31.1222,-28.6944,-6.6124,,adl
12.717627,0.0108,0.0089,-0.005,0.0414,0.0182,0.0017,-31.1222,-28.6944,-6.6124,,adl
12.722182,0.0055,-0.0734,0.0084,0.0414,0.0182,0.0017,-31.1222,-28.6944,-6.6124,,adl
12.74208,0.0055,-0.0734,0.0084,0.0414,0.0182,0.0017,-31.1466,-28.6944,-6.6368,,adl
12.77749,0.0055,-0.0734,0.0084,0.0414,0.0182,0.0017,-31.1466,-28.6944,-6.6368,,adl
12.780132,0.0055,-0.0734,0.0084,0.0414,0.0182,0.0017,-31.1466,-28.6944,-6.6368,,adl
12.781822,0.0055,-0.0734,0.0084,0.0414,0.0182,0.0017,-31.1466,-28.6944,-6.6368,,adl
12.783634,0.0055,-0.0734,0.0084,0.0651,0.0075,-0.0045,-31.1466,-28.6944,-6.6368,,adl
12.792553,-0.0089,-0.0003,-0.0274,0.0651,0.0075,-0.0045,-31.1466,-28.6944,-6.6368,,adl
12.801207,-0.0089,-0.0003,-0.0274,0.0651,0.0075,-0.0045,-31.1344,-28.7066,-6.6002,,adl
12.844751,-0.0089,-0.0003,-0.0274,0.0651,0.0075,-0.0045,-31.1344,-28.7066,-6.6002,,adl
12.847352,-0.0089,-0.0003,-0.0274,0.0651,0.0075,-0.0045,-31.1344,-28.7066,-6.6002,,adl
12.849357,-0.0089,-0.0003,-0.0274,0.0651,0.0075,-0.0045,-31.1344,-28.7066,-6.6002,,adl
12.8516,-0.0089,-0.0003,-0.0274,0.0651,0.0075,-0.0045,-31.1344,-28.7066,-6.6002,,adl
12.853633,-0.0089,-0.0003,-0.0274,0.0225,0.0117,-0.002,-31.1344,-28.7066,-6.6002,,adl
12.861982,-0.0089,-0.0003,-0.0274,0.0225,0.0117,-0.002,-31.0734,-28.7554,-6.5148,,adl
12.864314,-0.0013,-0.0254,0.0055,0.0225,0.0117,-0.002,-31.0734,-28.7554,-6.5148,,adl
12.911344,-0.0013,-0.0254,0.0055,0.0225,0.0117,-0.002,-31.0734,-28.7554,-6.5148,,adl
12.914582,-0.0013,-0.0254,0.0055,0.0225,0.0117,-0.002,-31.0734,-28.7554,-6.5148,,adl
12.917124,-0.0013,-0.0254,0.0055,0.0225,0.0117,-0.002,-31.0734,-28.7554,-6.5148,,adl
12.923576,-0.0013,-0.0254,0.0055,-0.4151,-0.0333,0.0025,-31.0734,-28.7554,-6.5148,,adl
12.92643,-0.0013,-0.0254,0.0055,-0.4151,-0.0333,0.0025,-31.0368,-28.7066,-6.5026,,adl
12.934245,0.0015,0.1251,0.108,-0.4151,-0.0333,0.0025,-31.0368,-28.7066,-6.5026,,adl
12.97815,0.0015,0.1251,0.108,-0.4151,-0.0333,0.0025,-31.0368,-28.7066,-6.5026,,adl
12.980839,0.0015,0.1251,0.108,-0.4151,-0.0333,0.0025,-31.0368,-28.7066,-6.5026,,adl
12.982545,0.0015,0.1251,0.108,-0.4151,-0.0333,0.0025,-31.0368,-28.7066,-6.5026,,adl
12.984564,0.0015,0.1251,0.108,-0.4151,-0.0333,0.0025,-31.0368,-28.67,-6.6368,,adl
12.991225,0.0015,0.1251,0.108,-0.1003,0.0027,0.0132,-31.0368,-28.67,-6.6368,,adl
13.002199,-0.0651,0.3249,0.1797,-0.1003,0.0027,0.0132,-31.0368,-28.67,-6.6368,,adl
13.042459,-0.0651,0.3249,0.1797,-0.1003,0.0027,0.0132,-31.049,-28.548,-6.7954,,adl
13.0439,-0.0651,0.3249,0.1797,-0.1003,0.0027,0.0132,-31.049,-28.548,-6.7954,,adl
13.044648,-0.0651,0.3249,0.1797,-0.1003,0.0027,0.0132,-31.049,-28.548,-6.7954,,adl
13.045237,-0.0651,0.3249,0.1797,-0.1003,0.0027,0.0132,-31.049,-28.548,-6.7954,,adl
13.045837,-0.0651,0.3249,0.1797,-0.1003,0.0027,0.0132,-31.049,-28.548,-6.7954,,adl
13.060984,-0.0651,0.3249,0.1797,0.3044,0.0519,-0.0047,-31.049,-28.548,-6.7954,,adl
13.071046,0.1013,-0.4046,-0.5673,0.3044,0.0519,-0.0047,-31.049,-28.548,-6.7954,,adl
13.0975,0.1013,-0.4046,-0.5673,0.3044,0.0519,-0.0047,-31.0978,-28.4626,-6.954,,adl
13.110598,0.1013,-0.4046,-0.5673,0.3044,0.0519,-0.0047,-31.0978,-28.4626,-6.954,,adl
13.113217,0.1013,-0.4046,-0.5673,0.3044,0.0519,-0.0047,-31.0978,-28.4626,-6.954,,adl
13.115294,0.1013,-0.4046,-0.5673,0.3044,0.0519,-0.0047,-31.0978,-28.4626,-6.954,,adl
13.13079,0.1013,-0.4046,-0.5673,-0.3293,-0.0382,-0.0182,-31.0978,-28.4626,-6.954,,adl
13.141148,-0.0335,0.1192,0.4279,-0.3293,-0.0382,-0.0182,-31.0978,-28.4626,-6.954,,adl
13.160768,-0.0335,0.1192,0.4279,-0.3293,-0.0382,-0.0182,-31.11,-28.4504,-7.076,,adl
13.17617,-0.0335,0.1192,0.4279,-0.3293,-0.0382,-0.0182,-31.11,-28.4504,-7.076,,adl
13.177988,-0.0335,0.1192,0.4279,-0.3293,-0.0382,-0.0182,-31.11,-28.4504,-7.076,,adl
13.179389,-0.0335,0.1192,0.4279,-0.3293,-0.0382,-0.0182,-31.11,-28.4504,-7.076,,adl
13.201144,-0.0335,0.1192,0.4279,0.2939,0.004,0.0128,-31.11,-28.4504,-7.076,,adl
13.215534,-0.0722,-0.0501,-0.1644,0.2939,0.004,0.0128,-31.11,-28.4504,-7.076,,adl
13.219246,-0.0722,-0.0501,-0.1644,0.2939,0.004,0.0128,-31.0734,-28.426,-7.1004,,adl
13.244386,-0.0722,-0.0501,-0.1644,0.2939,0.004,0.0128,-31.0734,-28.426,-7.1004,,adl
13.24664,-0.0722,-0.0501,-0.1644,0.2939,0.004,0.0128,-31.0734,-28.426,-7.1004,,adl
13.248526,-0.0722,-0.0501,-0.1644,0.2939,0.004,0.0128,-31.0734,-28.426,-7.1004,,adl
13.250183,-0.0722,-0.0501,-0.1644,0.2939,0.004,0.0128,-31.0734,-28.426,-7.1004,,adl
13.270801,-0.0722,-0.0501,-0.1644,0.0971,0.0166,-0.0177,-31.0734,-28.426,-7.1004,,adl
13.283129,-0.0722,-0.0501,-0.1644,0.0971,0.0166,-0.0177,-31.0734,-28.426,-7.1126,,adl
13.284951,0.0831,0.0277,-0.1492,0.0971,0.0166,-0.0177,-31.0734,-28.426,-7.1126,,adl
13.310794,0.0831,0.0277,-0.1492,0.0971,0.0166,-0.0177,-31.0734,-28.426,-7.1126,,adl
13.312712,0.0831,0.0277,-0.1492,0.0971,0.0166,-0.0177,-31.0734,-28.426,-7.1126,,adl
13.31395,0.0831,0.0277,-0.1492,0.0971,0.0166,-0.0177,-31.0734,-28.426,-7.1126,,adl
13.340506,0.0831,0.0277,-0.1492,0.0971,0.0166,-0.0177,-31.0612,-28.4138,-7.1858,,adl
13.343579,0.0831,0.0277,-0.1492,-0.157,0.0152,0.0021,-31.0612,-28.4138,-7.1858,,adl
13.353492,-0.016,-0.1144,0.2059,-0.157,0.0152,0.0021,-31.0612,-28.4138,-7.1858,,adl
13.376304,-0.016,-0.1144,0.2059,-0.157,0.0152,0.0021,-31.0612,-28.4138,-7.1858,,adl
13.378194,-0.016,-0.1144,0.2059,-0.157,0.0152,0.0021,-31.0612,-28.4138,-7.1858,,adl
13.379655,-0.016,-0.1144,0.2059,-0.157,0.0152,0.0021,-31.0612,-28.4138,-7.1858,,adl
13.400084,-0.016,-0.1144,0.2059,-0.157,0.0152,0.0021,-31.0734,-28.4138,-7.2834,,adl
13.410035,-0.016,-0.1144,0.2059,-0.0933,-0.0418,0.0056,-31.0734,-28.4138,-7.2834,,adl
13.420118,-0.0107,0.1573,0.1503,-0.0933,-0.0418,0.0056,-31.0734,-28.4138,-7.2834,,adl
13.444577,-0.0107,0.1573,0.1503,-0.0933,-0.0418,0.0056,-31.0734,-28.4138,-7.2834,,adl
13.447981,-0.0107,0.1573,0.1503,-0.0933,-0.0418,0.0056,-31.0734,-28.4138,-7.2834,,adl
13.450488,-0.0107,0.1573,0.1503,-0.0933,-0.0418,0.0056,-31.0734,-28.4138,-7.2834,,adl
13.453123,-0.0107,0.1573,0.1503,-0.0933,-0.0418,0.0056,-31.0734,-28.4138,-7.2834,,adl
13.460251,-0.0107,0.1573,0.1503,-0.0933,-0.0418,0.0056,-31.0856,-28.4382,-7.2346,,adl
13.47801,-0.0107,0.1573,0.1503,0.2981,0.0567,-0.0049,-31.0856,-28.4382,-7.2346,,adl
13.495166,-0.0048,-0.0234,-0.4064,0.2981,0.0567,-0.0049,-31.0856,-28.4382,-7.2346,,adl
13.509829,-0.0048,-0.0234,-0.4064,0.2981,0.0567,-0.0049,-31.0856,-28.4382,-7.2346,,adl
13.512108,-0.0048,-0.0234,-0.4064,0.2981,0.0567,-0.0049,-31.0856,-28.4382,-7.2346,,adl
13.513726,-0.0048,-0.0234,-0.4064,0.2981,0.0567,-0.0049,-31.0856,-28.4382,-7.2346,,adl
13.518226,-0.0048,-0.0234,-0.4064,0.2981,0.0567,-0.0049,-31.0734,-28.4748,-7.2224,,adl
13.549469,-0.0048,-0.0234,-0.4064,-0.055,-0.0366,-0.0084,-31.0734,-28.4748,-7.2224,,adl
13.562542,0.0008,-0.1607,0.2705,-0.055,-0.0366,-0.0084,-31.0734,-28.4748,-7.2224,,adl
13.577226,0.0008,-0.1607,0.2705,-0.055,-0.0366,-0.0084,-31.049,-28.4992,-7.1614,,adl
13.578828,0.0008,-0.1607,0.2705,-0.055,-0.0366,-0.0084,-31.049,-28.4992,-7.1614,,adl
13.580009,0.0008,-0.1607,0.2705,-0.055,-0.0366,-0.0084,-31.049,-28.4992,-7.1614,,adl
13.581093,0.0008,-0.1607,0.2705,-0.055,-0.0366,-0.0084,-31.049,-28.4992,-7.1614,,adl
13.620858,0.0008,-0.1607,0.2705,-0.0012,0.0097,0.0035,-31.049,-28.4992,-7.1614,,adl
13.629432,-0.0056,0.0264,-0.0776,-0.0012,0.0097,0.0035,-31.049,-28.4992,-7.1614,,adl
13.644606,-0.0056,0.0264,-0.0776,-0.0012,0.0097,0.0035,-31.049,-28.4992,-7.1614,,adl
13.647198,-0.0056,0.0264,-0.0776,-0.0012,0.0097,0.0035,-31.049,-28.4992,-7.1614,,adl
13.649663,-0.0056,0.0264,-0.0776,-0.0012,0.0097,0.0035,-31.049,-28.4992,-7.1614,,adl
13.651769,-0.0056,0.0264,-0.0776,-0.0012,0.0097,0.0035,-31.049,-28.4992,-7.1614,,adl
13.654148,-0.0056,0.0264,-0.0776,-0.0012,0.0097,0.0035,-31.0612,-28.5114,-7.1126,,adl
13.689429,-0.0056,0.0264,-0.0776,-0.172,-0.012,0.0083,-31.0612,-28.5114,-7.1126,,adl
13.698968,0.0075,0.1959,0.1622,-0.172,-0.012,0.0083,-31.0612,-28.5114,-7.1126,,adl
13.709454,0.0075,0.1959,0.1622,-0.172,-0.012,0.0083,-31.0856,-28.5114,-7.1248,,adl
13.712327,0.0075,0.1959,0.1622,-0.172,-0.012,0.0083,-31.0856,-28.5114,-7.1248,,adl
13.714822,0.0075,0.1959,0.1622,-0.172,-0.012,0.0083,-31.0856,-28.5114,-7.1248,,adl
13.716847,0.0075,0.1959,0.1622,-0.172,-0.012,0.0083,-31.0856,-28.5114,-7.1248,,adl
13.759563,0.0075,0.1959,0.1622,0.2031,0.0032,-0.0021,-31.0856,-28.5114,-7.1248,,adl
13.773791,0.0075,0.1959,0.1622,0.2031,0.0032,-0.0021,-31.0734,-28.5114,-7.1614,,adl
13.776161,-0.0271,-0.057,-0.1745,0.2031,0.0032,-0.0021,-31.0734,-28.5114,-7.1614,,adl
13.777861,-0.0271,-0.057,-0.1745,0.2031,0.0032,-0.0021,-31.0734,-28.5114,-7.1614,,adl
13.779047,-0.0271,-0.057,-0.1745,0.2031,0.0032,-0.0021,-31.0734,-28.5114,-7.1614,,adl
13.780239,-0.0271,-0.057,-0.1745,0.2031,0.0032,-0.0021,-31.0734,-28.5114,-7.1614,,adl
13.827591,-0.0271,-0.057,-0.1745,0.2031,0.0032,-0.0021,-31.0734,-28.5358,-7.137,,adl
13.830651,-0.0271,-0.057,-0.1745,-0.0262,0.0028,-0.0109,-31.0734,-28.5358,-7.137,,adl
13.840468,0.0678,-0.154,-0.0228,-0.0262,0.0028,-0.0109,-31.0734,-28.5358,-7.137,,adl
13.84359,0.0678,-0.154,-0.0228,-0.0262,0.0028,-0.0109,-31.0734,-28.5358,-7.137,,adl
13.846957,0.0678,-0.154,-0.0228,-0.0262,0.0028,-0.0109,-31.0734,-28.5358,-7.137,,adl
13.848861,0.0678,-0.154,-0.0228,-0.0262,0.0028,-0.0109,-31.0734,-28.5358,-7.137,,adl
13.850164,0.0678,-0.154,-0.0228,-0.0262,0.0028,-0.0109,-31.0734,-28.5358,-7.137,,adl
13.888967,0.0678,-0.154,-0.0228,-0.0262,0.0028,-0.0109,-31.11,-28.548,-7.0638,,adl
13.898368,0.0678,-0.154,-0.0228,0.0406,0.0142,0.0028,-31.11,-28.548,-7.0638,,adl
13.908705,-0.0796,0.0364,0.0967,0.0406,0.0142,0.0028,-31.11,-28.548,-7.0638,,adl
13.910872,-0.0796,0.0364,0.0967,0.0406,0.0142,0.0028,-31.11,-28.548,-7.0638,,adl
13.913961,-0.0796,0.0364,0.0967,0.0406,0.0142,0.0028,-31.11,-28.548,-7.0638,,adl
13.915689,-0.0796,0.0364,0.0967,0.0406,0.0142,0.0028,-31.11,-28.548,-7.0638,,adl
13.948564,-0.0796,0.0364,0.0967,0.0406,0.0142,0.0028,-31.11,-28.5724,-6.9418,,adl
13.968243,-0.0796,0.0364,0.0967,-0.0454,-0.0226,0.0024,-31.11,-28.5724,-6.9418,,adl
13.977529,0.0118,0.1304,-0.0164,-0.0454,-0.0226,0.0024,-31.11,-28.5724,-6.9418,,adl
13.980513,0.0118,0.1304,-0.0164,-0.0454,-0.0226,0.0024,-31.11,-28.5724,-6.9418,,adl
13.98189,0.0118,0.1304,-0.0164,-0.0454,-0.0226,0.0024,-31.11,-28.5724,-6.9418,,adl
13.983249,0.0118,0.1304,-0.0164,-0.0454,-0.0226,0.0024,-31.11,-28.5724,-6.9418,,adl
13.984713,0.0118,0.1304,-0.0164,-0.0454,-0.0226,0.0024,-31.11,-28.5724,-6.9418,,adl
14.00671,0.0118,0.1304,-0.0164,-0.0454,-0.0226,0.0024,-31.0734,-28.6212,-6.8076,,adl
14.037963,0.0118,0.1304,-0.0164,0.0549,0.0124,-0.0023,-31.0734,-28.6212,-6.8076,,adl
14.042653,0.0118,0.1304,-0.0164,0.0549,0.0124,-0.0023,-31.0734,-28.6212,-6.8076,,adl
14.045543,0.0118,0.1304,-0.0164,0.0549,0.0124,-0.0023,-31.0734,-28.6212,-6.8076,,adl
14.047738,0.0118,0.1304,-0.0164,0.0549,0.0124,-0.0023,-31.0734,-28.6212,-6.8076,,adl
14.050027,0.0249,-0.0558,-0.0205,0.0549,0.0124,-0.0023,-31.0734,-28.6212,-6.8076,,adl
14.065957,0.0249,-0.0558,-0.0205,0.0549,0.0124,-0.0023,-31.049,-28.6456,-6.7344,,adl
14.107648,0.0249,-0.0558,-0.0205,0.041,0.0138,-0.0021,-31.049,-28.6456,-6.7344,,adl
14.111268,0.0249,-0.0558,-0.0205,0.041,0.0138,-0.0021,-31.049,-28.6456,-6.7344,,adl
14.113692,0.0249,-0.0558,-0.0205,0.041,0.0138,-0.0021,-31.049,-28.6456,-6.7344,,adl
14.115712,0.0249,-0.0558,-0.0205,0.041,0.0138,-0.0021,-31.049,-28.6456,-6.7344,,adl
14.117867,0.0187,-0.1346,0.0018,0.041,0.0138,-0.0021,-31.049,-28.6456,-6.7344,,adl
14.1288,0.0187,-0.1346,0.0018,0.041,0.0138,-0.0021,-31.049,-28.7066,-6.649,,adl
14.178179,0.0187,-0.1346,0.0018,0.0186,-0.0009,0.0004,-31.049,-28.7066,-6.649,,adl
14.181479,0.0187,-0.1346,0.0018,0.0186,-0.0009,0.0004,-31.049,-28.7066,-6.649,,adl
14.18357,0.0187,-0.1346,0.0018,0.0186,-0.0009,0.0004,-31.049,-28.7066,-6.649,,adl
14.185895,0.0187,-0.1346,0.0018,0.0186,-0.0009,0.0004,-31.049,-28.7066,-6.649,,adl
14.188142,0.0187,-0.1346,0.0018,0.0186,-0.0009,0.0004,-31.049,-28.7066,-6.649,,adl
14.190247,0.0187,-0.1346,0.0018,0.0186,-0.0009,0.0004,-31.0368,-28.7066,-6.588,,adl
14.192772,-0.0331,0.1056,-0.0013,0.0186,-0.0009,0.0004,-31.0368,-28.7066,-6.588,,adl
14.245494,-0.0331,0.1056,-0.0013,0.0186,-0.0009,0.0004,-31.0612,-28.7432,-6.5148,,adl
14.248125,-0.0331,0.1056,-0.0013,0.0055,-0.0073,-0.0009,-31.0612,-28.7432,-6.5148,,adl
14.250187,-0.0331,0.1056,-0.0013,0.0055,-0.0073,-0.0009,-31.0612,-28.7432,-6.5148,,adl
14.252104,-0.0331,0.1056,-0.0013,0.0055,-0.0073,-0.0009,-31.0612,-28.7432,-6.5148,,adl
14.253917,-0.0331,0.1056,-0.0013,0.0055,-0.0073,-0.0009,-31.0612,-28.7432,-6.5148,,adl
14.256694,-0.0099,-0.0075,0.0091,0.0055,-0.0073,-0.0009,-31.0612,-28.7432,-6.5148,,adl
14.307568,-0.0099,-0.0075,0.0091,0.0055,-0.0073,-0.0009,-31.0734,-28.7432,-6.5148,,adl
14.310829,-0.0099,-0.0075,0.0091,0.0055,-0.0073,-0.0009,-31.0734,-28.7432,-6.5148,,adl
14.313026,-0.0099,-0.0075,0.0091,0.0055,-0.0073,-0.0009,-31.0734,-28.7432,-6.5148,,adl
14.315072,-0.0099,-0.0075,0.0091,0.0055,-0.0073,-0.0009,-31.0734,-28.7432,-6.5148,,adl
14.317195,-0.0099,-0.0075,0.0091,-0.0176,0.0008,0.0007,-31.0734,-28.7432,-6.5148,,adl
14.332607,0.0141,-0.0247,0.0206,-0.0176,0.0008,0.0007,-31.0734,-28.7432,-6.5148,,adl
14.365641,0.0141,-0.0247,0.0206,-0.0176,0.0008,0.0007,-31.0612,-28.7432,-6.5148,,adl
14.377006,0.0141,-0.0247,0.0206,-0.0176,0.0008,0.0007,-31.0612,-28.7432,-6.5148,,adl
14.378439,0.0141,-0.0247,0.0206,-0.0176,0.0008,0.0007,-31.0612,-28.7432,-6.5148,,adl
14.380072,0.0141,-0.0247,0.0206,-0.0176,0.0008,0.0007,-31.0612,-28.7432,-6.5148,,adl
14.381218,0.0141,-0.0247,0.0206,-0.0176,0.0008,0.0007,-31.0612,-28.7432,-6.5148,,adl
14.384975,0.0141,-0.0247,0.0206,0.0047,0.0033,0.0024,-31.0612,-28.7432,-6.5148,,adl
14.395239,0.0164,0.0455,-0.0137,0.0047,0.0033,0.0024,-31.0612,-28.7432,-6.5148,,adl
14.426629,0.0164,0.0455,-0.0137,0.0047,0.0033,0.0024,-31.0368,-28.7432,-6.5392,,adl
14.44476,0.0164,0.0455,-0.0137,0.0047,0.0033,0.0024,-31.0368,-28.7432,-6.5392,,adl
14.447549,0.0164,0.0455,-0.0137,0.0047,0.0033,0.0024,-31.0368,-28.7432,-6.5392,,adl
14.449156,0.0164,0.0455,-0.0137,0.0047,0.0033,0.0024,-31.0368,-28.7432,-6.5392,,adl
14.456362,0.0164,0.0455,-0.0137,0.0425,0.0097,-0.0035,-31.0368,-28.7432,-6.5392,,adl
14.465596,-0.0114,-0.0562,-0.0084,0.0425,0.0097,-0.0035,-31.0368,-28.7432,-6.5392,,adl
14.485452,-0.0114,-0.0562,-0.0084,0.0425,0.0097,-0.0035,-31.0734,-28.731,-6.6246,,adl
14.509591,-0.0114,-0.0562,-0.0084,0.0425,0.0097,-0.0035,-31.0734,-28.731,-6.6246,,adl
14.512819,-0.0114,-0.0562,-0.0084,0.0425,0.0097,-0.0035,-31.0734,-28.731,-6.6246,,adl
14.514917,-0.0114,-0.0562,-0.0084,0.0425,0.0097,-0.0035,-31.0734,-28.731,-6.6246,,adl
14.525908,-0.0114,-0.0562,-0.0084,0.0087,-0.0037,0.004,-31.0734,-28.731,-6.6246,,adl
14.536092,-0.0262,0.0483,0.0016,0.0087,-0.0037,0.004,-31.0734,-28.731,-6.6246,,adl
14.545955,-0.0262,0.0483,0.0016,0.0087,-0.0037,0.004,-31.11,-28.7188,-6.6734,,adl
14.577541,-0.0262,0.0483,0.0016,0.0087,-0.0037,0.004,-31.11,-28.7188,-6.6734,,adl
14.580754,-0.0262,0.0483,0.0016,0.0087,-0.0037,0.004,-31.11,-28.7188,-6.6734,,adl
14.582851,-0.0262,0.0483,0.0016,0.0087,-0.0037,0.004,-31.11,-28.7188,-6.6734,,adl
14.585132,-0.0262,0.0483,0.0016,0.0087,-0.0037,0.004,-31.11,-28.7188,-6.6734,,adl
14.595958,-0.0262,0.0483,0.0016,0.0374,0.0077,0.0,-31.11,-28.7188,-6.6734,,adl
14.61122,-0.0262,0.0483,0.0016,0.0374,0.0077,0.0,-31.0856,-28.6944,-6.71,,adl
14.613234,0.0433,-0.041,-0.0137,0.0374,0.0077,0.0,-31.0856,-28.6944,-6.71,,adl
14.644869,0.0433,-0.041,-0.0137,0.0374,0.0077,0.0,-31.0856,-28.6944,-6.71,,adl
14.646927,0.0433,-0.041,-0.0137,0.0374,0.0077,0.0,-31.0856,-28.6944,-6.71,,adl
14.648476,0.0433,-0.041,-0.0137,0.0374,0.0077,0.0,-31.0856,-28.6944,-6.71,,adl
14.665836,0.0433,-0.041,-0.0137,0.0374,0.0077,0.0,-31.0612,-28.6944,-6.71,,adl
14.668577,0.0433,-0.041,-0.0137,0.0142,0.0039,-0.0017,-31.0612,-28.6944,-6.71,,adl
14.675305,-0.0025,-0.0031,0.0164,0.0142,0.0039,-0.0017,-31.0612,-28.6944,-6.71,,adl
14.710915,-0.0025,-0.0031,0.0164,0.0142,0.0039,-0.0017,-31.0612,-28.6944,-6.71,,adl
14.713761,-0.0025,-0.0031,0.0164,0.0142,0.0039,-0.0017,-31.0612,-28.6944,-6.71,,adl
14.716229,-0.0025,-0.0031,0.0164,0.0142,0.0039,-0.0017,-31.0612,-28.6944,-6.71,,adl
14.725351,-0.0025,-0.0031,0.0164,0.0142,0.0039,-0.0017,-31.0246,-28.6822,-6.6978,,adl
14.735711,-0.0025,-0.0031,0.0164,0.0229,-0.0008,0.0007,-31.0246,-28.6822,-6.6978,,adl
14.743596,-0.0225,0.0086,-0.0161,0.0229,-0.0008,0.0007,-31.0246,-28.6822,-6.6978,,adl
14.77774,-0.0225,0.0086,-0.0161,0.0229,-0.0008,0.0007,-31.0246,-28.6822,-6.6978,,adl
14.780833,-0.0225,0.0086,-0.0161,0.0229,-0.0008,0.0007,-31.0246,-28.6822,-6.6978,,adl
14.78297,-0.0225,0.0086,-0.0161,0.0229,-0.0008,0.0007,-31.0246,-28.6822,-6.6978,,adl
14.785343,-0.0225,0.0086,-0.0161,0.0229,-0.0008,0.0007,-31.0246,-28.6822,-6.6978,,adl
14.787477,-0.0225,0.0086,-0.0161,0.0229,-0.0008,0.0007,-31.0124,-28.67,-6.649,,adl
14.80547,-0.0225,0.0086,-0.0161,0.0133,-0.0056,0.0008,-31.0124,-28.67,-6.649,,adl
14.814786,-0.0136,-0.0027,0.0149,0.0133,-0.0056,0.0008,-31.0124,-28.67,-6.649,,adl
