time,ax,ay,az,wx,wy,wz,Bx,By,Bz,Unnamed: 10,label
0.035464,0.0,0.0,0.0,0.0,0.0,0.0,0.0,0.0,0.0,,adl
0.080286,0.0,0.0,0.0,-0.0117,0.0079,0.0009,0.0,0.0,0.0,,adl
0.098693,0.0,0.0,0.0,-0.0117,0.0079,0.0009,0.0,0.0,0.0,,adl
0.101075,0.0,0.0,0.0,-0.0117,0.0079,0.0009,0.0,0.0,0.0,,adl
0.102329,0.0,0.0,0.0,-0.0117,0.0079,0.0009,0.0,0.0,0.0,,adl
0.103522,0.0,0.0,0.0,-0.0117,0.0079,0.0009,-33.9282,-25.5834,-6.9174,,adl
0.149971,0.0,0.0,0.0,0.0,0.0023,-0.0053,-33.9282,-25.5834,-6.9174,,adl
0.153871,0.0,0.0,0.0,0.0,0.0023,-0.0053,-34.0624,-25.4736,-7.3322,,adl
0.163916,0.0,0.0,0.0,0.0,0.0023,-0.0053,-34.0624,-25.4736,-7.3322,,adl
0.165432,0.0,0.0,0.0,0.0,0.0023,-0.0053,-34.0624,-25.4736,-7.3322,,adl
0.166627,0.0,0.0,0.0,0.0,0.0023,-0.0053,-34.0624,-25.4736,-7.3322,,adl
0.167629,0.0,0.0,0.0,0.0,0.0023,-0.0053,-34.0624,-25.4736,-7.3322,,adl
0.16866,0.0,0.0,0.0,0.0,0.0023,-0.0053,-34.0624,-25.4736,-7.3322,,adl
0.219376,0.0,0.0,0.0,-0.0121,0.0003,0.0017,-34.0624,-25.4736,-7.3322,,adl
0.220637,0.0,0.0,0.0,-0.0121,0.0003,0.0017,-34.0502,-25.3882,-7.4542,,adl
0.228324,-0.007,0.0046,-0.0289,-0.0121,0.0003,0.0017,-34.0502,-25.3882,-7.4542,,adl
0.229103,-0.007,0.0046,-0.0289,-0.0121,0.0003,0.0017,-34.0502,-25.3882,-7.4542,,adl
0.229841,-0.007,0.0046,-0.0289,-0.0121,0.0003,0.0017,-34.0502,-25.3882,-7.4542,,adl
0.230441,-0.007,0.0046,-0.0289,-0.0121,0.0003,0.0017,-34.0502,-25.3882,-7.4542,,adl
0.279336,-0.007,0.0046,-0.0289,-0.0121,0.0003,0.0017,-34.0868,-25.3882,-7.564,,adl
0.28902,-0.007,0.0046,-0.0289,0.002,0.0019,0.0023,-34.0868,-25.3882,-7.564,,adl
0.299186,-0.007,0.0046,-0.0289,0.002,0.0019,0.0023,-34.0868,-25.3882,-7.564,,adl
0.300437,-0.007,0.0046,-0.0289,0.002,0.0019,0.0023,-34.0868,-25.3882,-7.564,,adl
0.301359,-0.007,0.0046,-0.0289,0.002,0.0019,0.0023,-34.0868,-25.3882,-7.564,,adl
0.302412,-0.0452,0.0025,0.0136,0.002,0.0019,0.0023,-34.0868,-25.3882,-7.564,,adl
0.338772,-0.0452,0.0025,0.0136,0.002,0.0019,0.0023,-34.1112,-25.3516,-7.5762,,adl
0.358861,-0.0452,0.0025,0.0136,0.0072,-0.0003,0.0007,-34.1112,-25.3516,-7.5762,,adl
0.36243,-0.0452,0.0025,0.0136,0.0072,-0.0003,0.0007,-34.1112,-25.3516,-7.5762,,adl
0.365041,-0.0452,0.0025,0.0136,0.0072,-0.0003,0.0007,-34.1112,-25.3516,-7.5762,,adl
0.367938,-0.0452,0.0025,0.0136,0.0072,-0.0003,0.0007,-34.1112,-25.3516,-7.5762,,adl
0.370387,-0.0452,0.0025,0.0136,0.0072,-0.0003,0.0007,-34.1112,-25.3516,-7.5762,,adl
0.372045,0.0116,-0.0079,-0.0084,0.0072,-0.0003,0.0007,-34.1112,-25.3516,-7.5762,,adl
0.398082,0.0116,-0.0079,-0.0084,0.0072,-0.0003,0.0007,-34.1112,-25.3028,-7.6616,,adl
0.429804,0.0116,-0.0079,-0.0084,0.0198,0.0071,-0.0007,-34.1112,-25.3028,-7.6616,,adl
0.43335,0.0116,-0.0079,-0.0084,0.0198,0.0071,-0.0007,-34.1112,-25.3028,-7.6616,,adl
0.435749,0.0116,-0.0079,-0.0084,0.0198,0.0071,-0.0007,-34.1112,-25.3028,-7.6616,,adl
0.437884,0.0116,-0.0079,-0.0084,0.0198,0.0071,-0.0007,-34.1112,-25.3028,-7.6616,,adl
0.439643,0.0285,0.0098,0.0115,0.0198,0.0071,-0.0007,-34.1112,-25.3028,-7.6616,,adl
0.457919,0.0285,0.0098,0.0115,0.0198,0.0071,-0.0007,-34.1356,-25.2784,-7.6738,,adl
0.496738,0.0285,0.0098,0.0115,0.0321,0.0061,0.0007,-34.1356,-25.2784,-7.6738,,adl
0.497639,0.0285,0.0098,0.0115,0.0321,0.0061,0.0007,-34.1356,-25.2784,-7.6738,,adl
0.498147,0.0285,0.0098,0.0115,0.0321,0.0061,0.0007,-34.1356,-25.2784,-7.6738,,adl
0.498564,0.0285,0.0098,0.0115,0.0321,0.0061,0.0007,-34.1356,-25.2784,-7.6738,,adl
0.498959,0.0285,0.0098,0.0115,0.0321,0.0061,0.0007,-34.1356,-25.2784,-7.6738,,adl
0.506266,-0.0082,-0.0467,0.0016,0.0321,0.0061,0.0007,-34.1356,-25.2784,-7.6738,,adl
0.517337,-0.0082,-0.0467,0.0016,0.0321,0.0061,0.0007,-34.1356,-25.2784,-7.6738,,adl
0.563761,-0.0082,-0.0467,0.0016,0.0321,0.0061,0.0007,-34.1356,-25.2784,-7.6738,,adl
0.567962,-0.0082,-0.0467,0.0016,0.0321,0.0061,0.0007,-34.1356,-25.2784,-7.6738,,adl
0.569865,-0.0082,-0.0467,0.0016,0.0321,0.0061,0.0007,-34.1356,-25.2784,-7.6738,,adl
0.571655,-0.0082,-0.0467,0.0016,0.0423,0.0015,0.0021,-34.1356,-25.2784,-7.6738,,adl
0.579099,-0.0082,-0.0467,0.0016,0.0423,0.0015,0.0021,-34.16,-25.2662,-7.747,,adl
0.581861,-0.0119,-0.0033,-0.009,0.0423,0.0015,0.0021,-34.16,-25.2662,-7.747,,adl
0.630495,-0.0119,-0.0033,-0.009,0.0423,0.0015,0.0021,-34.16,-25.2662,-7.747,,adl
0.632897,-0.0119,-0.0033,-0.009,0.0423,0.0015,0.0021,-34.16,-25.2662,-7.747,,adl
0.634669,-0.0119,-0.0033,-0.009,0.0423,0.0015,0.0021,-34.16,-25.2662,-7.747,,adl
0.637645,-0.0119,-0.0033,-0.009,0.0423,0.0015,0.0021,-34.1478,-25.254,-7.747,,adl
0.639492,-0.0119,-0.0033,-0.009,0.0425,0.0016,-0.0033,-34.1478,-25.254,-7.747,,adl
0.6469,-0.0058,-0.0331,0.0242,0.0425,0.0016,-0.0033,-34.1478,-25.254,-7.747,,adl
0.697318,-0.0058,-0.0331,0.0242,0.0425,0.0016,-0.0033,-34.1722,-25.3028,-7.6738,,adl
0.70199,-0.0058,-0.0331,0.0242,0.0425,0.0016,-0.0033,-34.1722,-25.3028,-7.6738,,adl
0.703284,-0.0058,-0.0331,0.0242,0.0425,0.0016,-0.0033,-34.1722,-25.3028,-7.6738,,adl
0.704495,-0.0058,-0.0331,0.0242,0.0425,0.0016,-0.0033,-34.1722,-25.3028,-7.6738,,adl
0.705773,-0.0058,-0.0331,0.0242,0.0425,0.0016,-0.0033,-34.1722,-25.3028,-7.6738,,adl
0.706841,-0.0058,-0.0331,0.0242,0.0356,0.0056,0.0011,-34.1722,-25.3028,-7.6738,,adl
0.715852,0.0211,0.0416,-0.0104,0.0356,0.0056,0.0011,-34.1722,-25.3028,-7.6738,,adl
0.758304,0.0211,0.0416,-0.0104,0.0356,0.0056,0.0011,-34.1722,-25.3028,-7.6372,,adl
0.7642,0.0211,0.0416,-0.0104,0.0356,0.0056,0.0011,-34.1722,-25.3028,-7.6372,,adl
0.766633,0.0211,0.0416,-0.0104,0.0356,0.0056,0.0011,-34.1722,-25.3028,-7.6372,,adl
0.769344,0.0211,0.0416,-0.0104,0.0356,0.0056,0.0011,-34.1722,-25.3028,-7.6372,,adl
0.776597,0.0211,0.0416,-0.0104,0.0437,-0.0068,0.002,-34.1722,-25.3028,-7.6372,,adl
0.785202,0.0011,-0.0569,0.015,0.0437,-0.0068,0.002,-34.1722,-25.3028,-7.6372,,adl
0.817909,0.0011,-0.0569,0.015,0.0437,-0.0068,0.002,-34.1722,-25.3272,-7.6128,,adl
0.830515,0.0011,-0.0569,0.015,0.0437,-0.0068,0.002,-34.1722,-25.3272,-7.6128,,adl
0.831418,0.0011,-0.0569,0.015,0.0437,-0.0068,0.002,-34.1722,-25.3272,-7.6128,,adl
0.832054,0.0011,-0.0569,0.015,0.0437,-0.0068,0.002,-34.1722,-25.3272,-7.6128,,adl
0.847603,0.0011,-0.0569,0.015,0.0181,0.0003,-0.0007,-34.1722,-25.3272,-7.6128,,adl
0.857429,-0.0071,0.0152,0.0112,0.0181,0.0003,-0.0007,-34.1722,-25.3272,-7.6128,,adl
0.875767,-0.0071,0.0152,0.0112,0.0181,0.0003,-0.0007,-34.1722,-25.3394,-7.503,,adl
0.897454,-0.0071,0.0152,0.0112,0.0181,0.0003,-0.0007,-34.1722,-25.3394,-7.503,,adl
0.901061,-0.0071,0.0152,0.0112,0.0181,0.0003,-0.0007,-34.1722,-25.3394,-7.503,,adl
0.903502,-0.0071,0.0152,0.0112,0.0181,0.0003,-0.0007,-34.1722,-25.3394,-7.503,,adl
0.905385,-0.0071,0.0152,0.0112,0.0181,0.0003,-0.0007,-34.1722,-25.3394,-7.503,,adl
0.915381,-0.0071,0.0152,0.0112,0.0093,-0.0032,0.0004,-34.1722,-25.3394,-7.503,,adl
0.92675,-0.006,0.0514,-0.0081,0.0093,-0.0032,0.0004,-34.1722,-25.3394,-7.503,,adl
0.936188,-0.006,0.0514,-0.0081,0.0093,-0.0032,0.0004,-34.1722,-25.3882,-7.4298,,adl
0.964021,-0.006,0.0514,-0.0081,0.0093,-0.0032,0.0004,-34.1722,-25.3882,-7.4298,,adl
0.966789,-0.006,0.0514,-0.0081,0.0093,-0.0032,0.0004,-34.1722,-25.3882,-7.4298,,adl
0.969043,-0.006,0.0514,-0.0081,0.0093,-0.0032,0.0004,-34.1722,-25.3882,-7.4298,,adl
0.986031,-0.006,0.0514,-0.0081,0.0165,-0.0016,0.0007,-34.1722,-25.3882,-7.4298,,adl
0.997327,-0.006,0.0514,-0.0081,0.0165,-0.0016,0.0007,-34.1722,-25.4004,-7.3932,,adl
1.00052,-0.0111,-0.0526,0.0166,0.0165,-0.0016,0.0007,-34.1722,-25.4004,-7.3932,,adl
1.030777,-0.0111,-0.0526,0.0166,0.0165,-0.0016,0.0007,-34.1722,-25.4004,-7.3932,,adl
1.033343,-0.0111,-0.0526,0.0166,0.0165,-0.0016,0.0007,-34.1722,-25.4004,-7.3932,,adl
1.03593,-0.0111,-0.0526,0.0166,0.0165,-0.0016,0.0007,-34.1722,-25.4004,-7.3932,,adl
1.056938,-0.0111,-0.0526,0.0166,0.0092,0.0064,-0.0017,-34.1722,-25.4004,-7.3932,,adl
1.059966,-0.0111,-0.0526,0.0166,0.0092,0.0064,-0.0017,-34.1844,-25.3882,-7.3688,,adl
1.070257,0.0134,0.0328,0.0057,0.0092,0.0064,-0.0017,-34.1844,-25.3882,-7.3688,,adl
1.096496,0.0134,0.0328,0.0057,0.0092,0.0064,-0.0017,-34.1844,-25.3882,-7.3688,,adl
1.097705,0.0134,0.0328,0.0057,0.0092,0.0064,-0.0017,-34.1844,-25.3882,-7.3688,,adl
1.098455,0.0134,0.0328,0.0057,0.0092,0.0064,-0.0017,-34.1844,-25.3882,-7.3688,,adl
1.099354,0.0134,0.0328,0.0057,0.0092,0.0064,-0.0017,-34.1844,-25.3882,-7.3688,,adl
1.116731,0.0134,0.0328,0.0057,0.0092,0.0064,-0.0017,-34.1844,-25.4004,-7.32,,adl
1.124149,0.0134,0.0328,0.0057,0.0238,-0.0047,0.0015,-34.1844,-25.4004,-7.32,,adl
1.135291,0.0053,0.0012,-0.0065,0.0238,-0.0047,0.0015,-34.1844,-25.4004,-7.32,,adl
1.164136,0.0053,0.0012,-0.0065,0.0238,-0.0047,0.0015,-34.1844,-25.4004,-7.32,,adl
1.166871,0.0053,0.0012,-0.0065,0.0238,-0.0047,0.0015,-34.1844,-25.4004,-7.32,,adl
1.170026,0.0053,0.0012,-0.0065,0.0238,-0.0047,0.0015,-34.1844,-25.4004,-7.32,,adl
1.175648,0.0053,0.0012,-0.0065,0.0238,-0.0047,0.0015,-34.2332,-25.3882,-7.3078,,adl
1.195212,0.0053,0.0012,-0.0065,0.0107,-0.0025,0.0012,-34.2332,-25.3882,-7.3078,,adl
1.206163,-0.0205,-0.008,0.0038,0.0107,-0.0025,0.0012,-34.2332,-25.3882,-7.3078,,adl
1.23011,-0.0205,-0.008,0.0038,0.0107,-0.0025,0.0012,-34.2332,-25.3882,-7.3078,,adl
1.232581,-0.0205,-0.008,0.0038,0.0107,-0.0025,0.0012,-34.2332,-25.3882,-7.3078,,adl
1.235906,-0.0205,-0.008,0.0038,0.0107,-0.0025,0.0012,-34.2332,-25.3882,-7.3078,,adl
1.238155,-0.0205,-0.008,0.0038,0.0107,-0.0025,0.0012,-34.1966,-25.3882,-7.2468,,adl
1.265388,-0.0205,-0.008,0.0038,0.0116,-0.0024,0.0009,-34.1966,-25.3882,-7.2468,,adl
1.276628,0.0018,0.0142,-0.0007,0.0116,-0.0024,0.0009,-34.1966,-25.3882,-7.2468,,adl
1.294313,0.0018,0.0142,-0.0007,0.0116,-0.0024,0.0009,-34.16,-25.4492,-7.1126,,adl
1.297039,0.0018,0.0142,-0.0007,0.0116,-0.0024,0.0009,-34.16,-25.4492,-7.1126,,adl
1.299286,0.0018,0.0142,-0.0007,0.0116,-0.0024,0.0009,-34.16,-25.4492,-7.1126,,adl
1.301385,0.0018,0.0142,-0.0007,0.0116,-0.0024,0.0009,-34.16,-25.4492,-7.1126,,adl
1.303118,0.0018,0.0142,-0.0007,0.0116,-0.0024,0.0009,-34.16,-25.4492,-7.1126,,adl
1.335802,0.0018,0.0142,-0.0007,0.0136,-0.0009,-0.0019,-34.16,-25.4492,-7.1126,,adl
1.348591,-0.0016,-0.0099,-0.0012,0.0136,-0.0009,-0.0019,-34.16,-25.4492,-7.1126,,adl
1.355739,-0.0016,-0.0099,-0.0012,0.0136,-0.0009,-0.0019,-34.1112,-25.5346,-7.0272,,adl
1.362064,-0.0016,-0.0099,-0.0012,0.0136,-0.0009,-0.0019,-34.1112,-25.5346,-7.0272,,adl
1.363045,-0.0016,-0.0099,-0.0012,0.0136,-0.0009,-0.0019,-34.1112,-25.5346,-7.0272,,adl
1.363891,-0.0016,-0.0099,-0.0012,0.0136,-0.0009,-0.0019,-34.1112,-25.5346,-7.0272,,adl
1.406574,-0.0016,-0.0099,-0.0012,0.0063,0.0013,0.0007,-34.1112,-25.5346,-7.0272,,adl
1.414637,-0.0016,-0.0099,-0.0012,0.0063,0.0013,0.0007,-34.0868,-25.5956,-6.9174,,adl
1.415336,0.0029,0.0146,-0.0004,0.0063,0.0013,0.0007,-34.0868,-25.5956,-6.9174,,adl
1.4304,0.0029,0.0146,-0.0004,0.0063,0.0013,0.0007,-34.0868,-25.5956,-6.9174,,adl
1.430983,0.0029,0.0146,-0.0004,0.0063,0.0013,0.0007,-34.0868,-25.5956,-6.9174,,adl
1.431381,0.0029,0.0146,-0.0004,0.0063,0.0013,0.0007,-34.0868,-25.5956,-6.9174,,adl
1.476284,0.0029,0.0146,-0.0004,0.0063,0.0013,0.0007,-34.0746,-25.5834,-6.9174,,adl
1.47908,0.0029,0.0146,-0.0004,0.0092,-0.0024,0.0001,-34.0746,-25.5834,-6.9174,,adl
1.484929,-0.0102,0.0117,0.0005,0.0092,-0.0024,0.0001,-34.0746,-25.5834,-6.9174,,adl
1.509616,-0.0102,0.0117,0.0005,0.0092,-0.0024,0.0001,-34.0746,-25.5834,-6.9174,,adl
1.511223,-0.0102,0.0117,0.0005,0.0092,-0.0024,0.0001,-34.0746,-25.5834,-6.9174,,adl
1.512381,-0.0102,0.0117,0.0005,0.0092,-0.0024,0.0001,-34.0746,-25.5834,-6.9174,,adl
1.513625,-0.0102,0.0117,0.0005,0.0092,-0.0024,0.0001,-34.0746,-25.5834,-6.9174,,adl
1.544691,-0.0102,0.0117,0.0005,0.0097,-0.0003,0.0003,-34.0746,-25.5834,-6.9174,,adl
1.552468,-0.0102,0.0117,0.0005,0.0097,-0.0003,0.0003,-34.0136,-25.5956,-6.8686,,adl
1.555484,0.003,-0.0101,0.0014,0.0097,-0.0003,0.0003,-34.0136,-25.5956,-6.8686,,adl
1.563899,0.003,-0.0101,0.0014,0.0097,-0.0003,0.0003,-34.0136,-25.5956,-6.8686,,adl
1.566124,0.003,-0.0101,0.0014,0.0097,-0.0003,0.0003,-34.0136,-25.5956,-6.8686,,adl
1.567421,0.003,-0.0101,0.0014,0.0097,-0.0003,0.0003,-34.0136,-25.5956,-6.8686,,adl
1.603127,0.003,-0.0101,0.0014,0.0097,-0.0003,0.0003,-33.977,-25.6566,-6.8198,,adl
1.612694,0.003,-0.0101,0.0014,0.0079,-0.0011,0.0004,-33.977,-25.6566,-6.8198,,adl
1.622625,0.0048,0.0109,-0.0014,0.0079,-0.0011,0.0004,-33.977,-25.6566,-6.8198,,adl
1.628233,0.0048,0.0109,-0.0014,0.0079,-0.0011,0.0004,-33.977,-25.6566,-6.8198,,adl
1.630819,0.0048,0.0109,-0.0014,0.0079,-0.0011,0.0004,-33.977,-25.6566,-6.8198,,adl
1.632338,0.0048,0.0109,-0.0014,0.0079,-0.0011,0.0004,-33.977,-25.6566,-6.8198,,adl
1.651324,0.0048,0.0109,-0.0014,0.0079,-0.0011,0.0004,-33.9404,-25.6688,-6.7832,,adl
1.684257,0.0048,0.0109,-0.0014,0.0081,-0.0013,0.0001,-33.9404,-25.6688,-6.7832,,adl
1.692232,0.0003,-0.0001,-0.0034,0.0081,-0.0013,0.0001,-33.9404,-25.6688,-6.7832,,adl
1.695962,0.0003,-0.0001,-0.0034,0.0081,-0.0013,0.0001,-33.9404,-25.6688,-6.7832,,adl
1.69686,0.0003,-0.0001,-0.0034,0.0081,-0.0013,0.0001,-33.9404,-25.6688,-6.7832,,adl
1.697696,0.0003,-0.0001,-0.0034,0.0081,-0.0013,0.0001,-33.9404,-25.6688,-6.7832,,adl
1.698452,0.0003,-0.0001,-0.0034,0.0081,-0.0013,0.0001,-33.9404,-25.6688,-6.7832,,adl
1.70072,0.0003,-0.0001,-0.0034,0.0081,-0.0013,0.0001,-33.9526,-25.6322,-6.8564,,adl
1.75285,0.0003,-0.0001,-0.0034,0.0057,-0.0011,0.0003,-33.9526,-25.6322,-6.8564,,adl
1.755841,0.0003,-0.0001,-0.0034,0.0057,-0.0011,0.0003,-34.0014,-25.559,-6.9662,,adl
1.763632,-0.0092,-0.0004,-0.0004,0.0057,-0.0011,0.0003,-34.0014,-25.559,-6.9662,,adl
1.766189,-0.0092,-0.0004,-0.0004,0.0057,-0.0011,0.0003,-34.0014,-25.559,-6.9662,,adl
1.768437,-0.0092,-0.0004,-0.0004,0.0057,-0.0011,0.0003,-34.0014,-25.559,-6.9662,,adl
1.770483,-0.0092,-0.0004,-0.0004,0.0057,-0.0011,0.0003,-34.0014,-25.559,-6.9662,,adl
1.802899,-0.0092,-0.0004,-0.0004,0.0057,-0.0011,0.0003,-34.0868,-25.4858,-7.076,,adl
1.822888,-0.0092,-0.0004,-0.0004,-0.0056,0.0029,-0.0017,-34.0868,-25.4858,-7.076,,adl
1.828528,-0.0092,-0.0004,-0.0004,-0.0056,0.0029,-0.0017,-34.0868,-25.4858,-7.076,,adl
1.830437,-0.0092,-0.0004,-0.0004,-0.0056,0.0029,-0.0017,-34.0868,-25.4858,-7.076,,adl
1.832285,-0.0092,-0.0004,-0.0004,-0.0056,0.0029,-0.0017,-34.0868,-25.4858,-7.076,,adl
1.83444,0.0007,0.0045,0.0031,-0.0056,0.0029,-0.0017,-34.0868,-25.4858,-7.076,,adl
1.850674,0.0007,0.0045,0.0031,-0.0056,0.0029,-0.0017,-34.0258,-25.4614,-7.198,,adl
1.893745,0.0007,0.0045,0.0031,-0.0067,0.0035,-0.0012,-34.0258,-25.4614,-7.198,,adl
1.898316,0.0007,0.0045,0.0031,-0.0067,0.0035,-0.0012,-34.0258,-25.4614,-7.198,,adl
1.900631,0.0007,0.0045,0.0031,-0.0067,0.0035,-0.0012,-34.0258,-25.4614,-7.198,,adl
1.902771,0.0007,0.0045,0.0031,-0.0067,0.0035,-0.0012,-34.0258,-25.4614,-7.198,,adl
1.904342,0.0007,0.0045,0.0031,-0.0067,0.0035,-0.0012,-34.0258,-25.4614,-7.198,,adl
1.906037,0.0007,0.0045,0.0031,-0.0067,0.0035,-0.0012,-34.0868,-25.498,-7.2102,,adl
1.907259,0.0065,0.0166,0.021,-0.0067,0.0035,-0.0012,-34.0868,-25.498,-7.2102,,adl
1.952998,0.0065,0.0166,0.021,-0.0067,0.0035,-0.0012,-34.0624,-25.4736,-7.2468,,adl
1.963355,0.0065,0.0166,0.021,-0.013,-0.0024,-0.0023,-34.0624,-25.4736,-7.2468,,adl
1.967328,0.0065,0.0166,0.021,-0.013,-0.0024,-0.0023,-34.0624,-25.4736,-7.2468,,adl
1.970352,0.0065,0.0166,0.021,-0.013,-0.0024,-0.0023,-34.0624,-25.4736,-7.2468,,adl
1.974502,0.0065,0.0166,0.021,-0.013,-0.0024,-0.0023,-34.0624,-25.4736,-7.2468,,adl
1.976235,0.0094,0.0102,-0.018,-0.013,-0.0024,-0.0023,-34.0624,-25.4736,-7.2468,,adl
2.001525,0.0094,0.0102,-0.018,-0.013,-0.0024,-0.0023,-34.0868,-25.4492,-7.3078,,adl
2.031401,0.0094,0.0102,-0.018,-0.0176,-0.0096,0.0053,-34.0868,-25.4492,-7.3078,,adl
2.034678,0.0094,0.0102,-0.018,-0.0176,-0.0096,0.0053,-34.0868,-25.4492,-7.3078,,adl
2.037112,0.0094,0.0102,-0.018,-0.0176,-0.0096,0.0053,-34.0868,-25.4492,-7.3078,,adl
2.03992,0.0094,0.0102,-0.018,-0.0176,-0.0096,0.0053,-34.0868,-25.4492,-7.3078,,adl
2.047917,-0.015,0.0159,-0.0047,-0.0176,-0.0096,0.0053,-34.0868,-25.4492,-7.3078,,adl
2.051434,-0.015,0.0159,-0.0047,-0.0176,-0.0096,0.0053,-34.038,-25.4736,-7.3688,,adl
2.09731,-0.015,0.0159,-0.0047,-0.0176,-0.0096,0.0053,-34.038,-25.4736,-7.3688,,adl
2.100875,-0.015,0.0159,-0.0047,-0.0176,-0.0096,0.0053,-34.038,-25.4736,-7.3688,,adl
2.104213,-0.015,0.0159,-0.0047,-0.0176,-0.0096,0.0053,-34.038,-25.4736,-7.3688,,adl
2.106585,-0.015,0.0159,-0.0047,-0.0176,-0.0096,0.0053,-34.038,-25.4736,-7.3688,,adl
2.108114,-0.015,0.0159,-0.0047,-0.0141,0.0016,-0.0015,-34.038,-25.4736,-7.3688,,adl
2.10969,-0.015,0.0159,-0.0047,-0.0141,0.0016,-0.0015,-34.0624,-25.5346,-7.2956,,adl
2.115075,-0.0289,-0.01,0.0045,-0.0141,0.0016,-0.0015,-34.0624,-25.5346,-7.2956,,adl
2.153177,-0.0289,-0.01,0.0045,-0.0141,0.0016,-0.0015,-33.9892,-25.5224,-7.2712,,adl
2.164015,-0.0289,-0.01,0.0045,-0.0141,0.0016,-0.0015,-33.9892,-25.5224,-7.2712,,adl
2.166314,-0.0289,-0.01,0.0045,-0.0141,0.0016,-0.0015,-33.9892,-25.5224,-7.2712,,adl
2.167632,-0.0289,-0.01,0.0045,-0.0141,0.0016,-0.0015,-33.9892,-25.5224,-7.2712,,adl
2.170988,-0.0289,-0.01,0.0045,-0.0234,0.0019,-0.0039,-33.9892,-25.5224,-7.2712,,adl
2.180399,0.0482,0.0068,0.0013,-0.0234,0.0019,-0.0039,-33.9892,-25.5224,-7.2712,,adl
2.202686,0.0482,0.0068,0.0013,-0.0234,0.0019,-0.0039,-33.9404,-25.5468,-7.2468,,adl
2.231488,0.0482,0.0068,0.0013,-0.0234,0.0019,-0.0039,-33.9404,-25.5468,-7.2468,,adl
2.234439,0.0482,0.0068,0.0013,-0.0234,0.0019,-0.0039,-33.9404,-25.5468,-7.2468,,adl
2.236877,0.0482,0.0068,0.0013,-0.0234,0.0019,-0.0039,-33.9404,-25.5468,-7.2468,,adl
2.239087,0.0482,0.0068,0.0013,-0.0234,0.0019,-0.0039,-33.9404,-25.5468,-7.2468,,adl
2.242841,0.0482,0.0068,0.0013,-0.0222,-0.0011,0.0009,-33.9404,-25.5468,-7.2468,,adl
2.251805,0.0482,0.0068,0.0013,-0.0222,-0.0011,0.0009,-34.0014,-25.559,-7.1126,,adl
2.252964,-0.0203,0.0182,-0.0041,-0.0222,-0.0011,0.0009,-34.0014,-25.559,-7.1126,,adl
2.296372,-0.0203,0.0182,-0.0041,-0.0222,-0.0011,0.0009,-34.0014,-25.559,-7.1126,,adl
2.300096,-0.0203,0.0182,-0.0041,-0.0222,-0.0011,0.0009,-34.0014,-25.559,-7.1126,,adl
2.302981,-0.0203,0.0182,-0.0041,-0.0222,-0.0011,0.0009,-34.0014,-25.559,-7.1126,,adl
2.305946,-0.0203,0.0182,-0.0041,-0.0222,-0.0011,0.0009,-33.9404,-25.498,-7.1126,,adl
2.311247,-0.0203,0.0182,-0.0041,-0.0268,-0.0064,0.0017,-33.9404,-25.498,-7.1126,,adl
2.321355,-0.0113,0.0131,-0.0015,-0.0268,-0.0064,0.0017,-33.9404,-25.498,-7.1126,,adl
2.352243,-0.0113,0.0131,-0.0015,-0.0268,-0.0064,0.0017,-33.9526,-25.5102,-7.1126,,adl
2.364124,-0.0113,0.0131,-0.0015,-0.0268,-0.0064,0.0017,-33.9526,-25.5102,-7.1126,,adl
2.367494,-0.0113,0.0131,-0.0015,-0.0268,-0.0064,0.0017,-33.9526,-25.5102,-7.1126,,adl
2.369926,-0.0113,0.0131,-0.0015,-0.0268,-0.0064,0.0017,-33.9526,-25.5102,-7.1126,,adl
2.38025,-0.0113,0.0131,-0.0015,-0.0237,-0.0003,-0.0009,-33.9526,-25.5102,-7.1126,,adl
2.395833,0.0089,-0.0037,-0.0014,-0.0237,-0.0003,-0.0009,-33.9526,-25.5102,-7.1126,,adl
2.403239,0.0089,-0.0037,-0.0014,-0.0237,-0.0003,-0.0009,-34.0136,-25.5102,-7.0882,,adl
2.43111,0.0089,-0.0037,-0.0014,-0.0237,-0.0003,-0.0009,-34.0136,-25.5102,-7.0882,,adl
2.434493,0.0089,-0.0037,-0.0014,-0.0237,-0.0003,-0.0009,-34.0136,-25.5102,-7.0882,,adl
2.437255,0.0089,-0.0037,-0.0014,-0.0237,-0.0003,-0.0009,-34.0136,-25.5102,-7.0882,,adl
2.440444,0.0089,-0.0037,-0.0014,-0.0237,-0.0003,-0.0009,-34.0136,-25.5102,-7.0882,,adl
2.45281,0.0089,-0.0037,-0.0014,-0.0237,-0.0003,-0.0009,-34.0624,-25.4492,-7.0394,,adl
2.454453,0.0089,-0.0037,-0.0014,-0.0218,-0.0015,-0.0012,-34.0624,-25.4492,-7.0394,,adl
2.459524,0.0151,0.0054,0.0005,-0.0218,-0.0015,-0.0012,-34.0624,-25.4492,-7.0394,,adl
2.497627,0.0151,0.0054,0.0005,-0.0218,-0.0015,-0.0012,-34.0624,-25.4492,-7.0394,,adl
2.501077,0.0151,0.0054,0.0005,-0.0218,-0.0015,-0.0012,-34.0624,-25.4492,-7.0394,,adl
2.50299,0.0151,0.0054,0.0005,-0.0218,-0.0015,-0.0012,-34.0624,-25.4492,-7.0394,,adl
2.504592,0.0151,0.0054,0.0005,-0.0218,-0.0015,-0.0012,-34.0014,-25.4614,-7.0638,,adl
2.520253,0.0151,0.0054,0.0005,-0.0225,-0.0019,0.0004,-34.0014,-25.4614,-7.0638,,adl
2.531289,-0.0177,0.0115,0.0023,-0.0225,-0.0019,0.0004,-34.0014,-25.4614,-7.0638,,adl
2.550555,-0.0177,0.0115,0.0023,-0.0225,-0.0019,0.0004,-34.0014,-25.6078,-7.0394,,adl
2.562148,-0.0177,0.0115,0.0023,-0.0225,-0.0019,0.0004,-34.0014,-25.6078,-7.0394,,adl
2.564446,-0.0177,0.0115,0.0023,-0.0225,-0.0019,0.0004,-34.0014,-25.6078,-7.0394,,adl
2.56648,-0.0177,0.0115,0.0023,-0.0225,-0.0019,0.0004,-34.0014,-25.6078,-7.0394,,adl
2.590609,-0.0177,0.0115,0.0023,-0.0282,-0.0028,0.0003,-34.0014,-25.6078,-7.0394,,adl
2.599275,-0.0042,0.0081,-0.008,-0.0282,-0.0028,0.0003,-34.0014,-25.6078,-7.0394,,adl
2.600949,-0.0042,0.0081,-0.008,-0.0282,-0.0028,0.0003,-33.9648,-25.6932,-6.8686,,adl
2.629349,-0.0042,0.0081,-0.008,-0.0282,-0.0028,0.0003,-33.9648,-25.6932,-6.8686,,adl
2.631672,-0.0042,0.0081,-0.008,-0.0282,-0.0028,0.0003,-33.9648,-25.6932,-6.8686,,adl
2.633425,-0.0042,0.0081,-0.008,-0.0282,-0.0028,0.0003,-33.9648,-25.6932,-6.8686,,adl
2.636102,-0.0042,0.0081,-0.008,-0.0282,-0.0028,0.0003,-33.9648,-25.6932,-6.8686,,adl
2.651052,-0.0042,0.0081,-0.008,-0.0282,-0.0028,0.0003,-33.977,-25.7054,-6.893,,adl
2.660198,-0.0042,0.0081,-0.008,-0.0368,-0.0021,-0.0012,-33.977,-25.7054,-6.893,,adl
2.674809,0.0031,0.0034,0.0067,-0.0368,-0.0021,-0.0012,-33.977,-25.7054,-6.893,,adl
2.695551,0.0031,0.0034,0.0067,-0.0368,-0.0021,-0.0012,-33.977,-25.7054,-6.893,,adl
2.697415,0.0031,0.0034,0.0067,-0.0368,-0.0021,-0.0012,-33.977,-25.7054,-6.893,,adl
2.699209,0.0031,0.0034,0.0067,-0.0368,-0.0021,-0.0012,-33.977,-25.7054,-6.893,,adl
2.701788,0.0031,0.0034,0.0067,-0.0368,-0.0021,-0.0012,-34.0014,-25.7298,-6.9174,,adl
2.730557,0.0031,0.0034,0.0067,-0.0431,0.0017,-0.0011,-34.0014,-25.7298,-6.9174,,adl
2.740701,0.0164,0.0304,0.0043,-0.0431,0.0017,-0.0011,-34.0014,-25.7298,-6.9174,,adl
2.751445,0.0164,0.0304,0.0043,-0.0431,0.0017,-0.0011,-34.0258,-25.7664,-6.9174,,adl
2.763503,0.0164,0.0304,0.0043,-0.0431,0.0017,-0.0011,-34.0258,-25.7664,-6.9174,,adl
2.764576,0.0164,0.0304,0.0043,-0.0431,0.0017,-0.0011,-34.0258,-25.7664,-6.9174,,adl
2.765446,0.0164,0.0304,0.0043,-0.0431,0.0017,-0.0011,-34.0258,-25.7664,-6.9174,,adl
2.799012,0.0164,0.0304,0.0043,-0.0365,-0.0081,0.0015,-34.0258,-25.7664,-6.9174,,adl
2.801821,0.0164,0.0304,0.0043,-0.0365,-0.0081,0.0015,-33.9892,-25.7054,-6.9906,,adl
2.812288,-0.021,-0.0149,-0.0065,-0.0365,-0.0081,0.0015,-33.9892,-25.7054,-6.9906,,adl
2.828979,-0.021,-0.0149,-0.0065,-0.0365,-0.0081,0.0015,-33.9892,-25.7054,-6.9906,,adl
2.830717,-0.021,-0.0149,-0.0065,-0.0365,-0.0081,0.0015,-33.9892,-25.7054,-6.9906,,adl
2.831928,-0.021,-0.0149,-0.0065,-0.0365,-0.0081,0.0015,-33.9892,-25.7054,-6.9906,,adl
2.833104,-0.021,-0.0149,-0.0065,-0.0365,-0.0081,0.0015,-33.9892,-25.7054,-6.9906,,adl
2.850612,-0.021,-0.0149,-0.0065,-0.0365,-0.0081,0.0015,-33.9892,-25.7542,-7.0638,,adl
2.870162,-0.021,-0.0149,-0.0065,-0.0422,-0.0068,0.0009,-33.9892,-25.7542,-7.0638,,adl
2.87972,0.0044,0.0385,0.0002,-0.0422,-0.0068,0.0009,-33.9892,-25.7542,-7.0638,,adl
2.897332,0.0044,0.0385,0.0002,-0.0422,-0.0068,0.0009,-33.9892,-25.7542,-7.0638,,adl
2.899396,0.0044,0.0385,0.0002,-0.0422,-0.0068,0.0009,-33.9892,-25.7542,-7.0638,,adl
2.900869,0.0044,0.0385,0.0002,-0.0422,-0.0068,0.0009,-33.9892,-25.7542,-7.0638,,adl
2.902402,0.0044,0.0385,0.0002,-0.0422,-0.0068,0.0009,-34.0258,-25.7176,-7.1248,,adl
2.939591,0.0044,0.0385,0.0002,-0.0372,-0.0059,-0.0024,-34.0258,-25.7176,-7.1248,,adl
2.95414,0.0044,0.0385,0.0002,-0.0372,-0.0059,-0.0024,-34.1356,-25.6078,-7.259,,adl
2.957796,-0.0075,-0.0446,0.0053,-0.0372,-0.0059,-0.0024,-34.1356,-25.6078,-7.259,,adl
2.964311,-0.0075,-0.0446,0.0053,-0.0372,-0.0059,-0.0024,-34.1356,-25.6078,-7.259,,adl
2.965619,-0.0075,-0.0446,0.0053,-0.0372,-0.0059,-0.0024,-34.1356,-25.6078,-7.259,,adl
2.966685,-0.0075,-0.0446,0.0053,-0.0372,-0.0059,-0.0024,-34.1356,-25.6078,-7.259,,adl
3.000575,-0.0075,-0.0446,0.0053,-0.0372,-0.0059,-0.0024,-34.1234,-25.4614,-7.564,,adl
3.008307,-0.0075,-0.0446,0.0053,-0.0411,-0.0041,-0.0004,-34.1234,-25.4614,-7.564,,adl
3.019331,0.0018,0.0399,-0.0106,-0.0411,-0.0041,-0.0004,-34.1234,-25.4614,-7.564,,adl
3.030569,0.0018,0.0399,-0.0106,-0.0411,-0.0041,-0.0004,-34.1234,-25.4614,-7.564,,adl
3.033046,0.0018,0.0399,-0.0106,-0.0411,-0.0041,-0.0004,-34.1234,-25.4614,-7.564,,adl
3.034762,0.0018,0.0399,-0.0106,-0.0411,-0.0041,-0.0004,-34.1234,-25.4614,-7.564,,adl
3.036366,0.0018,0.0399,-0.0106,-0.0411,-0.0041,-0.0004,-34.1234,-25.4614,-7.564,,adl
3.050213,0.0018,0.0399,-0.0106,-0.0411,-0.0041,-0.0004,-34.1722,-25.4736,-7.6982,,adl
3.079762,0.0018,0.0399,-0.0106,-0.0397,-0.0037,-0.0009,-34.1722,-25.4736,-7.6982,,adl
3.088943,-0.0124,-0.0132,0.0097,-0.0397,-0.0037,-0.0009,-34.1722,-25.4736,-7.6982,,adl
3.095278,-0.0124,-0.0132,0.0097,-0.0397,-0.0037,-0.0009,-34.1722,-25.4736,-7.6982,,adl
3.097955,-0.0124,-0.0132,0.0097,-0.0397,-0.0037,-0.0009,-34.1722,-25.4736,-7.6982,,adl
3.100877,-0.0124,-0.0132,0.0097,-0.0397,-0.0037,-0.0009,-34.1722,-25.4736,-7.6982,,adl
3.102983,-0.0124,-0.0132,0.0097,-0.0397,-0.0037,-0.0009,-34.1722,-25.4492,-7.7348,,adl
3.149062,-0.0124,-0.0132,0.0097,-0.0429,-0.0004,0.0004,-34.1722,-25.4492,-7.7348,,adl
3.152164,-0.0124,-0.0132,0.0097,-0.0429,-0.0004,0.0004,-34.1478,-25.4004,-7.7348,,adl
3.15877,0.0056,0.023,-0.0017,-0.0429,-0.0004,0.0004,-34.1478,-25.4004,-7.7348,,adl
3.167941,0.0056,0.023,-0.0017,-0.0429,-0.0004,0.0004,-34.1478,-25.4004,-7.7348,,adl
3.17067,0.0056,0.023,-0.0017,-0.0429,-0.0004,0.0004,-34.1478,-25.4004,-7.7348,,adl
3.173081,0.0056,0.023,-0.0017,-0.0429,-0.0004,0.0004,-34.1478,-25.4004,-7.7348,,adl
3.201712,0.0056,0.023,-0.0017,-0.0429,-0.0004,0.0004,-34.099,-25.4004,-7.7104,,adl
3.216831,0.0056,0.023,-0.0017,-0.022,0.0007,0.0008,-34.099,-25.4004,-7.7104,,adl
3.229867,0.0155,-0.0033,0.0005,-0.022,0.0007,0.0008,-34.099,-25.4004,-7.7104,,adl
3.230786,0.0155,-0.0033,0.0005,-0.022,0.0007,0.0008,-34.099,-25.4004,-7.7104,,adl
3.23142,0.0155,-0.0033,0.0005,-0.022,0.0007,0.0008,-34.099,-25.4004,-7.7104,,adl
3.232031,0.0155,-0.0033,0.0005,-0.022,0.0007,0.0008,-34.099,-25.4004,-7.7104,,adl
3.232665,0.0155,-0.0033,0.0005,-0.022,0.0007,0.0008,-34.099,-25.4004,-7.7104,,adl
3.25175,0.0155,-0.0033,0.0005,-0.022,0.0007,0.0008,-34.0258,-25.3394,-7.7104,,adl
3.288721,0.0155,-0.0033,0.0005,0.0012,0.0021,0.0003,-34.0258,-25.3394,-7.7104,,adl
3.30104,-0.004,-0.0249,-0.0039,0.0012,0.0021,0.0003,-34.0258,-25.3394,-7.7104,,adl
3.304153,-0.004,-0.0249,-0.0039,0.0012,0.0021,0.0003,-34.0258,-25.3394,-7.7104,,adl
3.306364,-0.004,-0.0249,-0.0039,0.0012,0.0021,0.0003,-34.0258,-25.3394,-7.7104,,adl
3.307385,-0.004,-0.0249,-0.0039,0.0012,0.0021,0.0003,-34.0258,-25.3394,-7.7104,,adl
3.308319,-0.004,-0.0249,-0.0039,0.0012,0.0021,0.0003,-34.0502,-25.3272,-7.7226,,adl
3.352152,-0.004,-0.0249,-0.0039,0.0012,0.0021,0.0003,-34.0136,-25.315,-7.7348,,adl
3.358282,-0.004,-0.0249,-0.0039,-0.0033,-0.0059,-0.0003,-34.0136,-25.315,-7.7348,,adl
3.368996,-0.004,-0.0249,-0.0039,-0.0033,-0.0059,-0.0003,-34.0136,-25.315,-7.7348,,adl
3.370551,-0.004,-0.0249,-0.0039,-0.0033,-0.0059,-0.0003,-34.0136,-25.315,-7.7348,,adl
3.371559,-0.004,-0.0249,-0.0039,-0.0033,-0.0059,-0.0003,-34.0136,-25.315,-7.7348,,adl
3.372616,-0.0068,-0.032,-0.003,-0.0033,-0.0059,-0.0003,-34.0136,-25.315,-7.7348,,adl
3.402162,-0.0068,-0.032,-0.003,-0.0033,-0.0059,-0.0003,-34.0258,-25.3882,-7.6982,,adl
3.428496,-0.0068,-0.032,-0.003,-0.0422,-0.0029,-0.0019,-34.0258,-25.3882,-7.6982,,adl
3.432431,-0.0068,-0.032,-0.003,-0.0422,-0.0029,-0.0019,-34.0258,-25.3882,-7.6982,,adl
3.43538,-0.0068,-0.032,-0.003,-0.0422,-0.0029,-0.0019,-34.0258,-25.3882,-7.6982,,adl
3.438469,-0.0068,-0.032,-0.003,-0.0422,-0.0029,-0.0019,-34.0258,-25.3882,-7.6982,,adl
3.440007,-0.0068,-0.032,-0.003,-0.0422,-0.0029,-0.0019,-34.0258,-25.3882,-7.6982,,adl
3.441748,-0.0131,0.0162,0.0146,-0.0422,-0.0029,-0.0019,-34.0258,-25.3882,-7.6982,,adl
3.451462,-0.0131,0.0162,0.0146,-0.0422,-0.0029,-0.0019,-34.0136,-25.3272,-7.7592,,adl
3.498704,-0.0131,0.0162,0.0146,-0.0683,-0.0041,-0.0004,-34.0136,-25.3272,-7.7592,,adl
3.500363,-0.0131,0.0162,0.0146,-0.0683,-0.0041,-0.0004,-34.0136,-25.3272,-7.7592,,adl
3.501578,-0.0131,0.0162,0.0146,-0.0683,-0.0041,-0.0004,-34.0136,-25.3272,-7.7592,,adl
3.502741,-0.0131,0.0162,0.0146,-0.0683,-0.0041,-0.0004,-34.0136,-25.3272,-7.7592,,adl
3.503762,-0.0131,0.0162,0.0146,-0.0683,-0.0041,-0.0004,-34.0014,-25.3272,-7.7714,,adl
3.507344,0.0188,0.0654,-0.0046,-0.0683,-0.0041,-0.0004,-34.0014,-25.3272,-7.7714,,adl
3.552403,0.0188,0.0654,-0.0046,-0.0683,-0.0041,-0.0004,-34.0258,-25.3394,-7.9422,,adl
3.563564,0.0188,0.0654,-0.0046,-0.0683,-0.0041,-0.0004,-34.0258,-25.3394,-7.9422,,adl
3.567208,0.0188,0.0654,-0.0046,-0.0683,-0.0041,-0.0004,-34.0258,-25.3394,-7.9422,,adl
3.570199,0.0188,0.0654,-0.0046,-0.0683,-0.0041,-0.0004,-34.0258,-25.3394,-7.9422,,adl
3.573039,0.0188,0.0654,-0.0046,-0.0656,0.0032,-0.0041,-34.0258,-25.3394,-7.9422,,adl
3.582408,-0.0025,-0.0647,0.045,-0.0656,0.0032,-0.0041,-34.0258,-25.3394,-7.9422,,adl
3.600269,-0.0025,-0.0647,0.045,-0.0656,0.0032,-0.0041,-34.0746,-25.315,-8.0398,,adl
3.630232,-0.0025,-0.0647,0.045,-0.0656,0.0032,-0.0041,-34.0746,-25.315,-8.0398,,adl
3.63319,-0.0025,-0.0647,0.045,-0.0656,0.0032,-0.0041,-34.0746,-25.315,-8.0398,,adl
3.63495,-0.0025,-0.0647,0.045,-0.0656,0.0032,-0.0041,-34.0746,-25.315,-8.0398,,adl
3.6373,-0.0025,-0.0647,0.045,-0.0656,0.0032,-0.0041,-34.0746,-25.315,-8.0398,,adl
3.639191,-0.0025,-0.0647,0.045,-0.0494,-0.0072,0.0003,-34.0746,-25.315,-8.0398,,adl
3.645736,0.0048,0.1142,-0.0514,-0.0494,-0.0072,0.0003,-34.0746,-25.315,-8.0398,,adl
3.65058,0.0048,0.1142,-0.0514,-0.0494,-0.0072,0.0003,-34.1112,-25.3272,-8.0642,,adl
3.704947,0.0048,0.1142,-0.0514,-0.0494,-0.0072,0.0003,-34.1112,-25.2906,-8.0886,,adl
3.709444,0.0048,0.1142,-0.0514,-0.0237,-0.0069,0.0,-34.1112,-25.2906,-8.0886,,adl
3.711673,0.0048,0.1142,-0.0514,-0.0237,-0.0069,0.0,-34.1112,-25.2906,-8.0886,,adl
3.71374,0.0048,0.1142,-0.0514,-0.0237,-0.0069,0.0,-34.1112,-25.2906,-8.0886,,adl
3.715561,0.0048,0.1142,-0.0514,-0.0237,-0.0069,0.0,-34.1112,-25.2906,-8.0886,,adl
3.716899,0.0048,0.1142,-0.0514,-0.0237,-0.0069,0.0,-34.1112,-25.2906,-8.0886,,adl
3.718326,-0.0119,-0.1033,-0.0027,-0.0237,-0.0069,0.0,-34.1112,-25.2906,-8.0886,,adl
3.754987,-0.0119,-0.1033,-0.0027,-0.0237,-0.0069,0.0,-34.0502,-25.254,-8.1374,,adl
3.763278,-0.0119,-0.1033,-0.0027,-0.0237,-0.0069,0.0,-34.0502,-25.254,-8.1374,,adl
3.763815,-0.0119,-0.1033,-0.0027,-0.0237,-0.0069,0.0,-34.0502,-25.254,-8.1374,,adl
3.774153,-0.0119,-0.1033,-0.0027,-0.0308,-0.0029,-0.0021,-34.0502,-25.254,-8.1374,,adl
3.784485,-0.0131,0.0171,0.0119,-0.0308,-0.0029,-0.0021,-34.0502,-25.254,-8.1374,,adl
3.816335,-0.0131,0.0171,0.0119,-0.0308,-0.0029,-0.0021,-34.038,-25.254,-8.0276,,adl
3.829663,-0.0131,0.0171,0.0119,-0.0308,-0.0029,-0.0021,-34.038,-25.254,-8.0276,,adl
3.830968,-0.0131,0.0171,0.0119,-0.0308,-0.0029,-0.0021,-34.038,-25.254,-8.0276,,adl
3.831938,-0.0131,0.0171,0.0119,-0.0308,-0.0029,-0.0021,-34.038,-25.254,-8.0276,,adl
3.832845,-0.0131,0.0171,0.0119,-0.0308,-0.0029,-0.0021,-34.038,-25.254,-8.0276,,adl
3.844429,-0.0131,0.0171,0.0119,-0.0537,0.0068,-0.0065,-34.038,-25.254,-8.0276,,adl
3.854605,0.0165,0.0308,-0.0112,-0.0537,0.0068,-0.0065,-34.038,-25.254,-8.0276,,adl
3.877717,0.0165,0.0308,-0.0112,-0.0537,0.0068,-0.0065,-33.977,-25.2418,-8.0642,,adl
3.89666,0.0165,0.0308,-0.0112,-0.0537,0.0068,-0.0065,-33.977,-25.2418,-8.0642,,adl
3.898139,0.0165,0.0308,-0.0112,-0.0537,0.0068,-0.0065,-33.977,-25.2418,-8.0642,,adl
3.898888,0.0165,0.0308,-0.0112,-0.0537,0.0068,-0.0065,-33.977,-25.2418,-8.0642,,adl
3.914885,0.0165,0.0308,-0.0112,-0.0719,-0.0057,-0.0028,-33.977,-25.2418,-8.0642,,adl
3.925554,-0.027,0.0115,0.028,-0.0719,-0.0057,-0.0028,-33.977,-25.2418,-8.0642,,adl
3.935479,-0.027,0.0115,0.028,-0.0719,-0.0057,-0.0028,-33.916,-25.2418,-8.0886,,adl
3.965144,-0.027,0.0115,0.028,-0.0719,-0.0057,-0.0028,-33.916,-25.2418,-8.0886,,adl
3.966709,-0.027,0.0115,0.028,-0.0719,-0.0057,-0.0028,-33.916,-25.2418,-8.0886,,adl
3.967593,-0.027,0.0115,0.028,-0.0719,-0.0057,-0.0028,-33.916,-25.2418,-8.0886,,adl
3.987345,-0.027,0.0115,0.028,-0.0202,0.0017,0.0028,-33.916,-25.2418,-8.0886,,adl
3.996974,-0.027,0.0115,0.028,-0.0202,0.0017,0.0028,-33.9648,-25.1808,-8.0886,,adl
3.998106,0.0372,0.0235,-0.0104,-0.0202,0.0017,0.0028,-33.9648,-25.1808,-8.0886,,adl
4.030229,0.0372,0.0235,-0.0104,-0.0202,0.0017,0.0028,-33.9648,-25.1808,-8.0886,,adl
4.031337,0.0372,0.0235,-0.0104,-0.0202,0.0017,0.0028,-33.9648,-25.1808,-8.0886,,adl
4.031952,0.0372,0.0235,-0.0104,-0.0202,0.0017,0.0028,-33.9648,-25.1808,-8.0886,,adl
4.032571,0.0372,0.0235,-0.0104,-0.0202,0.0017,0.0028,-33.9648,-25.1808,-8.0886,,adl
4.057172,0.0372,0.0235,-0.0104,-0.0202,0.0017,0.0028,-33.9282,-25.1808,-8.1374,,adl
4.058467,0.0372,0.0235,-0.0104,0.0261,0.0132,-0.0012,-33.9282,-25.1808,-8.1374,,adl
4.064877,-0.0117,-0.085,-0.0161,0.0261,0.0132,-0.0012,-33.9282,-25.1808,-8.1374,,adl
4.09847,-0.0117,-0.085,-0.0161,0.0261,0.0132,-0.0012,-33.9282,-25.1808,-8.1374,,adl
4.099716,-0.0117,-0.085,-0.0161,0.0261,0.0132,-0.0012,-33.9282,-25.1808,-8.1374,,adl
4.100359,-0.0117,-0.085,-0.0161,0.0261,0.0132,-0.0012,-33.9282,-25.1808,-8.1374,,adl
4.115218,-0.0117,-0.085,-0.0161,0.0261,0.0132,-0.0012,-33.916,-25.2052,-8.1862,,adl
4.124729,-0.0117,-0.085,-0.0161,0.0356,0.0103,0.0004,-33.916,-25.2052,-8.1862,,adl
4.134729,0.0109,0.0046,-0.0126,0.0356,0.0103,0.0004,-33.916,-25.2052,-8.1862,,adl
4.165059,0.0109,0.0046,-0.0126,0.0356,0.0103,0.0004,-33.916,-25.2052,-8.1862,,adl
4.166098,0.0109,0.0046,-0.0126,0.0356,0.0103,0.0004,-33.916,-25.2052,-8.1862,,adl
4.16651,0.0109,0.0046,-0.0126,0.0356,0.0103,0.0004,-33.916,-25.2052,-8.1862,,adl
4.167132,0.0109,0.0046,-0.0126,0.0356,0.0103,0.0004,-33.916,-25.2052,-8.1862,,adl
4.1758,0.0109,0.0046,-0.0126,0.0356,0.0103,0.0004,-33.8672,-25.2784,-8.1496,,adl
4.196402,0.0109,0.0046,-0.0126,0.0298,0.0069,-0.002,-33.8672,-25.2784,-8.1496,,adl
4.206443,-0.0073,-0.0378,0.0169,0.0298,0.0069,-0.002,-33.8672,-25.2784,-8.1496,,adl
4.231806,-0.0073,-0.0378,0.0169,0.0298,0.0069,-0.002,-33.8672,-25.2784,-8.1496,,adl
4.233077,-0.0073,-0.0378,0.0169,0.0298,0.0069,-0.002,-33.8672,-25.2784,-8.1496,,adl
4.233788,-0.0073,-0.0378,0.0169,0.0298,0.0069,-0.002,-33.8672,-25.2784,-8.1496,,adl
4.234429,-0.0073,-0.0378,0.0169,0.0298,0.0069,-0.002,-33.8672,-25.2662,-8.1618,,adl
4.266412,-0.0073,-0.0378,0.0169,0.0214,0.0197,0.0045,-33.8672,-25.2662,-8.1618,,adl
4.275977,0.0039,0.0176,0.0006,0.0214,0.0197,0.0045,-33.8672,-25.2662,-8.1618,,adl
4.295871,0.0039,0.0176,0.0006,0.0214,0.0197,0.0045,-33.9038,-25.193,-8.3326,,adl
4.296978,0.0039,0.0176,0.0006,0.0214,0.0197,0.0045,-33.9038,-25.193,-8.3326,,adl
4.297435,0.0039,0.0176,0.0006,0.0214,0.0197,0.0045,-33.9038,-25.193,-8.3326,,adl
4.29796,0.0039,0.0176,0.0006,0.0214,0.0197,0.0045,-33.9038,-25.193,-8.3326,,adl
4.335951,0.0039,0.0176,0.0006,0.0292,0.0044,-0.0033,-33.9038,-25.193,-8.3326,,adl
4.343937,0.0271,-0.1018,0.039,0.0292,0.0044,-0.0033,-33.9038,-25.193,-8.3326,,adl
4.356012,0.0271,-0.1018,0.039,0.0292,0.0044,-0.0033,-33.9038,-25.1564,-8.3692,,adl
4.364035,0.0271,-0.1018,0.039,0.0292,0.0044,-0.0033,-33.9038,-25.1564,-8.3692,,adl
4.364963,0.0271,-0.1018,0.039,0.0292,0.0044,-0.0033,-33.9038,-25.1564,-8.3692,,adl
4.365675,0.0271,-0.1018,0.039,0.0292,0.0044,-0.0033,-33.9038,-25.1564,-8.3692,,adl
4.366298,0.0271,-0.1018,0.039,0.0292,0.0044,-0.0033,-33.9038,-25.1564,-8.3692,,adl
4.406696,0.0271,-0.1018,0.039,0.0722,0.0152,0.006,-33.9038,-25.1564,-8.3692,,adl
4.414028,0.0271,-0.1018,0.039,0.0722,0.0152,0.006,-33.9282,-25.1442,-8.4302,,adl
4.414867,-0.0021,0.1076,-0.0422,0.0722,0.0152,0.006,-33.9282,-25.1442,-8.4302,,adl
4.43094,-0.0021,0.1076,-0.0422,0.0722,0.0152,0.006,-33.9282,-25.1442,-8.4302,,adl
4.431846,-0.0021,0.1076,-0.0422,0.0722,0.0152,0.006,-33.9282,-25.1442,-8.4302,,adl
4.432283,-0.0021,0.1076,-0.0422,0.0722,0.0152,0.006,-33.9282,-25.1442,-8.4302,,adl
4.473912,-0.0021,0.1076,-0.0422,0.092,-0.0069,-0.0001,-33.9282,-25.1442,-8.4302,,adl
4.4755,-0.0021,0.1076,-0.0422,0.092,-0.0069,-0.0001,-33.855,-25.1442,-8.418,,adl
4.485149,-0.0145,-0.1609,-0.0194,0.092,-0.0069,-0.0001,-33.855,-25.1442,-8.418,,adl
4.496375,-0.0145,-0.1609,-0.0194,0.092,-0.0069,-0.0001,-33.855,-25.1442,-8.418,,adl
4.497389,-0.0145,-0.1609,-0.0194,0.092,-0.0069,-0.0001,-33.855,-25.1442,-8.418,,adl
4.498285,-0.0145,-0.1609,-0.0194,0.092,-0.0069,-0.0001,-33.855,-25.1442,-8.418,,adl
4.536512,-0.0145,-0.1609,-0.0194,0.092,-0.0069,-0.0001,-33.8306,-25.1686,-8.357,,adl
4.543011,-0.0145,-0.1609,-0.0194,0.0635,-0.004,0.0017,-33.8306,-25.1686,-8.357,,adl
4.5599,-0.0226,0.0072,0.037,0.0635,-0.004,0.0017,-33.8306,-25.1686,-8.357,,adl
4.563995,-0.0226,0.0072,0.037,0.0635,-0.004,0.0017,-33.8306,-25.1686,-8.357,,adl
4.566202,-0.0226,0.0072,0.037,0.0635,-0.004,0.0017,-33.8306,-25.1686,-8.357,,adl
4.56744,-0.0226,0.0072,0.037,0.0635,-0.004,0.0017,-33.8306,-25.1686,-8.357,,adl
4.568551,-0.0226,0.0072,0.037,0.0635,-0.004,0.0017,-33.8306,-25.1686,-8.357,,adl
4.594046,-0.0226,0.0072,0.037,0.0635,-0.004,0.0017,-33.8184,-25.1442,-8.3326,,adl
4.614161,-0.0226,0.0072,0.037,0.0475,0.0399,-0.0128,-33.8184,-25.1442,-8.3326,,adl
4.626592,0.0282,0.0007,0.0084,0.0475,0.0399,-0.0128,-33.8184,-25.1442,-8.3326,,adl
4.629072,0.0282,0.0007,0.0084,0.0475,0.0399,-0.0128,-33.8184,-25.1442,-8.3326,,adl
4.631412,0.0282,0.0007,0.0084,0.0475,0.0399,-0.0128,-33.8184,-25.1442,-8.3326,,adl
4.633629,0.0282,0.0007,0.0084,0.0475,0.0399,-0.0128,-33.8184,-25.1442,-8.3326,,adl
4.652101,0.0282,0.0007,0.0084,0.0475,0.0399,-0.0128,-33.8306,-25.1198,-8.3448,,adl
4.683754,0.0282,0.0007,0.0084,0.0409,-0.0146,0.0072,-33.8306,-25.1198,-8.3448,,adl
4.69431,-0.0054,-0.0099,-0.0182,0.0409,-0.0146,0.0072,-33.8306,-25.1198,-8.3448,,adl
4.695585,-0.0054,-0.0099,-0.0182,0.0409,-0.0146,0.0072,-33.8306,-25.1198,-8.3448,,adl
4.697445,-0.0054,-0.0099,-0.0182,0.0409,-0.0146,0.0072,-33.8306,-25.1198,-8.3448,,adl
4.698365,-0.0054,-0.0099,-0.0182,0.0409,-0.0146,0.0072,-33.8306,-25.1198,-8.3448,,adl
4.712061,-0.0054,-0.0099,-0.0182,0.0409,-0.0146,0.0072,-33.8428,-25.1442,-8.3082,,adl
4.754034,-0.0054,-0.0099,-0.0182,0.0648,0.0121,0.0023,-33.8428,-25.1442,-8.3082,,adl
4.763601,-0.0045,0.0524,0.0231,0.0648,0.0121,0.0023,-33.8428,-25.1442,-8.3082,,adl
4.76544,-0.0045,0.0524,0.0231,0.0648,0.0121,0.0023,-33.8428,-25.1442,-8.3082,,adl
4.767356,-0.0045,0.0524,0.0231,0.0648,0.0121,0.0023,-33.8428,-25.1442,-8.3082,,adl
4.769034,-0.0045,0.0524,0.0231,0.0648,0.0121,0.0023,-33.8428,-25.1442,-8.3082,,adl
4.771018,-0.0045,0.0524,0.0231,0.0648,0.0121,0.0023,-33.8428,-25.1442,-8.3082,,adl
4.779146,-0.0045,0.0524,0.0231,0.0648,0.0121,0.0023,-33.855,-25.1564,-8.2838,,adl
4.823583,-0.0045,0.0524,0.0231,0.0586,0.0016,0.0015,-33.855,-25.1564,-8.2838,,adl
4.828452,-0.0045,0.0524,0.0231,0.0586,0.0016,0.0015,-33.855,-25.1564,-8.2838,,adl
4.829918,-0.0045,0.0524,0.0231,0.0586,0.0016,0.0015,-33.855,-25.1564,-8.2838,,adl
4.831673,-0.0045,0.0524,0.0231,0.0586,0.0016,0.0015,-33.855,-25.1564,-8.2838,,adl
4.833356,-0.0045,0.0524,0.0231,0.0586,0.0016,0.0015,-33.8306,-25.2052,-8.1984,,adl
4.835492,0.0105,-0.1337,-0.0065,0.0586,0.0016,0.0015,-33.8306,-25.2052,-8.1984,,adl
4.894174,0.0105,-0.1337,-0.0065,0.0586,0.0016,0.0015,-33.855,-25.2418,-8.1252,,adl
4.896635,0.0105,-0.1337,-0.0065,0.0533,-0.0013,0.0013,-33.855,-25.2418,-8.1252,,adl
4.89938,0.0105,-0.1337,-0.0065,0.0533,-0.0013,0.0013,-33.855,-25.2418,-8.1252,,adl
4.901418,0.0105,-0.1337,-0.0065,0.0533,-0.0013,0.0013,-33.855,-25.2418,-8.1252,,adl
4.903657,0.0105,-0.1337,-0.0065,0.0533,-0.0013,0.0013,-33.855,-25.2418,-8.1252,,adl
4.905951,0.0215,0.091,-0.0097,0.0533,-0.0013,0.0013,-33.855,-25.2418,-8.1252,,adl
4.963834,0.0215,0.091,-0.0097,0.0533,-0.0013,0.0013,-33.8794,-25.2784,-8.0642,,adl
4.967161,0.0215,0.091,-0.0097,0.0574,-0.0081,0.0033,-33.8794,-25.2784,-8.0642,,adl
4.968926,0.0215,0.091,-0.0097,0.0574,-0.0081,0.0033,-33.8794,-25.2784,-8.0642,,adl
4.970734,0.0215,0.091,-0.0097,0.0574,-0.0081,0.0033,-33.8794,-25.2784,-8.0642,,adl
4.972558,0.0215,0.091,-0.0097,0.0574,-0.0081,0.0033,-33.8794,-25.2784,-8.0642,,adl
4.974181,0.0215,0.091,-0.0097,0.0574,-0.0081,0.0033,-33.8794,-25.2784,-8.0642,,adl
4.975326,-0.0414,-0.0662,0.0192,0.0574,-0.0081,0.0033,-33.8794,-25.2784,-8.0642,,adl
5.022872,-0.0414,-0.0662,0.0192,0.0574,-0.0081,0.0033,-33.9404,-25.2906,-7.9788,,adl
5.029823,-0.0414,-0.0662,0.0192,0.0574,-0.0081,0.0033,-33.9404,-25.2906,-7.9788,,adl
5.030563,-0.0414,-0.0662,0.0192,0.0574,-0.0081,0.0033,-33.9404,-25.2906,-7.9788,,adl
5.031172,-0.0414,-0.0662,0.0192,0.0574,-0.0081,0.0033,-33.9404,-25.2906,-7.9788,,adl
5.031785,-0.0414,-0.0662,0.0192,0.0345,-0.0069,0.0008,-33.9404,-25.2906,-7.9788,,adl
5.041806,-0.0116,0.0258,-0.0057,0.0345,-0.0069,0.0008,-33.9404,-25.2906,-7.9788,,adl
5.082599,-0.0116,0.0258,-0.0057,0.0345,-0.0069,0.0008,-33.9526,-25.3394,-7.9178,,adl
5.096631,-0.0116,0.0258,-0.0057,0.0345,-0.0069,0.0008,-33.9526,-25.3394,-7.9178,,adl
5.099376,-0.0116,0.0258,-0.0057,0.0345,-0.0069,0.0008,-33.9526,-25.3394,-7.9178,,adl
5.101615,-0.0116,0.0258,-0.0057,0.0345,-0.0069,0.0008,-33.9526,-25.3394,-7.9178,,adl
5.1037,-0.0116,0.0258,-0.0057,0.0409,-0.0017,0.0019,-33.9526,-25.3394,-7.9178,,adl
5.111117,0.0213,-0.0079,-0.0027,0.0409,-0.0017,0.0019,-33.9526,-25.3394,-7.9178,,adl
5.140744,0.0213,-0.0079,-0.0027,0.0409,-0.0017,0.0019,-33.9526,-25.376,-7.8812,,adl
5.163856,0.0213,-0.0079,-0.0027,0.0409,-0.0017,0.0019,-33.9526,-25.376,-7.8812,,adl
5.166802,0.0213,-0.0079,-0.0027,0.0409,-0.0017,0.0019,-33.9526,-25.376,-7.8812,,adl
5.168837,0.0213,-0.0079,-0.0027,0.0409,-0.0017,0.0019,-33.9526,-25.376,-7.8812,,adl
5.170946,0.0213,-0.0079,-0.0027,0.0409,-0.0017,0.0019,-33.9526,-25.376,-7.8812,,adl
5.173056,0.0213,-0.0079,-0.0027,0.0213,-0.0096,0.0036,-33.9526,-25.376,-7.8812,,adl
5.182074,0.0074,0.0082,0.0085,0.0213,-0.0096,0.0036,-33.9526,-25.376,-7.8812,,adl
5.202123,0.0074,0.0082,0.0085,0.0213,-0.0096,0.0036,-33.9648,-25.4248,-7.7958,,adl
5.230991,0.0074,0.0082,0.0085,0.0213,-0.0096,0.0036,-33.9648,-25.4248,-7.7958,,adl
5.234758,0.0074,0.0082,0.0085,0.0213,-0.0096,0.0036,-33.9648,-25.4248,-7.7958,,adl
5.236798,0.0074,0.0082,0.0085,0.0213,-0.0096,0.0036,-33.9648,-25.4248,-7.7958,,adl
5.241563,0.0074,0.0082,0.0085,0.0117,-0.0061,0.0036,-33.9648,-25.4248,-7.7958,,adl
5.251203,-0.0178,0.0191,-0.0155,0.0117,-0.0061,0.0036,-33.9648,-25.4248,-7.7958,,adl
5.262224,-0.0178,0.0191,-0.0155,0.0117,-0.0061,0.0036,-33.977,-25.437,-7.6738,,adl
5.2965,-0.0178,0.0191,-0.0155,0.0117,-0.0061,0.0036,-33.977,-25.437,-7.6738,,adl
5.298741,-0.0178,0.0191,-0.0155,0.0117,-0.0061,0.0036,-33.977,-25.437,-7.6738,,adl
5.300934,-0.0178,0.0191,-0.0155,0.0117,-0.0061,0.0036,-33.977,-25.437,-7.6738,,adl
5.311204,-0.0178,0.0191,-0.0155,0.0256,0.0045,0.002,-33.977,-25.437,-7.6738,,adl
5.322186,-0.0072,-0.0043,0.0276,0.0256,0.0045,0.002,-33.977,-25.437,-7.6738,,adl
5.32405,-0.0072,-0.0043,0.0276,0.0256,0.0045,0.002,-34.038,-25.498,-7.5762,,adl
5.363669,-0.0072,-0.0043,0.0276,0.0256,0.0045,0.002,-34.038,-25.498,-7.5762,,adl
5.366262,-0.0072,-0.0043,0.0276,0.0256,0.0045,0.002,-34.038,-25.498,-7.5762,,adl
5.367969,-0.0072,-0.0043,0.0276,0.0256,0.0045,0.002,-34.038,-25.498,-7.5762,,adl
5.369895,-0.0072,-0.0043,0.0276,0.0256,0.0045,0.002,-34.038,-25.498,-7.5762,,adl
5.381195,-0.0072,-0.0043,0.0276,0.0256,0.0045,0.002,-34.0868,-25.5468,-7.503,,adl
5.383784,-0.0072,-0.0043,0.0276,0.0293,-0.0048,-0.0013,-34.0868,-25.5468,-7.503,,adl
5.396216,0.0127,-0.0054,-0.0368,0.0293,-0.0048,-0.0013,-34.0868,-25.5468,-7.503,,adl
5.430492,0.0127,-0.0054,-0.0368,0.0293,-0.0048,-0.0013,-34.0868,-25.5468,-7.503,,adl
5.434147,0.0127,-0.0054,-0.0368,0.0293,-0.0048,-0.0013,-34.0868,-25.5468,-7.503,,adl
5.436662,0.0127,-0.0054,-0.0368,0.0293,-0.0048,-0.0013,-34.0868,-25.5468,-7.503,,adl
5.441725,0.0127,-0.0054,-0.0368,0.0293,-0.0048,-0.0013,-34.099,-25.5346,-7.3932,,adl
5.448782,0.0127,-0.0054,-0.0368,0.0161,0.0013,0.0017,-34.099,-25.5346,-7.3932,,adl
5.460334,-0.0014,0.0167,0.0003,0.0161,0.0013,0.0017,-34.099,-25.5346,-7.3932,,adl
5.497145,-0.0014,0.0167,0.0003,0.0161,0.0013,0.0017,-34.099,-25.5346,-7.3932,,adl
5.499575,-0.0014,0.0167,0.0003,0.0161,0.0013,0.0017,-34.099,-25.5346,-7.3932,,adl
5.501302,-0.0014,0.0167,0.0003,0.0161,0.0013,0.0017,-34.099,-25.5346,-7.3932,,adl
5.503414,-0.0014,0.0167,0.0003,0.0161,0.0013,0.0017,-34.0624,-25.5712,-7.3444,,adl
5.520737,-0.0014,0.0167,0.0003,0.0134,-0.0009,0.0012,-34.0624,-25.5712,-7.3444,,adl
5.531364,0.0002,0.001,-0.0033,0.0134,-0.0009,0.0012,-34.0624,-25.5712,-7.3444,,adl
5.560247,0.0002,0.001,-0.0033,0.0134,-0.0009,0.0012,-34.038,-25.5956,-7.1858,,adl
5.563936,0.0002,0.001,-0.0033,0.0134,-0.0009,0.0012,-34.038,-25.5956,-7.1858,,adl
5.566346,0.0002,0.001,-0.0033,0.0134,-0.0009,0.0012,-34.038,-25.5956,-7.1858,,adl
5.568533,0.0002,0.001,-0.0033,0.0134,-0.0009,0.0012,-34.038,-25.5956,-7.1858,,adl
5.570782,0.0002,0.001,-0.0033,0.0134,-0.0009,0.0012,-34.038,-25.5956,-7.1858,,adl
5.590232,0.0002,0.001,-0.0033,0.0079,0.0001,-0.0011,-34.038,-25.5956,-7.1858,,adl
5.600291,0.0013,0.0096,-0.0019,0.0079,0.0001,-0.0011,-34.038,-25.5956,-7.1858,,adl
5.620353,0.0013,0.0096,-0.0019,0.0079,0.0001,-0.0011,-34.0258,-25.62,-7.0516,,adl
5.631242,0.0013,0.0096,-0.0019,0.0079,0.0001,-0.0011,-34.0258,-25.62,-7.0516,,adl
5.632469,0.0013,0.0096,-0.0019,0.0079,0.0001,-0.0011,-34.0258,-25.62,-7.0516,,adl
5.633222,0.0013,0.0096,-0.0019,0.0079,0.0001,-0.0011,-34.0258,-25.62,-7.0516,,adl
5.659948,0.0013,0.0096,-0.0019,0.0101,0.0048,-0.0011,-34.0258,-25.62,-7.0516,,adl
5.67163,0.0029,-0.0211,0.0067,0.0101,0.0048,-0.0011,-34.0258,-25.62,-7.0516,,adl
5.67959,0.0029,-0.0211,0.0067,0.0101,0.0048,-0.0011,-34.0258,-25.6444,-6.9784,,adl
5.697181,0.0029,-0.0211,0.0067,0.0101,0.0048,-0.0011,-34.0258,-25.6444,-6.9784,,adl
5.700372,0.0029,-0.0211,0.0067,0.0101,0.0048,-0.0011,-34.0258,-25.6444,-6.9784,,adl
5.702778,0.0029,-0.0211,0.0067,0.0101,0.0048,-0.0011,-34.0258,-25.6444,-6.9784,,adl
5.730126,0.0029,-0.0211,0.0067,-0.0021,-0.004,0.0003,-34.0258,-25.6444,-6.9784,,adl
5.743132,0.0029,-0.0211,0.0067,-0.0021,-0.004,0.0003,-34.0136,-25.6444,-6.9784,,adl
5.746153,-0.007,0.0665,-0.0195,-0.0021,-0.004,0.0003,-34.0136,-25.6444,-6.9784,,adl
5.76476,-0.007,0.0665,-0.0195,-0.0021,-0.004,0.0003,-34.0136,-25.6444,-6.9784,,adl
5.766337,-0.007,0.0665,-0.0195,-0.0021,-0.004,0.0003,-34.0136,-25.6444,-6.9784,,adl
5.767206,-0.007,0.0665,-0.0195,-0.0021,-0.004,0.0003,-34.0136,-25.6444,-6.9784,,adl
5.768079,-0.007,0.0665,-0.0195,-0.0021,-0.004,0.0003,-34.0136,-25.6444,-6.9784,,adl
5.795302,-0.007,0.0665,-0.0195,-0.0021,-0.004,0.0003,-34.0136,-25.62,-6.9662,,adl
5.798827,-0.007,0.0665,-0.0195,0.0005,0.0045,0.0011,-34.0136,-25.62,-6.9662,,adl
5.800342,-0.007,0.0665,-0.0195,0.0005,0.0045,0.0011,-33.9892,-25.5834,-6.9296,,adl
5.809437,-0.0055,-0.0378,0.0076,0.0005,0.0045,0.0011,-33.9892,-25.5834,-6.9296,,adl
5.829924,-0.0055,-0.0378,0.0076,0.0005,0.0045,0.0011,-33.9892,-25.5834,-6.9296,,adl
5.83237,-0.0055,-0.0378,0.0076,0.0005,0.0045,0.0011,-33.9892,-25.5834,-6.9296,,adl
5.834249,-0.0055,-0.0378,0.0076,0.0005,0.0045,0.0011,-33.9892,-25.5834,-6.9296,,adl
5.852098,-0.0055,-0.0378,0.0076,0.0005,0.0045,0.0011,-33.9526,-25.62,-6.9052,,adl
5.869233,-0.0055,-0.0378,0.0076,-0.0048,-0.0004,-0.0009,-33.9526,-25.62,-6.9052,,adl
5.879731,0.0148,0.0371,-0.0001,-0.0048,-0.0004,-0.0009,-33.9526,-25.62,-6.9052,,adl
5.896743,0.0148,0.0371,-0.0001,-0.0048,-0.0004,-0.0009,-33.9526,-25.62,-6.9052,,adl
5.898739,0.0148,0.0371,-0.0001,-0.0048,-0.0004,-0.0009,-33.9526,-25.62,-6.9052,,adl
5.899927,0.0148,0.0371,-0.0001,-0.0048,-0.0004,-0.0009,-33.9526,-25.62,-6.9052,,adl
5.901613,0.0148,0.0371,-0.0001,-0.0048,-0.0004,-0.0009,-33.9282,-25.62,-6.893,,adl
5.939295,0.0148,0.0371,-0.0001,0.0051,0.0021,-0.0004,-33.9282,-25.62,-6.893,,adl
5.955011,0.0015,-0.0157,-0.0076,0.0051,0.0021,-0.0004,-33.9282,-25.62,-6.893,,adl
5.957169,0.0015,-0.0157,-0.0076,0.0051,0.0021,-0.0004,-33.9282,-25.559,-7.0638,,adl
5.962081,0.0015,-0.0157,-0.0076,0.0051,0.0021,-0.0004,-33.9282,-25.559,-7.0638,,adl
5.963167,0.0015,-0.0157,-0.0076,0.0051,0.0021,-0.0004,-33.9282,-25.559,-7.0638,,adl
5.96393,0.0015,-0.0157,-0.0076,0.0051,0.0021,-0.0004,-33.9282,-25.559,-7.0638,,adl
5.964582,0.0015,-0.0157,-0.0076,0.0051,0.0021,-0.0004,-33.9282,-25.559,-7.0638,,adl
6.002715,0.0015,-0.0157,-0.0076,0.0051,0.0021,-0.0004,-34.0014,-25.5468,-7.137,,adl
6.008812,0.0015,-0.0157,-0.0076,0.0023,0.0003,0.0007,-34.0014,-25.5468,-7.137,,adl
6.021922,-0.0163,-0.0029,0.005,0.0023,0.0003,0.0007,-34.0014,-25.5468,-7.137,,adl
6.030619,-0.0163,-0.0029,0.005,0.0023,0.0003,0.0007,-34.0014,-25.5468,-7.137,,adl
6.032653,-0.0163,-0.0029,0.005,0.0023,0.0003,0.0007,-34.0014,-25.5468,-7.137,,adl
6.035006,-0.0163,-0.0029,0.005,0.0023,0.0003,0.0007,-34.0014,-25.5468,-7.137,,adl
6.053243,-0.0163,-0.0029,0.005,0.0023,0.0003,0.0007,-34.0136,-25.5224,-7.198,,adl
6.07931,-0.0163,-0.0029,0.005,0.0015,-0.0016,0.0004,-34.0136,-25.5224,-7.198,,adl
6.088761,0.0103,0.0265,-0.0071,0.0015,-0.0016,0.0004,-34.0136,-25.5224,-7.198,,adl
6.097131,0.0103,0.0265,-0.0071,0.0015,-0.0016,0.0004,-34.0136,-25.5224,-7.198,,adl
6.099136,0.0103,0.0265,-0.0071,0.0015,-0.0016,0.0004,-34.0136,-25.5224,-7.198,,adl
6.10073,0.0103,0.0265,-0.0071,0.0015,-0.0016,0.0004,-34.0136,-25.5224,-7.198,,adl
6.101908,0.0103,0.0265,-0.0071,0.0015,-0.0016,0.0004,-34.0136,-25.5224,-7.198,,adl
6.103024,0.0103,0.0265,-0.0071,0.0015,-0.0016,0.0004,-33.9892,-25.5224,-7.137,,adl
6.148813,0.0103,0.0265,-0.0071,-0.0037,0.0024,-0.0001,-33.9892,-25.5224,-7.137,,adl
6.153064,0.0103,0.0265,-0.0071,-0.0037,0.0024,-0.0001,-33.9526,-25.5102,-7.137,,adl
6.158592,-0.0056,-0.0128,0.0031,-0.0037,0.0024,-0.0001,-33.9526,-25.5102,-7.137,,adl
6.168662,-0.0056,-0.0128,0.0031,-0.0037,0.0024,-0.0001,-33.9526,-25.5102,-7.137,,adl
6.171481,-0.0056,-0.0128,0.0031,-0.0037,0.0024,-0.0001,-33.9526,-25.5102,-7.137,,adl
6.174012,-0.0056,-0.0128,0.0031,-0.0037,0.0024,-0.0001,-33.9526,-25.5102,-7.137,,adl
6.202413,-0.0056,-0.0128,0.0031,-0.0037,0.0024,-0.0001,-33.9038,-25.5468,-7.1614,,adl
6.218211,-0.0056,-0.0128,0.0031,0.0039,0.0064,-0.0015,-33.9038,-25.5468,-7.1614,,adl
6.232706,0.0166,0.0224,0.001,0.0039,0.0064,-0.0015,-33.9038,-25.5468,-7.1614,,adl
6.235205,0.0166,0.0224,0.001,0.0039,0.0064,-0.0015,-33.9038,-25.5468,-7.1614,,adl
6.23767,0.0166,0.0224,0.001,0.0039,0.0064,-0.0015,-33.9038,-25.5468,-7.1614,,adl
6.240567,0.0166,0.0224,0.001,0.0039,0.0064,-0.0015,-33.9038,-25.5468,-7.1614,,adl
6.25179,0.0166,0.0224,0.001,0.0039,0.0064,-0.0015,-33.9404,-25.5346,-7.2224,,adl
6.287981,0.0166,0.0224,0.001,0.0063,-0.0039,0.0003,-33.9404,-25.5346,-7.2224,,adl
6.300151,-0.0221,-0.0219,-0.009,0.0063,-0.0039,0.0003,-33.9404,-25.5346,-7.2224,,adl
6.302806,-0.0221,-0.0219,-0.009,0.0063,-0.0039,0.0003,-33.9404,-25.5346,-7.2224,,adl
6.305224,-0.0221,-0.0219,-0.009,0.0063,-0.0039,0.0003,-33.9404,-25.5346,-7.2224,,adl
6.307082,-0.0221,-0.0219,-0.009,0.0063,-0.0039,0.0003,-33.9404,-25.5346,-7.2224,,adl
6.308202,-0.0221,-0.0219,-0.009,0.0063,-0.0039,0.0003,-33.9404,-25.5346,-7.2224,,adl
6.309368,-0.0221,-0.0219,-0.009,0.0063,-0.0039,0.0003,-33.9526,-25.5102,-7.2712,,adl
6.352423,-0.0221,-0.0219,-0.009,0.0063,-0.0039,0.0003,-34.0136,-25.5102,-7.2712,,adl
6.358031,-0.0221,-0.0219,-0.009,-0.0063,-0.0013,0.0017,-34.0136,-25.5102,-7.2712,,adl
6.367352,-0.0221,-0.0219,-0.009,-0.0063,-0.0013,0.0017,-34.0136,-25.5102,-7.2712,,adl
6.370242,-0.0221,-0.0219,-0.009,-0.0063,-0.0013,0.0017,-34.0136,-25.5102,-7.2712,,adl
6.37296,-0.0221,-0.0219,-0.009,-0.0063,-0.0013,0.0017,-34.0136,-25.5102,-7.2712,,adl
6.375801,0.0106,0.0382,-0.005,-0.0063,-0.0013,0.0017,-34.0136,-25.5102,-7.2712,,adl
6.400694,0.0106,0.0382,-0.005,-0.0063,-0.0013,0.0017,-33.9526,-25.4614,-7.2834,,adl
6.427372,0.0106,0.0382,-0.005,0.0049,0.0001,-0.0004,-33.9526,-25.4614,-7.2834,,adl
6.430597,0.0106,0.0382,-0.005,0.0049,0.0001,-0.0004,-33.9526,-25.4614,-7.2834,,adl
6.432621,0.0106,0.0382,-0.005,0.0049,0.0001,-0.0004,-33.9526,-25.4614,-7.2834,,adl
6.434747,0.0106,0.0382,-0.005,0.0049,0.0001,-0.0004,-33.9526,-25.4614,-7.2834,,adl
6.437153,0.0052,-0.0218,0.0051,0.0049,0.0001,-0.0004,-33.9526,-25.4614,-7.2834,,adl
6.451064,0.0052,-0.0218,0.0051,0.0049,0.0001,-0.0004,-33.9404,-25.4614,-7.2468,,adl
6.497353,0.0052,-0.0218,0.0051,-0.0013,0.0004,-0.0023,-33.9404,-25.4614,-7.2468,,adl
6.500952,0.0052,-0.0218,0.0051,-0.0013,0.0004,-0.0023,-33.9404,-25.4614,-7.2468,,adl
6.503552,0.0052,-0.0218,0.0051,-0.0013,0.0004,-0.0023,-33.9404,-25.4614,-7.2468,,adl
6.506072,0.0052,-0.0218,0.0051,-0.0013,0.0004,-0.0023,-33.9404,-25.4614,-7.2468,,adl
6.508446,0.0052,-0.0218,0.0051,-0.0013,0.0004,-0.0023,-33.9404,-25.4614,-7.2468,,adl
6.510528,0.0052,-0.0218,0.0051,-0.0013,0.0004,-0.0023,-33.9648,-25.4614,-7.2712,,adl
6.511857,-0.0013,-0.0173,-0.0042,-0.0013,0.0004,-0.0023,-33.9648,-25.4614,-7.2712,,adl
6.551863,-0.0013,-0.0173,-0.0042,-0.0013,0.0004,-0.0023,-33.9648,-25.4858,-7.259,,adl
6.564149,-0.0013,-0.0173,-0.0042,-0.0013,0.0004,-0.0023,-33.9648,-25.4858,-7.259,,adl
6.567562,-0.0013,-0.0173,-0.0042,-0.0013,0.0004,-0.0023,-33.9648,-25.4858,-7.259,,adl
6.570157,-0.0013,-0.0173,-0.0042,-0.0013,0.0004,-0.0023,-33.9648,-25.4858,-7.259,,adl
6.572984,-0.0013,-0.0173,-0.0042,-0.0166,0.0027,-0.0012,-33.9648,-25.4858,-7.259,,adl
6.577821,-0.0129,0.0306,0.0043,-0.0166,0.0027,-0.0012,-33.9648,-25.4858,-7.259,,adl
6.600536,-0.0129,0.0306,0.0043,-0.0166,0.0027,-0.0012,-34.0014,-25.4614,-7.2346,,adl
6.630656,-0.0129,0.0306,0.0043,-0.0166,0.0027,-0.0012,-34.0014,-25.4614,-7.2346,,adl
6.633838,-0.0129,0.0306,0.0043,-0.0166,0.0027,-0.0012,-34.0014,-25.4614,-7.2346,,adl
6.636266,-0.0129,0.0306,0.0043,-0.0166,0.0027,-0.0012,-34.0014,-25.4614,-7.2346,,adl
6.638991,-0.0129,0.0306,0.0043,-0.0206,-0.0016,0.0008,-34.0014,-25.4614,-7.2346,,adl
6.646025,0.0133,0.0415,-0.0039,-0.0206,-0.0016,0.0008,-34.0014,-25.4614,-7.2346,,adl
6.652481,0.0133,0.0415,-0.0039,-0.0206,-0.0016,0.0008,-33.9648,-25.4736,-7.2468,,adl
6.697648,0.0133,0.0415,-0.0039,-0.0206,-0.0016,0.0008,-33.9648,-25.4736,-7.2468,,adl
6.700796,0.0133,0.0415,-0.0039,-0.0206,-0.0016,0.0008,-33.9648,-25.4736,-7.2468,,adl
6.703402,0.0133,0.0415,-0.0039,-0.0206,-0.0016,0.0008,-33.9648,-25.4736,-7.2468,,adl
6.705863,0.0133,0.0415,-0.0039,-0.0206,-0.0016,0.0008,-33.9648,-25.4736,-7.2468,,adl
6.708284,0.0133,0.0415,-0.0039,-0.0206,-0.0016,0.0008,-34.0502,-25.4614,-7.2224,,adl
6.710842,0.0133,0.0415,-0.0039,-0.0206,0.0088,-0.0009,-34.0502,-25.4614,-7.2224,,adl
6.718271,0.015,-0.0384,0.0021,-0.0206,0.0088,-0.0009,-34.0502,-25.4614,-7.2224,,adl
6.752194,0.015,-0.0384,0.0021,-0.0206,0.0088,-0.0009,-34.0624,-25.4858,-7.1858,,adl
6.765934,0.015,-0.0384,0.0021,-0.0206,0.0088,-0.0009,-34.0624,-25.4858,-7.1858,,adl
6.768786,0.015,-0.0384,0.0021,-0.0206,0.0088,-0.0009,-34.0624,-25.4858,-7.1858,,adl
6.771245,0.015,-0.0384,0.0021,-0.0206,0.0088,-0.0009,-34.0624,-25.4858,-7.1858,,adl
6.775471,0.015,-0.0384,0.0021,-0.035,-0.0043,-0.0009,-34.0624,-25.4858,-7.1858,,adl
6.788663,-0.0019,0.0364,-0.0002,-0.035,-0.0043,-0.0009,-34.0624,-25.4858,-7.1858,,adl
6.799985,-0.0019,0.0364,-0.0002,-0.035,-0.0043,-0.0009,-34.1478,-25.498,-7.2712,,adl
6.830572,-0.0019,0.0364,-0.0002,-0.035,-0.0043,-0.0009,-34.1478,-25.498,-7.2712,,adl
6.834284,-0.0019,0.0364,-0.0002,-0.035,-0.0043,-0.0009,-34.1478,-25.498,-7.2712,,adl
6.837021,-0.0019,0.0364,-0.0002,-0.035,-0.0043,-0.0009,-34.1478,-25.498,-7.2712,,adl
6.845905,-0.0019,0.0364,-0.0002,-0.0289,-0.0041,-0.0011,-34.1478,-25.498,-7.2712,,adl
6.851738,-0.0019,0.0364,-0.0002,-0.0289,-0.0041,-0.0011,-34.1356,-25.5102,-7.3322,,adl
6.854942,-0.0201,0.0049,-0.0085,-0.0289,-0.0041,-0.0011,-34.1356,-25.5102,-7.3322,,adl
6.897289,-0.0201,0.0049,-0.0085,-0.0289,-0.0041,-0.0011,-34.1356,-25.5102,-7.3322,,adl
6.900873,-0.0201,0.0049,-0.0085,-0.0289,-0.0041,-0.0011,-34.1356,-25.5102,-7.3322,,adl
6.903662,-0.0201,0.0049,-0.0085,-0.0289,-0.0041,-0.0011,-34.1356,-25.5102,-7.3322,,adl
6.906499,-0.0201,0.0049,-0.0085,-0.0289,-0.0041,-0.0011,-34.1356,-25.5102,-7.3322,,adl
6.909231,-0.0201,0.0049,-0.0085,-0.0289,-0.0041,-0.0011,-34.1478,-25.5102,-7.381,,adl
6.915378,-0.0201,0.0049,-0.0085,-0.0505,-0.0008,-0.0001,-34.1478,-25.5102,-7.381,,adl
6.924326,-0.0182,0.0047,-0.0041,-0.0505,-0.0008,-0.0001,-34.1478,-25.5102,-7.381,,adl
6.952133,-0.0182,0.0047,-0.0041,-0.0505,-0.0008,-0.0001,-34.1356,-25.5224,-7.3444,,adl
6.966413,-0.0182,0.0047,-0.0041,-0.0505,-0.0008,-0.0001,-34.1356,-25.5224,-7.3444,,adl
6.969958,-0.0182,0.0047,-0.0041,-0.0505,-0.0008,-0.0001,-34.1356,-25.5224,-7.3444,,adl
6.972819,-0.0182,0.0047,-0.0041,-0.0505,-0.0008,-0.0001,-34.1356,-25.5224,-7.3444,,adl
6.985281,-0.0182,0.0047,-0.0041,-0.0365,-0.0051,-0.0013,-34.1356,-25.5224,-7.3444,,adl
6.995376,0.0342,0.0231,0.0184,-0.0365,-0.0051,-0.0013,-34.1356,-25.5224,-7.3444,,adl
7.001703,0.0342,0.0231,0.0184,-0.0365,-0.0051,-0.0013,-34.0624,-25.5712,-7.3566,,adl
7.03048,0.0342,0.0231,0.0184,-0.0365,-0.0051,-0.0013,-34.0624,-25.5712,-7.3566,,adl
7.034158,0.0342,0.0231,0.0184,-0.0365,-0.0051,-0.0013,-34.0624,-25.5712,-7.3566,,adl
7.036956,0.0342,0.0231,0.0184,-0.0365,-0.0051,-0.0013,-34.0624,-25.5712,-7.3566,,adl
7.050894,0.0342,0.0231,0.0184,-0.0365,-0.0051,-0.0013,-34.099,-25.5346,-7.381,,adl
7.056574,0.0342,0.0231,0.0184,-0.031,-0.0089,0.0045,-34.099,-25.5346,-7.381,,adl
7.067463,-0.0014,-0.0049,-0.0235,-0.031,-0.0089,0.0045,-34.099,-25.5346,-7.381,,adl
7.0967,-0.0014,-0.0049,-0.0235,-0.031,-0.0089,0.0045,-34.099,-25.5346,-7.381,,adl
7.099244,-0.0014,-0.0049,-0.0235,-0.031,-0.0089,0.0045,-34.099,-25.5346,-7.381,,adl
7.101458,-0.0014,-0.0049,-0.0235,-0.031,-0.0089,0.0045,-34.099,-25.5346,-7.381,,adl
7.10423,-0.0014,-0.0049,-0.0235,-0.031,-0.0089,0.0045,-34.099,-25.5346,-7.381,,adl
7.10682,-0.0014,-0.0049,-0.0235,-0.031,-0.0089,0.0045,-34.0624,-25.4858,-7.442,,adl
7.12497,-0.0014,-0.0049,-0.0235,-0.0262,-0.0037,0.0007,-34.0624,-25.4858,-7.442,,adl
7.135049,-0.0045,0.0257,-0.0041,-0.0262,-0.0037,0.0007,-34.0624,-25.4858,-7.442,,adl
7.152623,-0.0045,0.0257,-0.0041,-0.0262,-0.0037,0.0007,-33.977,-25.4492,-7.4786,,adl
7.163951,-0.0045,0.0257,-0.0041,-0.0262,-0.0037,0.0007,-33.977,-25.4492,-7.4786,,adl
7.166664,-0.0045,0.0257,-0.0041,-0.0262,-0.0037,0.0007,-33.977,-25.4492,-7.4786,,adl
7.169107,-0.0045,0.0257,-0.0041,-0.0262,-0.0037,0.0007,-33.977,-25.4492,-7.4786,,adl
7.194674,-0.0045,0.0257,-0.0041,-0.0176,-0.0083,-0.0004,-33.977,-25.4492,-7.4786,,adl
7.205419,-0.0045,0.0257,-0.0041,-0.0176,-0.0083,-0.0004,-33.9648,-25.498,-7.4298,,adl
7.207336,-0.0144,-0.0398,0.0012,-0.0176,-0.0083,-0.0004,-33.9648,-25.498,-7.4298,,adl
7.229042,-0.0144,-0.0398,0.0012,-0.0176,-0.0083,-0.0004,-33.9648,-25.498,-7.4298,,adl
7.231398,-0.0144,-0.0398,0.0012,-0.0176,-0.0083,-0.0004,-33.9648,-25.498,-7.4298,,adl
7.23297,-0.0144,-0.0398,0.0012,-0.0176,-0.0083,-0.0004,-33.9648,-25.498,-7.4298,,adl
7.252484,-0.0144,-0.0398,0.0012,-0.0176,-0.0083,-0.0004,-33.9648,-25.4614,-7.503,,adl
7.264595,-0.0144,-0.0398,0.0012,-0.028,-0.0008,-0.0023,-33.9648,-25.4614,-7.503,,adl
7.274582,0.0109,0.0161,-0.0018,-0.028,-0.0008,-0.0023,-33.9648,-25.4614,-7.503,,adl
7.297239,0.0109,0.0161,-0.0018,-0.028,-0.0008,-0.0023,-33.9648,-25.4614,-7.503,,adl
7.300705,0.0109,0.0161,-0.0018,-0.028,-0.0008,-0.0023,-33.9648,-25.4614,-7.503,,adl
7.303565,0.0109,0.0161,-0.0018,-0.028,-0.0008,-0.0023,-33.9648,-25.4614,-7.503,,adl
7.306629,0.0109,0.0161,-0.0018,-0.028,-0.0008,-0.0023,-33.9648,-25.4614,-7.503,,adl
7.309453,0.0109,0.0161,-0.0018,-0.028,-0.0008,-0.0023,-33.9282,-25.4126,-7.5518,,adl
7.334112,0.0109,0.0161,-0.0018,-0.0265,-0.0035,0.0008,-33.9282,-25.4126,-7.5518,,adl
7.348837,-0.0083,0.0159,0.0039,-0.0265,-0.0035,0.0008,-33.9282,-25.4126,-7.5518,,adl
7.351839,-0.0083,0.0159,0.0039,-0.0265,-0.0035,0.0008,-33.9892,-25.3882,-7.6372,,adl
7.363247,-0.0083,0.0159,0.0039,-0.0265,-0.0035,0.0008,-33.9892,-25.3882,-7.6372,,adl
7.365215,-0.0083,0.0159,0.0039,-0.0265,-0.0035,0.0008,-33.9892,-25.3882,-7.6372,,adl
7.366646,-0.0083,0.0159,0.0039,-0.0265,-0.0035,0.0008,-33.9892,-25.3882,-7.6372,,adl
7.401767,-0.0083,0.0159,0.0039,-0.0294,-0.0057,0.0004,-33.9892,-25.3882,-7.6372,,adl
7.404467,-0.0083,0.0159,0.0039,-0.0294,-0.0057,0.0004,-34.0258,-25.254,-7.7714,,adl
7.413949,0.0101,-0.0064,-0.0024,-0.0294,-0.0057,0.0004,-34.0258,-25.254,-7.7714,,adl
7.431701,0.0101,-0.0064,-0.0024,-0.0294,-0.0057,0.0004,-34.0258,-25.254,-7.7714,,adl
7.433077,0.0101,-0.0064,-0.0024,-0.0294,-0.0057,0.0004,-34.0258,-25.254,-7.7714,,adl
7.434289,0.0101,-0.0064,-0.0024,-0.0294,-0.0057,0.0004,-34.0258,-25.254,-7.7714,,adl
7.452388,0.0101,-0.0064,-0.0024,-0.0294,-0.0057,0.0004,-34.0868,-25.2784,-7.7836,,adl
7.473992,0.0101,-0.0064,-0.0024,-0.0273,-0.0041,-0.0004,-34.0868,-25.2784,-7.7836,,adl
7.483999,-0.0014,0.0035,-0.0005,-0.0273,-0.0041,-0.0004,-34.0868,-25.2784,-7.7836,,adl
7.497052,-0.0014,0.0035,-0.0005,-0.0273,-0.0041,-0.0004,-34.0868,-25.2784,-7.7836,,adl
7.499987,-0.0014,0.0035,-0.0005,-0.0273,-0.0041,-0.0004,-34.0868,-25.2784,-7.7836,,adl
7.502117,-0.0014,0.0035,-0.0005,-0.0273,-0.0041,-0.0004,-34.0868,-25.2784,-7.7836,,adl
7.504162,-0.0014,0.0035,-0.0005,-0.0273,-0.0041,-0.0004,-34.0868,-25.2784,-7.7836,,adl
7.506305,-0.0014,0.0035,-0.0005,-0.0273,-0.0041,-0.0004,-34.0258,-25.3028,-7.7592,,adl
7.543917,-0.0014,0.0035,-0.0005,-0.0257,-0.0008,-0.0007,-34.0258,-25.3028,-7.7592,,adl
7.552453,0.0016,-0.0021,0.0073,-0.0257,-0.0008,-0.0007,-34.0258,-25.3028,-7.7592,,adl
7.555826,0.0016,-0.0021,0.0073,-0.0257,-0.0008,-0.0007,-34.0502,-25.2784,-7.8446,,adl
7.563819,0.0016,-0.0021,0.0073,-0.0257,-0.0008,-0.0007,-34.0502,-25.2784,-7.8446,,adl
7.567337,0.0016,-0.0021,0.0073,-0.0257,-0.0008,-0.0007,-34.0502,-25.2784,-7.8446,,adl
7.570619,0.0016,-0.0021,0.0073,-0.0257,-0.0008,-0.0007,-34.0502,-25.2784,-7.8446,,adl
7.602797,0.0016,-0.0021,0.0073,-0.0257,-0.0008,-0.0007,-33.977,-25.2784,-7.8934,,adl
7.613072,0.0016,-0.0021,0.0073,-0.0292,-0.0043,-0.0003,-33.977,-25.2784,-7.8934,,adl
7.62406,-0.0118,0.0098,-0.0077,-0.0292,-0.0043,-0.0003,-33.977,-25.2784,-7.8934,,adl
7.628996,-0.0118,0.0098,-0.0077,-0.0292,-0.0043,-0.0003,-33.977,-25.2784,-7.8934,,adl
7.632451,-0.0118,0.0098,-0.0077,-0.0292,-0.0043,-0.0003,-33.977,-25.2784,-7.8934,,adl
7.63556,-0.0118,0.0098,-0.0077,-0.0292,-0.0043,-0.0003,-33.977,-25.2784,-7.8934,,adl
7.652084,-0.0118,0.0098,-0.0077,-0.0292,-0.0043,-0.0003,-33.9892,-25.2662,-7.8446,,adl
7.682095,-0.0118,0.0098,-0.0077,-0.0205,0.006,-0.0015,-33.9892,-25.2662,-7.8446,,adl
7.691686,0.0097,-0.0193,0.0138,-0.0205,0.006,-0.0015,-33.9892,-25.2662,-7.8446,,adl
7.695777,0.0097,-0.0193,0.0138,-0.0205,0.006,-0.0015,-33.9892,-25.2662,-7.8446,,adl
7.698083,0.0097,-0.0193,0.0138,-0.0205,0.006,-0.0015,-33.9892,-25.2662,-7.8446,,adl
7.699438,0.0097,-0.0193,0.0138,-0.0205,0.006,-0.0015,-33.9892,-25.2662,-7.8446,,adl
7.701018,0.0097,-0.0193,0.0138,-0.0205,0.006,-0.0015,-33.9892,-25.2662,-7.8446,,adl
7.702613,0.0097,-0.0193,0.0138,-0.0205,0.006,-0.0015,-33.9892,-25.3272,-7.8202,,adl
7.753153,0.0097,-0.0193,0.0138,-0.0205,0.006,-0.0015,-33.9526,-25.3394,-7.8934,,adl
7.756021,0.0097,-0.0193,0.0138,-0.0173,-0.0057,0.0021,-33.9526,-25.3394,-7.8934,,adl
7.764491,-0.0005,0.0126,-0.0199,-0.0173,-0.0057,0.0021,-33.9526,-25.3394,-7.8934,,adl
7.768253,-0.0005,0.0126,-0.0199,-0.0173,-0.0057,0.0021,-33.9526,-25.3394,-7.8934,,adl
7.770163,-0.0005,0.0126,-0.0199,-0.0173,-0.0057,0.0021,-33.9526,-25.3394,-7.8934,,adl
7.771466,-0.0005,0.0126,-0.0199,-0.0173,-0.0057,0.0021,-33.9526,-25.3394,-7.8934,,adl
7.803595,-0.0005,0.0126,-0.0199,-0.0173,-0.0057,0.0021,-33.9648,-25.3516,-7.8568,,adl
7.822589,-0.0005,0.0126,-0.0199,-0.0096,-0.0009,0.0007,-33.9648,-25.3516,-7.8568,,adl
7.829343,-0.0005,0.0126,-0.0199,-0.0096,-0.0009,0.0007,-33.9648,-25.3516,-7.8568,,adl
7.832837,-0.0005,0.0126,-0.0199,-0.0096,-0.0009,0.0007,-33.9648,-25.3516,-7.8568,,adl
7.835425,-0.0005,0.0126,-0.0199,-0.0096,-0.0009,0.0007,-33.9648,-25.3516,-7.8568,,adl
7.837928,0.0096,0.009,-0.0001,-0.0096,-0.0009,0.0007,-33.9648,-25.3516,-7.8568,,adl
7.854046,0.0096,0.009,-0.0001,-0.0096,-0.0009,0.0007,-33.916,-25.315,-7.9178,,adl
7.892771,0.0096,0.009,-0.0001,-0.0069,-0.0043,-0.0011,-33.916,-25.315,-7.9178,,adl
7.89714,0.0096,0.009,-0.0001,-0.0069,-0.0043,-0.0011,-33.916,-25.315,-7.9178,,adl
7.900141,0.0096,0.009,-0.0001,-0.0069,-0.0043,-0.0011,-33.916,-25.315,-7.9178,,adl
7.903452,0.0096,0.009,-0.0001,-0.0069,-0.0043,-0.0011,-33.916,-25.315,-7.9178,,adl
7.906016,0.0096,0.009,-0.0001,-0.0069,-0.0043,-0.0011,-33.916,-25.315,-7.9178,,adl
7.908281,-0.0148,-0.0572,0.0054,-0.0069,-0.0043,-0.0011,-33.916,-25.315,-7.9178,,adl
7.911076,-0.0148,-0.0572,0.0054,-0.0069,-0.0043,-0.0011,-34.0136,-25.315,-8.0032,,adl
7.953339,-0.0148,-0.0572,0.0054,-0.0069,-0.0043,-0.0011,-33.9892,-25.3638,-7.991,,adl
7.962106,-0.0148,-0.0572,0.0054,-0.022,-0.0036,-0.002,-33.9892,-25.3638,-7.991,,adl
7.96603,-0.0148,-0.0572,0.0054,-0.022,-0.0036,-0.002,-33.9892,-25.3638,-7.991,,adl
7.968893,-0.0148,-0.0572,0.0054,-0.022,-0.0036,-0.002,-33.9892,-25.3638,-7.991,,adl
7.971695,-0.0148,-0.0572,0.0054,-0.022,-0.0036,-0.002,-33.9892,-25.3638,-7.991,,adl
7.974159,0.0035,0.0339,-0.0044,-0.022,-0.0036,-0.002,-33.9892,-25.3638,-7.991,,adl
8.003779,0.0035,0.0339,-0.0044,-0.022,-0.0036,-0.002,-34.0136,-25.3394,-8.0764,,adl
8.031138,0.0035,0.0339,-0.0044,-0.0154,-0.0013,0.0,-34.0136,-25.3394,-8.0764,,adl
8.034835,0.0035,0.0339,-0.0044,-0.0154,-0.0013,0.0,-34.0136,-25.3394,-8.0764,,adl
8.03724,0.0035,0.0339,-0.0044,-0.0154,-0.0013,0.0,-34.0136,-25.3394,-8.0764,,adl
8.04042,0.0035,0.0339,-0.0044,-0.0154,-0.0013,0.0,-34.0136,-25.3394,-8.0764,,adl
8.043611,0.0035,0.0339,-0.0044,-0.0154,-0.0013,0.0,-34.0136,-25.3394,-8.0764,,adl
8.04604,-0.0107,0.0036,0.0079,-0.0154,-0.0013,0.0,-34.0136,-25.3394,-8.0764,,adl
8.05207,-0.0107,0.0036,0.0079,-0.0154,-0.0013,0.0,-34.0014,-25.3516,-8.1008,,adl
8.098051,-0.0107,0.0036,0.0079,-0.0154,-0.0013,0.0,-34.0014,-25.3516,-8.1008,,adl
8.101313,-0.0107,0.0036,0.0079,-0.0154,-0.0013,0.0,-34.0014,-25.3516,-8.1008,,adl
8.10392,-0.0107,0.0036,0.0079,-0.0154,-0.0013,0.0,-34.0014,-25.3516,-8.1008,,adl
8.106546,-0.0107,0.0036,0.0079,-0.0119,0.0003,0.0,-34.0014,-25.3516,-8.1008,,adl
8.108654,-0.0107,0.0036,0.0079,-0.0119,0.0003,0.0,-33.9648,-25.3638,-8.1252,,adl
8.11729,0.0164,-0.0125,-0.006,-0.0119,0.0003,0.0,-33.9648,-25.3638,-8.1252,,adl
8.152455,0.0164,-0.0125,-0.006,-0.0119,0.0003,0.0,-34.0136,-25.2906,-8.0886,,adl
8.163543,0.0164,-0.0125,-0.006,-0.0119,0.0003,0.0,-34.0136,-25.2906,-8.0886,,adl
8.166644,0.0164,-0.0125,-0.006,-0.0119,0.0003,0.0,-34.0136,-25.2906,-8.0886,,adl
8.168878,0.0164,-0.0125,-0.006,-0.0119,0.0003,0.0,-34.0136,-25.2906,-8.0886,,adl
8.171208,0.0164,-0.0125,-0.006,-0.015,-0.0,-0.0009,-34.0136,-25.2906,-8.0886,,adl
8.180534,0.0035,-0.0116,0.0023,-0.015,-0.0,-0.0009,-34.0136,-25.2906,-8.0886,,adl
8.202044,0.0035,-0.0116,0.0023,-0.015,-0.0,-0.0009,-34.0014,-25.3516,-8.0764,,adl
8.231267,0.0035,-0.0116,0.0023,-0.015,-0.0,-0.0009,-34.0014,-25.3516,-8.0764,,adl
8.23469,0.0035,-0.0116,0.0023,-0.015,-0.0,-0.0009,-34.0014,-25.3516,-8.0764,,adl
8.236991,0.0035,-0.0116,0.0023,-0.015,-0.0,-0.0009,-34.0014,-25.3516,-8.0764,,adl
8.239487,0.0035,-0.0116,0.0023,-0.015,-0.0,-0.0009,-34.0014,-25.3516,-8.0764,,adl
8.242042,0.0035,-0.0116,0.0023,-0.0107,-0.0003,-0.0003,-34.0014,-25.3516,-8.0764,,adl
8.250955,-0.0026,0.0225,0.0014,-0.0107,-0.0003,-0.0003,-34.0014,-25.3516,-8.0764,,adl
8.254251,-0.0026,0.0225,0.0014,-0.0107,-0.0003,-0.0003,-34.0746,-25.3394,-8.113,,adl
8.297384,-0.0026,0.0225,0.0014,-0.0107,-0.0003,-0.0003,-34.0746,-25.3394,-8.113,,adl
8.300976,-0.0026,0.0225,0.0014,-0.0107,-0.0003,-0.0003,-34.0746,-25.3394,-8.113,,adl
8.303974,-0.0026,0.0225,0.0014,-0.0107,-0.0003,-0.0003,-34.0746,-25.3394,-8.113,,adl
8.306867,-0.0026,0.0225,0.0014,-0.0107,-0.0003,-0.0003,-34.038,-25.315,-8.1252,,adl
8.311045,-0.0026,0.0225,0.0014,0.0027,0.0032,0.0015,-34.038,-25.315,-8.1252,,adl
8.321884,-0.0142,-0.0219,0.0035,0.0027,0.0032,0.0015,-34.038,-25.315,-8.1252,,adl
8.352128,-0.0142,-0.0219,0.0035,0.0027,0.0032,0.0015,-34.0502,-25.3272,-8.0886,,adl
8.363553,-0.0142,-0.0219,0.0035,0.0027,0.0032,0.0015,-34.0502,-25.3272,-8.0886,,adl
8.365764,-0.0142,-0.0219,0.0035,0.0027,0.0032,0.0015,-34.0502,-25.3272,-8.0886,,adl
8.367671,-0.0142,-0.0219,0.0035,0.0027,0.0032,0.0015,-34.0502,-25.3272,-8.0886,,adl
8.380401,-0.0142,-0.0219,0.0035,0.0076,0.0065,-0.002,-34.0502,-25.3272,-8.0886,,adl
8.390735,0.0231,0.0021,-0.0112,0.0076,0.0065,-0.002,-34.0502,-25.3272,-8.0886,,adl
8.401713,0.0231,0.0021,-0.0112,0.0076,0.0065,-0.002,-34.038,-25.3028,-7.9544,,adl
8.430595,0.0231,0.0021,-0.0112,0.0076,0.0065,-0.002,-34.038,-25.3028,-7.9544,,adl
8.433781,0.0231,0.0021,-0.0112,0.0076,0.0065,-0.002,-34.038,-25.3028,-7.9544,,adl
8.435877,0.0231,0.0021,-0.0112,0.0076,0.0065,-0.002,-34.038,-25.3028,-7.9544,,adl
8.438047,0.0231,0.0021,-0.0112,0.0076,0.0065,-0.002,-34.038,-25.3028,-7.9544,,adl
8.450448,0.0231,0.0021,-0.0112,0.0076,0.0065,-0.002,-34.038,-25.3394,-7.93,,adl
8.452222,0.0231,0.0021,-0.0112,0.0289,0.0069,0.0003,-34.038,-25.3394,-7.93,,adl
8.462859,-0.001,-0.0493,0.0274,0.0289,0.0069,0.0003,-34.038,-25.3394,-7.93,,adl
8.497232,-0.001,-0.0493,0.0274,0.0289,0.0069,0.0003,-34.038,-25.3394,-7.93,,adl
8.499595,-0.001,-0.0493,0.0274,0.0289,0.0069,0.0003,-34.038,-25.3394,-7.93,,adl
8.501311,-0.001,-0.0493,0.0274,0.0289,0.0069,0.0003,-34.038,-25.3394,-7.93,,adl
8.503513,-0.001,-0.0493,0.0274,0.0289,0.0069,0.0003,-34.0746,-25.3394,-7.7958,,adl
8.52028,-0.001,-0.0493,0.0274,0.0153,0.0027,0.0025,-34.0746,-25.3394,-7.7958,,adl
8.529909,0.0045,0.0428,-0.0198,0.0153,0.0027,0.0025,-34.0746,-25.3394,-7.7958,,adl
8.551864,0.0045,0.0428,-0.0198,0.0153,0.0027,0.0025,-34.0624,-25.376,-7.8568,,adl
8.563743,0.0045,0.0428,-0.0198,0.0153,0.0027,0.0025,-34.0624,-25.376,-7.8568,,adl
8.566222,0.0045,0.0428,-0.0198,0.0153,0.0027,0.0025,-34.0624,-25.376,-7.8568,,adl
8.567996,0.0045,0.0428,-0.0198,0.0153,0.0027,0.0025,-34.0624,-25.376,-7.8568,,adl
8.589865,0.0045,0.0428,-0.0198,0.0305,0.0029,-0.0007,-34.0624,-25.376,-7.8568,,adl
8.60024,-0.0042,-0.0483,0.0,0.0305,0.0029,-0.0007,-34.0624,-25.376,-7.8568,,adl
8.601816,-0.0042,-0.0483,0.0,0.0305,0.0029,-0.0007,-34.0868,-25.376,-7.8446,,adl
8.63011,-0.0042,-0.0483,0.0,0.0305,0.0029,-0.0007,-34.0868,-25.376,-7.8446,,adl
8.632132,-0.0042,-0.0483,0.0,0.0305,0.0029,-0.0007,-34.0868,-25.376,-7.8446,,adl
8.633364,-0.0042,-0.0483,0.0,0.0305,0.0029,-0.0007,-34.0868,-25.376,-7.8446,,adl
8.635531,-0.0042,-0.0483,0.0,0.0305,0.0029,-0.0007,-34.0868,-25.376,-7.8446,,adl
8.651589,-0.0042,-0.0483,0.0,0.0305,0.0029,-0.0007,-34.0136,-25.437,-7.7592,,adl
8.661233,-0.0042,-0.0483,0.0,0.0238,0.0013,-0.0025,-34.0136,-25.437,-7.7592,,adl
8.66966,0.0046,-0.0335,0.012,0.0238,0.0013,-0.0025,-34.0136,-25.437,-7.7592,,adl
8.697083,0.0046,-0.0335,0.012,0.0238,0.0013,-0.0025,-34.0136,-25.437,-7.7592,,adl
8.699751,0.0046,-0.0335,0.012,0.0238,0.0013,-0.0025,-34.0136,-25.437,-7.7592,,adl
8.701869,0.0046,-0.0335,0.012,0.0238,0.0013,-0.0025,-34.0136,-25.437,-7.7592,,adl
8.703858,0.0046,-0.0335,0.012,0.0238,0.0013,-0.0025,-33.977,-25.4614,-7.6616,,adl
8.729109,0.0046,-0.0335,0.012,0.0076,0.0049,-0.0015,-33.977,-25.4614,-7.6616,,adl
8.739566,-0.0025,0.0439,-0.0012,0.0076,0.0049,-0.0015,-33.977,-25.4614,-7.6616,,adl
8.751739,-0.0025,0.0439,-0.0012,0.0076,0.0049,-0.0015,-33.9892,-25.4248,-7.6616,,adl
8.763369,-0.0025,0.0439,-0.0012,0.0076,0.0049,-0.0015,-33.9892,-25.4248,-7.6616,,adl
8.767463,-0.0025,0.0439,-0.0012,0.0076,0.0049,-0.0015,-33.9892,-25.4248,-7.6616,,adl
8.77093,-0.0025,0.0439,-0.0012,0.0076,0.0049,-0.0015,-33.9892,-25.4248,-7.6616,,adl
8.800402,-0.0025,0.0439,-0.0012,0.0257,-0.0008,0.0029,-33.9892,-25.4248,-7.6616,,adl
8.801716,-0.0025,0.0439,-0.0012,0.0257,-0.0008,0.0029,-34.0014,-25.437,-7.7226,,adl
8.808129,-0.0017,-0.0254,0.0086,0.0257,-0.0008,0.0029,-34.0014,-25.437,-7.7226,,adl
8.829733,-0.0017,-0.0254,0.0086,0.0257,-0.0008,0.0029,-34.0014,-25.437,-7.7226,,adl
8.830976,-0.0017,-0.0254,0.0086,0.0257,-0.0008,0.0029,-34.0014,-25.437,-7.7226,,adl
8.831585,-0.0017,-0.0254,0.0086,0.0257,-0.0008,0.0029,-34.0014,-25.437,-7.7226,,adl
8.832191,-0.0017,-0.0254,0.0086,0.0257,-0.0008,0.0029,-34.0014,-25.437,-7.7226,,adl
8.852084,-0.0017,-0.0254,0.0086,0.0257,-0.0008,0.0029,-33.9648,-25.4248,-7.747,,adl
8.86931,-0.0017,-0.0254,0.0086,0.03,0.0012,-0.0011,-33.9648,-25.4248,-7.747,,adl
8.879478,0.0078,-0.0276,-0.0053,0.03,0.0012,-0.0011,-33.9648,-25.4248,-7.747,,adl
8.89568,0.0078,-0.0276,-0.0053,0.03,0.0012,-0.0011,-33.9648,-25.4248,-7.747,,adl
8.897012,0.0078,-0.0276,-0.0053,0.03,0.0012,-0.0011,-33.9648,-25.4248,-7.747,,adl
8.898134,0.0078,-0.0276,-0.0053,0.03,0.0012,-0.0011,-33.9648,-25.4248,-7.747,,adl
8.901334,0.0078,-0.0276,-0.0053,0.03,0.0012,-0.0011,-34.0136,-25.376,-7.808,,adl
8.939035,0.0078,-0.0276,-0.0053,0.0278,0.0033,-0.0003,-34.0136,-25.376,-7.808,,adl
8.948336,0.0033,0.0073,0.0007,0.0278,0.0033,-0.0003,-34.0136,-25.376,-7.808,,adl
8.950592,0.0033,0.0073,0.0007,0.0278,0.0033,-0.0003,-34.0014,-25.376,-7.7592,,adl
8.962293,0.0033,0.0073,0.0007,0.0278,0.0033,-0.0003,-34.0014,-25.376,-7.7592,,adl
8.964889,0.0033,0.0073,0.0007,0.0278,0.0033,-0.0003,-34.0014,-25.376,-7.7592,,adl
8.967129,0.0033,0.0073,0.0007,0.0278,0.0033,-0.0003,-34.0014,-25.376,-7.7592,,adl
8.999959,0.0033,0.0073,0.0007,0.0278,0.0033,-0.0003,-33.9648,-25.4126,-7.6494,,adl
9.007557,0.0033,0.0073,0.0007,0.025,-0.0005,0.0004,-33.9648,-25.4126,-7.6494,,adl
9.026213,-0.0076,-0.0012,-0.0009,0.025,-0.0005,0.0004,-33.9648,-25.4126,-7.6494,,adl
9.029999,-0.0076,-0.0012,-0.0009,0.025,-0.0005,0.0004,-33.9648,-25.4126,-7.6494,,adl
9.031924,-0.0076,-0.0012,-0.0009,0.025,-0.0005,0.0004,-33.9648,-25.4126,-7.6494,,adl
9.03368,-0.0076,-0.0012,-0.0009,0.025,-0.0005,0.0004,-33.9648,-25.4126,-7.6494,,adl
9.035018,-0.0076,-0.0012,-0.0009,0.025,-0.0005,0.0004,-33.9648,-25.4126,-7.6494,,adl
9.051535,-0.0076,-0.0012,-0.0009,0.025,-0.0005,0.0004,-33.9526,-25.3882,-7.686,,adl
9.078436,-0.0076,-0.0012,-0.0009,0.0293,-0.0007,-0.0007,-33.9526,-25.3882,-7.686,,adl
9.08895,-0.0087,-0.0196,0.0034,0.0293,-0.0007,-0.0007,-33.9526,-25.3882,-7.686,,adl
9.095499,-0.0087,-0.0196,0.0034,0.0293,-0.0007,-0.0007,-33.9526,-25.3882,-7.686,,adl
9.097206,-0.0087,-0.0196,0.0034,0.0293,-0.0007,-0.0007,-33.9526,-25.3882,-7.686,,adl
9.098728,-0.0087,-0.0196,0.0034,0.0293,-0.0007,-0.0007,-33.9526,-25.3882,-7.686,,adl
9.100447,-0.0087,-0.0196,0.0034,0.0293,-0.0007,-0.0007,-33.9282,-25.3394,-7.625,,adl
9.147049,-0.0087,-0.0196,0.0034,0.0252,0.0016,-0.0001,-33.9282,-25.3394,-7.625,,adl
9.156955,-0.0087,-0.0196,0.0034,0.0252,0.0016,-0.0001,-33.9648,-25.3516,-7.6128,,adl
9.159678,0.0148,-0.0077,0.0023,0.0252,0.0016,-0.0001,-33.9648,-25.3516,-7.6128,,adl
9.162154,0.0148,-0.0077,0.0023,0.0252,0.0016,-0.0001,-33.9648,-25.3516,-7.6128,,adl
9.163522,0.0148,-0.0077,0.0023,0.0252,0.0016,-0.0001,-33.9648,-25.3516,-7.6128,,adl
9.164769,0.0148,-0.0077,0.0023,0.0252,0.0016,-0.0001,-33.9648,-25.3516,-7.6128,,adl
9.200815,0.0148,-0.0077,0.0023,0.0252,0.0016,-0.0001,-33.9526,-25.3394,-7.5518,,adl
9.216259,0.0148,-0.0077,0.0023,0.0153,0.0053,-0.0009,-33.9526,-25.3394,-7.5518,,adl
9.226613,0.0063,0.0301,0.0028,0.0153,0.0053,-0.0009,-33.9526,-25.3394,-7.5518,,adl
9.229993,0.0063,0.0301,0.0028,0.0153,0.0053,-0.0009,-33.9526,-25.3394,-7.5518,,adl
9.23229,0.0063,0.0301,0.0028,0.0153,0.0053,-0.0009,-33.9526,-25.3394,-7.5518,,adl
9.234323,0.0063,0.0301,0.0028,0.0153,0.0053,-0.0009,-33.9526,-25.3394,-7.5518,,adl
9.236045,0.0063,0.0301,0.0028,0.0153,0.0053,-0.0009,-33.9526,-25.3394,-7.5518,,adl
9.250704,0.0063,0.0301,0.0028,0.0153,0.0053,-0.0009,-33.9648,-25.315,-7.503,,adl
9.287166,0.0063,0.0301,0.0028,0.0297,-0.002,0.002,-33.9648,-25.315,-7.503,,adl
9.302642,-0.0097,-0.0389,0.0075,0.0297,-0.002,0.002,-33.9648,-25.315,-7.503,,adl
9.30511,-0.0097,-0.0389,0.0075,0.0297,-0.002,0.002,-33.9648,-25.315,-7.503,,adl
9.307105,-0.0097,-0.0389,0.0075,0.0297,-0.002,0.002,-33.9648,-25.315,-7.503,,adl
9.308919,-0.0097,-0.0389,0.0075,0.0297,-0.002,0.002,-33.9648,-25.315,-7.503,,adl
9.310818,-0.0097,-0.0389,0.0075,0.0297,-0.002,0.002,-33.9648,-25.3394,-7.5152,,adl
9.352369,-0.0097,-0.0389,0.0075,0.0297,-0.002,0.002,-33.9282,-25.3882,-7.4298,,adl
9.3555,-0.0097,-0.0389,0.0075,0.015,0.0004,-0.0007,-33.9282,-25.3882,-7.4298,,adl
9.368258,-0.0097,-0.0389,0.0075,0.015,0.0004,-0.0007,-33.9282,-25.3882,-7.4298,,adl
9.370909,-0.0097,-0.0389,0.0075,0.015,0.0004,-0.0007,-33.9282,-25.3882,-7.4298,,adl
9.373323,-0.0097,-0.0389,0.0075,0.015,0.0004,-0.0007,-33.9282,-25.3882,-7.4298,,adl
9.375886,-0.0021,0.0205,-0.0013,0.015,0.0004,-0.0007,-33.9282,-25.3882,-7.4298,,adl
9.401985,-0.0021,0.0205,-0.0013,0.015,0.0004,-0.0007,-33.9648,-25.3394,-7.5152,,adl
9.426914,-0.0021,0.0205,-0.0013,0.0176,-0.0004,-0.0012,-33.9648,-25.3394,-7.5152,,adl
9.431478,-0.0021,0.0205,-0.0013,0.0176,-0.0004,-0.0012,-33.9648,-25.3394,-7.5152,,adl
9.434223,-0.0021,0.0205,-0.0013,0.0176,-0.0004,-0.0012,-33.9648,-25.3394,-7.5152,,adl
9.43666,-0.0021,0.0205,-0.0013,0.0176,-0.0004,-0.0012,-33.9648,-25.3394,-7.5152,,adl
9.438718,-0.0021,0.0205,-0.0013,0.0176,-0.0004,-0.0012,-33.9648,-25.3394,-7.5152,,adl
9.440088,0.0067,-0.0002,-0.0064,0.0176,-0.0004,-0.0012,-33.9648,-25.3394,-7.5152,,adl
9.450222,0.0067,-0.0002,-0.0064,0.0176,-0.0004,-0.0012,-34.0014,-25.3028,-7.5274,,adl
9.497004,0.0067,-0.0002,-0.0064,0.019,-0.0004,0.0012,-34.0014,-25.3028,-7.5274,,adl
9.499725,0.0067,-0.0002,-0.0064,0.019,-0.0004,0.0012,-34.0014,-25.3028,-7.5274,,adl
9.501417,0.0067,-0.0002,-0.0064,0.019,-0.0004,0.0012,-34.0014,-25.3028,-7.5274,,adl
9.5032,0.0067,-0.0002,-0.0064,0.019,-0.0004,0.0012,-34.0014,-25.3028,-7.5274,,adl
9.504899,0.0067,-0.0002,-0.0064,0.019,-0.0004,0.0012,-34.0502,-25.3638,-7.5396,,adl
9.506886,-0.0055,-0.0173,-0.0063,0.019,-0.0004,0.0012,-34.0502,-25.3638,-7.5396,,adl
9.552485,-0.0055,-0.0173,-0.0063,0.019,-0.0004,0.0012,-34.0258,-25.3394,-7.564,,adl
9.564867,-0.0055,-0.0173,-0.0063,0.019,-0.0004,0.0012,-34.0258,-25.3394,-7.564,,adl
9.567552,-0.0055,-0.0173,-0.0063,0.019,-0.0004,0.0012,-34.0258,-25.3394,-7.564,,adl
9.569696,-0.0055,-0.0173,-0.0063,0.019,-0.0004,0.0012,-34.0258,-25.3394,-7.564,,adl
9.57185,-0.0055,-0.0173,-0.0063,0.0165,0.0004,-0.0001,-34.0258,-25.3394,-7.564,,adl
9.580349,-0.0022,0.0096,0.0096,0.0165,0.0004,-0.0001,-34.0258,-25.3394,-7.564,,adl
9.60001,-0.0022,0.0096,0.0096,0.0165,0.0004,-0.0001,-34.0502,-25.4004,-7.5762,,adl
9.629747,-0.0022,0.0096,0.0096,0.0165,0.0004,-0.0001,-34.0502,-25.4004,-7.5762,,adl
9.632791,-0.0022,0.0096,0.0096,0.0165,0.0004,-0.0001,-34.0502,-25.4004,-7.5762,,adl
9.635148,-0.0022,0.0096,0.0096,0.0165,0.0004,-0.0001,-34.0502,-25.4004,-7.5762,,adl
9.637199,-0.0022,0.0096,0.0096,0.0165,0.0004,-0.0001,-34.0502,-25.4004,-7.5762,,adl
9.639591,-0.0022,0.0096,0.0096,0.0103,0.0019,-0.0007,-34.0502,-25.4004,-7.5762,,adl
9.644221,0.0063,0.0084,-0.0013,0.0103,0.0019,-0.0007,-34.0502,-25.4004,-7.5762,,adl
9.650066,0.0063,0.0084,-0.0013,0.0103,0.0019,-0.0007,-34.0868,-25.4614,-7.4786,,adl
9.69742,0.0063,0.0084,-0.0013,0.0103,0.0019,-0.0007,-34.0868,-25.4614,-7.4786,,adl
9.700427,0.0063,0.0084,-0.0013,0.0103,0.0019,-0.0007,-34.0868,-25.4614,-7.4786,,adl
9.702688,0.0063,0.0084,-0.0013,0.0103,0.0019,-0.0007,-34.0868,-25.4614,-7.4786,,adl
9.704774,0.0063,0.0084,-0.0013,0.0103,0.0019,-0.0007,-34.0014,-25.5346,-7.4176,,adl
9.707526,0.0063,0.0084,-0.0013,0.017,0.0017,-0.0003,-34.0014,-25.5346,-7.4176,,adl
9.716443,-0.0003,-0.0105,0.0,0.017,0.0017,-0.0003,-34.0014,-25.5346,-7.4176,,adl
9.752263,-0.0003,-0.0105,0.0,0.017,0.0017,-0.0003,-34.0136,-25.5224,-7.4542,,adl
9.766066,-0.0003,-0.0105,0.0,0.017,0.0017,-0.0003,-34.0136,-25.5224,-7.4542,,adl
9.768816,-0.0003,-0.0105,0.0,0.017,0.0017,-0.0003,-34.0136,-25.5224,-7.4542,,adl
9.77123,-0.0003,-0.0105,0.0,0.017,0.0017,-0.0003,-34.0136,-25.5224,-7.4542,,adl
9.776689,-0.0003,-0.0105,0.0,0.0142,0.0015,0.0015,-34.0136,-25.5224,-7.4542,,adl
9.785653,-0.0024,0.0033,0.0007,0.0142,0.0015,0.0015,-34.0136,-25.5224,-7.4542,,adl
9.799976,-0.0024,0.0033,0.0007,0.0142,0.0015,0.0015,-34.0136,-25.5224,-7.381,,adl
9.830867,-0.0024,0.0033,0.0007,0.0142,0.0015,0.0015,-34.0136,-25.5224,-7.381,,adl
9.833153,-0.0024,0.0033,0.0007,0.0142,0.0015,0.0015,-34.0136,-25.5224,-7.381,,adl
9.835113,-0.0024,0.0033,0.0007,0.0142,0.0015,0.0015,-34.0136,-25.5224,-7.381,,adl
9.836773,-0.0024,0.0033,0.0007,0.0142,0.0015,0.0015,-34.0136,-25.5224,-7.381,,adl
9.845718,-0.0024,0.0033,0.0007,0.0177,-0.0,0.0017,-34.0136,-25.5224,-7.381,,adl
9.851768,-0.0024,0.0033,0.0007,0.0177,-0.0,0.0017,-34.0136,-25.5834,-7.3078,,adl
9.854179,0.003,0.0048,-0.0088,0.0177,-0.0,0.0017,-34.0136,-25.5834,-7.3078,,adl
9.897378,0.003,0.0048,-0.0088,0.0177,-0.0,0.0017,-34.0136,-25.5834,-7.3078,,adl
9.900314,0.003,0.0048,-0.0088,0.0177,-0.0,0.0017,-34.0136,-25.5834,-7.3078,,adl
9.902419,0.003,0.0048,-0.0088,0.0177,-0.0,0.0017,-34.0136,-25.5834,-7.3078,,adl
9.904449,0.003,0.0048,-0.0088,0.0177,-0.0,0.0017,-33.9648,-25.5956,-7.2712,,adl
9.915269,0.003,0.0048,-0.0088,0.025,0.0003,-0.0012,-33.9648,-25.5956,-7.2712,,adl
9.924846,0.0038,-0.0146,0.0022,0.025,0.0003,-0.0012,-33.9648,-25.5956,-7.2712,,adl
9.950584,0.0038,-0.0146,0.0022,0.025,0.0003,-0.0012,-33.9282,-25.6322,-7.2102,,adl
9.962911,0.0038,-0.0146,0.0022,0.025,0.0003,-0.0012,-33.9282,-25.6322,-7.2102,,adl
9.965008,0.0038,-0.0146,0.0022,0.025,0.0003,-0.0012,-33.9282,-25.6322,-7.2102,,adl
9.966558,0.0038,-0.0146,0.0022,0.025,0.0003,-0.0012,-33.9282,-25.6322,-7.2102,,adl
9.985001,0.0038,-0.0146,0.0022,0.0233,-0.0007,-0.0007,-33.9282,-25.6322,-7.2102,,adl
9.995006,-0.008,-0.0045,-0.0057,0.0233,-0.0007,-0.0007,-33.9282,-25.6322,-7.2102,,adl
10.004312,-0.008,-0.0045,-0.0057,0.0233,-0.0007,-0.0007,-33.916,-25.5834,-7.2468,,adl
10.030894,-0.008,-0.0045,-0.0057,0.0233,-0.0007,-0.0007,-33.916,-25.5834,-7.2468,,adl
10.034631,-0.008,-0.0045,-0.0057,0.0233,-0.0007,-0.0007,-33.916,-25.5834,-7.2468,,adl
10.037082,-0.008,-0.0045,-0.0057,0.0233,-0.0007,-0.0007,-33.916,-25.5834,-7.2468,,adl
10.039564,-0.008,-0.0045,-0.0057,0.0233,-0.0007,-0.0007,-33.916,-25.5834,-7.2468,,adl
10.052456,-0.008,-0.0045,-0.0057,0.0209,0.0008,0.0007,-33.916,-25.5834,-7.2468,,adl
10.055227,-0.008,-0.0045,-0.0057,0.0209,0.0008,0.0007,-33.9526,-25.5712,-7.3566,,adl
10.064544,-0.002,0.006,-0.0021,0.0209,0.0008,0.0007,-33.9526,-25.5712,-7.3566,,adl
10.097225,-0.002,0.006,-0.0021,0.0209,0.0008,0.0007,-33.9526,-25.5712,-7.3566,,adl
10.098767,-0.002,0.006,-0.0021,0.0209,0.0008,0.0007,-33.9526,-25.5712,-7.3566,,adl
10.099644,-0.002,0.006,-0.0021,0.0209,0.0008,0.0007,-33.9526,-25.5712,-7.3566,,adl
10.102052,-0.002,0.006,-0.0021,0.0209,0.0008,0.0007,-34.0014,-25.5224,-7.381,,adl
10.124594,-0.002,0.006,-0.0021,0.019,-0.0013,0.0001,-34.0014,-25.5224,-7.381,,adl
10.138647,0.0019,-0.0004,0.0022,0.019,-0.0013,0.0001,-34.0014,-25.5224,-7.381,,adl
10.152736,0.0019,-0.0004,0.0022,0.019,-0.0013,0.0001,-33.9892,-25.5224,-7.3078,,adl
10.163893,0.0019,-0.0004,0.0022,0.019,-0.0013,0.0001,-33.9892,-25.5224,-7.3078,,adl
10.166247,0.0019,-0.0004,0.0022,0.019,-0.0013,0.0001,-33.9892,-25.5224,-7.3078,,adl
10.16829,0.0019,-0.0004,0.0022,0.019,-0.0013,0.0001,-33.9892,-25.5224,-7.3078,,adl
10.170421,0.0019,-0.0004,0.0022,0.019,-0.0013,0.0001,-33.9892,-25.5224,-7.3078,,adl
10.194415,0.0019,-0.0004,0.0022,0.0097,0.004,0.0003,-33.9892,-25.5224,-7.3078,,adl
10.20408,0.0019,-0.0004,0.0022,0.0097,0.004,0.0003,-34.0136,-25.559,-7.3444,,adl
10.205908,0.0035,-0.0058,0.0016,0.0097,0.004,0.0003,-34.0136,-25.559,-7.3444,,adl
10.230647,0.0035,-0.0058,0.0016,0.0097,0.004,0.0003,-34.0136,-25.559,-7.3444,,adl
10.232597,0.0035,-0.0058,0.0016,0.0097,0.004,0.0003,-34.0136,-25.559,-7.3444,,adl
10.234126,0.0035,-0.0058,0.0016,0.0097,0.004,0.0003,-34.0136,-25.559,-7.3444,,adl
10.250459,0.0035,-0.0058,0.0016,0.0097,0.004,0.0003,-33.9526,-25.5468,-7.2834,,adl
10.26418,0.0035,-0.0058,0.0016,0.0192,0.0051,-0.0003,-33.9526,-25.5468,-7.2834,,adl
10.27365,0.0016,0.0233,0.019,0.0192,0.0051,-0.0003,-33.9526,-25.5468,-7.2834,,adl
10.298682,0.0016,0.0233,0.019,0.0192,0.0051,-0.0003,-33.9526,-25.5468,-7.2834,,adl
10.302663,0.0016,0.0233,0.019,0.0192,0.0051,-0.0003,-33.9526,-25.5468,-7.2834,,adl
10.304976,0.0016,0.0233,0.019,0.0192,0.0051,-0.0003,-33.9526,-25.5468,-7.2834,,adl
10.307522,0.0016,0.0233,0.019,0.0192,0.0051,-0.0003,-33.977,-25.5956,-7.3078,,adl
10.333693,0.0016,0.0233,0.019,0.0244,-0.0049,0.0003,-33.977,-25.5956,-7.3078,,adl
10.349735,-0.0085,-0.0242,-0.0201,0.0244,-0.0049,0.0003,-33.977,-25.5956,-7.3078,,adl
10.352104,-0.0085,-0.0242,-0.0201,0.0244,-0.0049,0.0003,-34.038,-25.5834,-7.2956,,adl
10.363413,-0.0085,-0.0242,-0.0201,0.0244,-0.0049,0.0003,-34.038,-25.5834,-7.2956,,adl
10.366766,-0.0085,-0.0242,-0.0201,0.0244,-0.0049,0.0003,-34.038,-25.5834,-7.2956,,adl
10.368751,-0.0085,-0.0242,-0.0201,0.0244,-0.0049,0.0003,-34.038,-25.5834,-7.2956,,adl
10.370986,-0.0085,-0.0242,-0.0201,0.0244,-0.0049,0.0003,-34.038,-25.5834,-7.2956,,adl
10.403205,-0.0085,-0.0242,-0.0201,0.0244,-0.0049,0.0003,-34.0258,-25.5468,-7.3688,,adl
10.406432,-0.0085,-0.0242,-0.0201,0.0107,0.0007,0.0,-34.0258,-25.5468,-7.3688,,adl
10.416714,-0.0002,0.0106,-0.003,0.0107,0.0007,0.0,-34.0258,-25.5468,-7.3688,,adl
10.431219,-0.0002,0.0106,-0.003,0.0107,0.0007,0.0,-34.0258,-25.5468,-7.3688,,adl
10.433746,-0.0002,0.0106,-0.003,0.0107,0.0007,0.0,-34.0258,-25.5468,-7.3688,,adl
10.434846,-0.0002,0.0106,-0.003,0.0107,0.0007,0.0,-34.0258,-25.5468,-7.3688,,adl
10.451044,-0.0002,0.0106,-0.003,0.0107,0.0007,0.0,-34.0014,-25.498,-7.3078,,adl
10.473314,-0.0002,0.0106,-0.003,0.0132,0.0001,0.0003,-34.0014,-25.498,-7.3078,,adl
10.483115,0.0094,-0.0043,0.0001,0.0132,0.0001,0.0003,-34.0014,-25.498,-7.3078,,adl
10.497086,0.0094,-0.0043,0.0001,0.0132,0.0001,0.0003,-34.0014,-25.498,-7.3078,,adl
10.499637,0.0094,-0.0043,0.0001,0.0132,0.0001,0.0003,-34.0014,-25.498,-7.3078,,adl
10.501312,0.0094,-0.0043,0.0001,0.0132,0.0001,0.0003,-34.0014,-25.498,-7.3078,,adl
10.503408,0.0094,-0.0043,0.0001,0.0132,0.0001,0.0003,-34.0014,-25.5224,-7.2468,,adl
10.543378,0.0094,-0.0043,0.0001,0.0079,0.0021,-0.0008,-34.0014,-25.5224,-7.2468,,adl
10.55256,0.0094,-0.0043,0.0001,0.0079,0.0021,-0.0008,-34.0136,-25.5834,-7.2956,,adl
10.555017,0.0007,0.0042,0.0012,0.0079,0.0021,-0.0008,-34.0136,-25.5834,-7.2956,,adl
10.56401,0.0007,0.0042,0.0012,0.0079,0.0021,-0.0008,-34.0136,-25.5834,-7.2956,,adl
10.566307,0.0007,0.0042,0.0012,0.0079,0.0021,-0.0008,-34.0136,-25.5834,-7.2956,,adl
10.567629,0.0007,0.0042,0.0012,0.0079,0.0021,-0.0008,-34.0136,-25.5834,-7.2956,,adl
10.568953,0.0007,0.0042,0.0012,0.0079,0.0021,-0.0008,-34.0136,-25.5834,-7.2956,,adl
10.60293,0.0007,0.0042,0.0012,0.0079,0.0021,-0.0008,-34.0258,-25.5834,-7.2346,,adl
10.612351,0.0007,0.0042,0.0012,0.0079,0.0019,-0.0008,-34.0258,-25.5834,-7.2346,,adl
10.624343,-0.0079,0.0112,-0.001,0.0079,0.0019,-0.0008,-34.0258,-25.5834,-7.2346,,adl
10.629335,-0.0079,0.0112,-0.001,0.0079,0.0019,-0.0008,-34.0258,-25.5834,-7.2346,,adl
10.632999,-0.0079,0.0112,-0.001,0.0079,0.0019,-0.0008,-34.0258,-25.5834,-7.2346,,adl
10.635235,-0.0079,0.0112,-0.001,0.0079,0.0019,-0.0008,-34.0258,-25.5834,-7.2346,,adl
10.651708,-0.0079,0.0112,-0.001,0.0079,0.0019,-0.0008,-34.0624,-25.62,-7.2346,,adl
10.68178,-0.0079,0.0112,-0.001,0.0075,-0.0015,0.0004,-34.0624,-25.62,-7.2346,,adl
10.696208,0.0026,-0.0006,-0.0018,0.0075,-0.0015,0.0004,-34.0624,-25.62,-7.2346,,adl
10.698868,0.0026,-0.0006,-0.0018,0.0075,-0.0015,0.0004,-34.0624,-25.62,-7.2346,,adl
10.701757,0.0026,-0.0006,-0.0018,0.0075,-0.0015,0.0004,-34.0624,-25.62,-7.2346,,adl
10.704459,0.0026,-0.0006,-0.0018,0.0075,-0.0015,0.0004,-34.0624,-25.62,-7.2346,,adl
10.706827,0.0026,-0.0006,-0.0018,0.0075,-0.0015,0.0004,-34.0624,-25.5712,-7.1614,,adl
10.751298,0.0026,-0.0006,-0.0018,0.0073,0.0033,-0.0001,-34.0624,-25.5712,-7.1614,,adl
10.75375,0.0026,-0.0006,-0.0018,0.0073,0.0033,-0.0001,-33.9648,-25.6566,-7.0028,,adl
10.761241,0.0014,0.0007,0.0006,0.0073,0.0033,-0.0001,-33.9648,-25.6566,-7.0028,,adl
10.762955,0.0014,0.0007,0.0006,0.0073,0.0033,-0.0001,-33.9648,-25.6566,-7.0028,,adl
10.764373,0.0014,0.0007,0.0006,0.0073,0.0033,-0.0001,-33.9648,-25.6566,-7.0028,,adl
10.765902,0.0014,0.0007,0.0006,0.0073,0.0033,-0.0001,-33.9648,-25.6566,-7.0028,,adl
10.767265,0.0014,0.0007,0.0006,0.0073,0.0033,-0.0001,-33.9648,-25.6566,-7.0028,,adl
10.803012,0.0014,0.0007,0.0006,0.0073,0.0033,-0.0001,-34.0136,-25.7176,-6.893,,adl
10.821979,0.0014,0.0007,0.0006,0.0052,-0.0004,0.0003,-34.0136,-25.7176,-6.893,,adl
10.83144,0.0012,0.0097,-0.0036,0.0052,-0.0004,0.0003,-34.0136,-25.7176,-6.893,,adl
10.834052,0.0012,0.0097,-0.0036,0.0052,-0.0004,0.0003,-34.0136,-25.7176,-6.893,,adl
10.836151,0.0012,0.0097,-0.0036,0.0052,-0.0004,0.0003,-34.0136,-25.7176,-6.893,,adl
10.838224,0.0012,0.0097,-0.0036,0.0052,-0.0004,0.0003,-34.0136,-25.7176,-6.893,,adl
10.851458,0.0012,0.0097,-0.0036,0.0052,-0.0004,0.0003,-34.0258,-25.742,-6.8686,,adl
10.892203,0.0012,0.0097,-0.0036,0.0053,0.0011,-0.0003,-34.0258,-25.742,-6.8686,,adl
10.895509,0.0012,0.0097,-0.0036,0.0053,0.0011,-0.0003,-34.0258,-25.742,-6.8686,,adl
10.897987,0.0012,0.0097,-0.0036,0.0053,0.0011,-0.0003,-34.0258,-25.742,-6.8686,,adl
10.900133,0.0012,0.0097,-0.0036,0.0053,0.0011,-0.0003,-34.0258,-25.742,-6.8686,,adl
10.902117,-0.0013,-0.0023,-0.0026,0.0053,0.0011,-0.0003,-34.0258,-25.742,-6.8686,,adl
10.903255,-0.0013,-0.0023,-0.0026,0.0053,0.0011,-0.0003,-34.0502,-25.7542,-6.9174,,adl
10.952356,-0.0013,-0.0023,-0.0026,0.0053,0.0011,-0.0003,-34.0624,-25.681,-6.9662,,adl
10.960944,-0.0013,-0.0023,-0.0026,0.0055,0.0001,-0.0001,-34.0624,-25.681,-6.9662,,adl
10.963745,-0.0013,-0.0023,-0.0026,0.0055,0.0001,-0.0001,-34.0624,-25.681,-6.9662,,adl
10.966141,-0.0013,-0.0023,-0.0026,0.0055,0.0001,-0.0001,-34.0624,-25.681,-6.9662,,adl
10.968289,-0.0013,-0.0023,-0.0026,0.0055,0.0001,-0.0001,-34.0624,-25.681,-6.9662,,adl
10.970489,-0.0013,-0.0023,-0.0026,0.0055,0.0001,-0.0001,-34.0624,-25.681,-6.9662,,adl
10.972721,-0.0023,0.0007,-0.0052,0.0055,0.0001,-0.0001,-34.0624,-25.681,-6.9662,,adl
11.000636,-0.0023,0.0007,-0.0052,0.0055,0.0001,-0.0001,-33.9892,-25.7298,-6.893,,adl
11.03077,-0.0023,0.0007,-0.0052,0.0047,-0.0,-0.0004,-33.9892,-25.7298,-6.893,,adl
11.035007,-0.0023,0.0007,-0.0052,0.0047,-0.0,-0.0004,-33.9892,-25.7298,-6.893,,adl
11.037863,-0.0023,0.0007,-0.0052,0.0047,-0.0,-0.0004,-33.9892,-25.7298,-6.893,,adl
11.040288,-0.0023,0.0007,-0.0052,0.0047,-0.0,-0.0004,-33.9892,-25.7298,-6.893,,adl
11.042824,0.0025,0.0029,0.0009,0.0047,-0.0,-0.0004,-33.9892,-25.7298,-6.893,,adl
11.050848,0.0025,0.0029,0.0009,0.0047,-0.0,-0.0004,-33.9648,-25.7786,-6.771,,adl
11.097769,0.0025,0.0029,0.0009,0.0047,-0.0,-0.0004,-33.9648,-25.7786,-6.771,,adl
11.100922,0.0025,0.0029,0.0009,0.0047,-0.0,-0.0004,-33.9648,-25.7786,-6.771,,adl
11.103802,0.0025,0.0029,0.0009,0.0047,-0.0,-0.0004,-33.9648,-25.7786,-6.771,,adl
11.106353,0.0025,0.0029,0.0009,0.0032,0.0008,-0.0003,-33.9648,-25.7786,-6.771,,adl
11.108214,0.0025,0.0029,0.0009,0.0032,0.0008,-0.0003,-33.9282,-25.7664,-6.7466,,adl
11.115445,-0.0029,0.0076,-0.0031,0.0032,0.0008,-0.0003,-33.9282,-25.7664,-6.7466,,adl
11.152552,-0.0029,0.0076,-0.0031,0.0032,0.0008,-0.0003,-34.0502,-25.7176,-6.9296,,adl
11.163774,-0.0029,0.0076,-0.0031,0.0032,0.0008,-0.0003,-34.0502,-25.7176,-6.9296,,adl
11.166489,-0.0029,0.0076,-0.0031,0.0032,0.0008,-0.0003,-34.0502,-25.7176,-6.9296,,adl
11.168667,-0.0029,0.0076,-0.0031,0.0032,0.0008,-0.0003,-34.0502,-25.7176,-6.9296,,adl
11.171021,-0.0029,0.0076,-0.0031,0.0032,0.0008,-0.0003,-34.0502,-25.7176,-6.9296,,adl
11.173083,-0.0029,0.0076,-0.0031,-0.0048,0.0044,-0.0004,-34.0502,-25.7176,-6.9296,,adl
11.181638,-0.0009,-0.0003,-0.0005,-0.0048,0.0044,-0.0004,-34.0502,-25.7176,-6.9296,,adl
11.201855,-0.0009,-0.0003,-0.0005,-0.0048,0.0044,-0.0004,-33.9648,-25.7786,-6.8686,,adl
11.231454,-0.0009,-0.0003,-0.0005,-0.0048,0.0044,-0.0004,-33.9648,-25.7786,-6.8686,,adl
11.235245,-0.0009,-0.0003,-0.0005,-0.0048,0.0044,-0.0004,-33.9648,-25.7786,-6.8686,,adl
11.238055,-0.0009,-0.0003,-0.0005,-0.0048,0.0044,-0.0004,-33.9648,-25.7786,-6.8686,,adl
11.240681,-0.0009,-0.0003,-0.0005,-0.0028,0.0036,-0.0012,-33.9648,-25.7786,-6.8686,,adl
11.25093,-0.0002,0.0014,0.0236,-0.0028,0.0036,-0.0012,-33.9648,-25.7786,-6.8686,,adl
11.254283,-0.0002,0.0014,0.0236,-0.0028,0.0036,-0.0012,-33.977,-25.7786,-6.8808,,adl
11.297683,-0.0002,0.0014,0.0236,-0.0028,0.0036,-0.0012,-33.977,-25.7786,-6.8808,,adl
11.299683,-0.0002,0.0014,0.0236,-0.0028,0.0036,-0.0012,-33.977,-25.7786,-6.8808,,adl
11.301051,-0.0002,0.0014,0.0236,-0.0028,0.0036,-0.0012,-33.977,-25.7786,-6.8808,,adl
11.302781,-0.0002,0.0014,0.0236,-0.0028,0.0036,-0.0012,-33.9892,-25.7176,-6.9052,,adl
11.310586,-0.0002,0.0014,0.0236,-0.0138,-0.0017,-0.0004,-33.9892,-25.7176,-6.9052,,adl
11.319779,-0.0048,0.0165,-0.0197,-0.0138,-0.0017,-0.0004,-33.9892,-25.7176,-6.9052,,adl
11.351747,-0.0048,0.0165,-0.0197,-0.0138,-0.0017,-0.0004,-34.0258,-25.7664,-6.8808,,adl
11.363674,-0.0048,0.0165,-0.0197,-0.0138,-0.0017,-0.0004,-34.0258,-25.7664,-6.8808,,adl
11.366942,-0.0048,0.0165,-0.0197,-0.0138,-0.0017,-0.0004,-34.0258,-25.7664,-6.8808,,adl
11.370107,-0.0048,0.0165,-0.0197,-0.0138,-0.0017,-0.0004,-34.0258,-25.7664,-6.8808,,adl
11.372901,-0.0048,0.0165,-0.0197,-0.0138,-0.0017,-0.0004,-34.0258,-25.7664,-6.8808,,adl
11.380283,-0.0048,0.0165,-0.0197,-0.0129,-0.002,0.0017,-34.0258,-25.7664,-6.8808,,adl
11.390132,0.0103,0.0283,-0.008,-0.0129,-0.002,0.0017,-34.0258,-25.7664,-6.8808,,adl
11.401659,0.0103,0.0283,-0.008,-0.0129,-0.002,0.0017,-34.0624,-25.7908,-6.9052,,adl
11.43056,0.0103,0.0283,-0.008,-0.0129,-0.002,0.0017,-34.0624,-25.7908,-6.9052,,adl
11.433909,0.0103,0.0283,-0.008,-0.0129,-0.002,0.0017,-34.0624,-25.7908,-6.9052,,adl
11.436441,0.0103,0.0283,-0.008,-0.0129,-0.002,0.0017,-34.0624,-25.7908,-6.9052,,adl
11.44808,0.0103,0.0283,-0.008,-0.0076,-0.0005,-0.0017,-34.0624,-25.7908,-6.9052,,adl
11.449956,0.0103,0.0283,-0.008,-0.0076,-0.0005,-0.0017,-34.038,-25.6932,-6.9906,,adl
11.458733,0.0008,-0.0386,0.0034,-0.0076,-0.0005,-0.0017,-34.038,-25.6932,-6.9906,,adl
11.497785,0.0008,-0.0386,0.0034,-0.0076,-0.0005,-0.0017,-34.038,-25.6932,-6.9906,,adl
11.501189,0.0008,-0.0386,0.0034,-0.0076,-0.0005,-0.0017,-34.038,-25.6932,-6.9906,,adl
11.504193,0.0008,-0.0386,0.0034,-0.0076,-0.0005,-0.0017,-34.038,-25.6932,-6.9906,,adl
11.507185,0.0008,-0.0386,0.0034,-0.0076,-0.0005,-0.0017,-34.0746,-25.7176,-7.0882,,adl
11.51934,0.0008,-0.0386,0.0034,-0.0127,0.0025,-0.0019,-34.0746,-25.7176,-7.0882,,adl
11.53217,-0.0039,0.0167,0.0013,-0.0127,0.0025,-0.0019,-34.0746,-25.7176,-7.0882,,adl
11.551786,-0.0039,0.0167,0.0013,-0.0127,0.0025,-0.0019,-34.0746,-25.7176,-7.0272,,adl
11.563716,-0.0039,0.0167,0.0013,-0.0127,0.0025,-0.0019,-34.0746,-25.7176,-7.0272,,adl
11.566949,-0.0039,0.0167,0.0013,-0.0127,0.0025,-0.0019,-34.0746,-25.7176,-7.0272,,adl
11.569936,-0.0039,0.0167,0.0013,-0.0127,0.0025,-0.0019,-34.0746,-25.7176,-7.0272,,adl
11.572393,-0.0039,0.0167,0.0013,-0.0127,0.0025,-0.0019,-34.0746,-25.7176,-7.0272,,adl
11.589107,-0.0039,0.0167,0.0013,-0.0127,-0.0007,0.0003,-34.0746,-25.7176,-7.0272,,adl
11.599603,-0.008,0.0201,0.0018,-0.0127,-0.0007,0.0003,-34.0746,-25.7176,-7.0272,,adl
11.601318,-0.008,0.0201,0.0018,-0.0127,-0.0007,0.0003,-34.1234,-25.7054,-7.0272,,adl
11.630455,-0.008,0.0201,0.0018,-0.0127,-0.0007,0.0003,-34.1234,-25.7054,-7.0272,,adl
11.633009,-0.008,0.0201,0.0018,-0.0127,-0.0007,0.0003,-34.1234,-25.7054,-7.0272,,adl
11.635586,-0.008,0.0201,0.0018,-0.0127,-0.0007,0.0003,-34.1234,-25.7054,-7.0272,,adl
11.651979,-0.008,0.0201,0.0018,-0.0127,-0.0007,0.0003,-34.099,-25.7054,-7.0638,,adl
11.659364,-0.008,0.0201,0.0018,-0.0144,-0.0013,-0.0009,-34.099,-25.7054,-7.0638,,adl
11.670595,0.0008,-0.0104,-0.0057,-0.0144,-0.0013,-0.0009,-34.099,-25.7054,-7.0638,,adl
11.696311,0.0008,-0.0104,-0.0057,-0.0144,-0.0013,-0.0009,-34.099,-25.7054,-7.0638,,adl
11.698558,0.0008,-0.0104,-0.0057,-0.0144,-0.0013,-0.0009,-34.099,-25.7054,-7.0638,,adl
11.700028,0.0008,-0.0104,-0.0057,-0.0144,-0.0013,-0.0009,-34.099,-25.7054,-7.0638,,adl
11.701685,0.0008,-0.0104,-0.0057,-0.0144,-0.0013,-0.0009,-33.9892,-25.7908,-7.0028,,adl
11.728841,0.0008,-0.0104,-0.0057,-0.0162,0.0008,-0.0007,-33.9892,-25.7908,-7.0028,,adl
11.745947,0.0081,0.0119,0.005,-0.0162,0.0008,-0.0007,-33.9892,-25.7908,-7.0028,,adl
11.755293,0.0081,0.0119,0.005,-0.0162,0.0008,-0.0007,-34.0014,-25.742,-6.9784,,adl
11.762225,0.0081,0.0119,0.005,-0.0162,0.0008,-0.0007,-34.0014,-25.742,-6.9784,,adl
11.764778,0.0081,0.0119,0.005,-0.0162,0.0008,-0.0007,-34.0014,-25.742,-6.9784,,adl
11.766986,0.0081,0.0119,0.005,-0.0162,0.0008,-0.0007,-34.0014,-25.742,-6.9784,,adl
11.768639,0.0081,0.0119,0.005,-0.0162,0.0008,-0.0007,-34.0014,-25.742,-6.9784,,adl
11.798775,0.0081,0.0119,0.005,-0.0099,-0.0025,0.0,-34.0014,-25.742,-6.9784,,adl
11.802829,0.0081,0.0119,0.005,-0.0099,-0.0025,0.0,-33.9648,-25.7176,-7.0882,,adl
11.812802,-0.0046,0.0053,-0.004,-0.0099,-0.0025,0.0,-33.9648,-25.7176,-7.0882,,adl
11.829846,-0.0046,0.0053,-0.004,-0.0099,-0.0025,0.0,-33.9648,-25.7176,-7.0882,,adl
11.831522,-0.0046,0.0053,-0.004,-0.0099,-0.0025,0.0,-33.9648,-25.7176,-7.0882,,adl
11.832985,-0.0046,0.0053,-0.004,-0.0099,-0.0025,0.0,-33.9648,-25.7176,-7.0882,,adl
11.850865,-0.0046,0.0053,-0.004,-0.0099,-0.0025,0.0,-33.9892,-25.7786,-7.0516,,adl
11.868232,-0.0046,0.0053,-0.004,0.0052,-0.0011,0.0015,-33.9892,-25.7786,-7.0516,,adl
11.878863,-0.005,-0.007,-0.0032,0.0052,-0.0011,0.0015,-33.9892,-25.7786,-7.0516,,adl
11.896247,-0.005,-0.007,-0.0032,0.0052,-0.0011,0.0015,-33.9892,-25.7786,-7.0516,,adl
11.898166,-0.005,-0.007,-0.0032,0.0052,-0.0011,0.0015,-33.9892,-25.7786,-7.0516,,adl
11.899267,-0.005,-0.007,-0.0032,0.0052,-0.0011,0.0015,-33.9892,-25.7786,-7.0516,,adl
11.900415,-0.005,-0.007,-0.0032,0.0052,-0.0011,0.0015,-33.9892,-25.7786,-7.0516,,adl
11.901728,-0.005,-0.007,-0.0032,0.0052,-0.0011,0.0015,-34.0014,-25.7664,-7.0516,,adl
11.940236,-0.005,-0.007,-0.0032,0.0128,0.0003,-0.0009,-34.0014,-25.7664,-7.0516,,adl
11.948517,0.0125,-0.0218,-0.0049,0.0128,0.0003,-0.0009,-34.0014,-25.7664,-7.0516,,adl
11.951777,0.0125,-0.0218,-0.0049,0.0128,0.0003,-0.0009,-34.0014,-25.742,-7.1126,,adl
11.963418,0.0125,-0.0218,-0.0049,0.0128,0.0003,-0.0009,-34.0014,-25.742,-7.1126,,adl
11.965737,0.0125,-0.0218,-0.0049,0.0128,0.0003,-0.0009,-34.0014,-25.742,-7.1126,,adl
11.967665,0.0125,-0.0218,-0.0049,0.0128,0.0003,-0.0009,-34.0014,-25.742,-7.1126,,adl
12.00206,0.0125,-0.0218,-0.0049,0.0128,0.0003,-0.0009,-34.0136,-25.6932,-7.1126,,adl
12.008176,0.0125,-0.0218,-0.0049,0.0097,0.0027,-0.0011,-34.0136,-25.6932,-7.1126,,adl
12.019518,0.0028,-0.0084,0.0014,0.0097,0.0027,-0.0011,-34.0136,-25.6932,-7.1126,,adl
12.030162,0.0028,-0.0084,0.0014,0.0097,0.0027,-0.0011,-34.0136,-25.6932,-7.1126,,adl
12.031811,0.0028,-0.0084,0.0014,0.0097,0.0027,-0.0011,-34.0136,-25.6932,-7.1126,,adl
12.03317,0.0028,-0.0084,0.0014,0.0097,0.0027,-0.0011,-34.0136,-25.6932,-7.1126,,adl
12.050403,0.0028,-0.0084,0.0014,0.0097,0.0027,-0.0011,-34.0014,-25.7054,-7.0638,,adl
12.078438,0.0028,-0.0084,0.0014,-0.0012,0.0035,-0.0007,-34.0014,-25.7054,-7.0638,,adl
12.090883,-0.0026,0.0257,0.0027,-0.0012,0.0035,-0.0007,-34.0014,-25.7054,-7.0638,,adl
12.100354,-0.0026,0.0257,0.0027,-0.0012,0.0035,-0.0007,-34.0014,-25.7054,-7.0638,,adl
12.103189,-0.0026,0.0257,0.0027,-0.0012,0.0035,-0.0007,-34.0014,-25.7054,-7.0638,,adl
12.104818,-0.0026,0.0257,0.0027,-0.0012,0.0035,-0.0007,-34.0014,-25.7054,-7.0638,,adl
12.106312,-0.0026,0.0257,0.0027,-0.0012,0.0035,-0.0007,-34.0014,-25.7054,-7.0638,,adl
12.107535,-0.0026,0.0257,0.0027,-0.0012,0.0035,-0.0007,-34.0502,-25.6322,-7.1248,,adl
12.148115,-0.0026,0.0257,0.0027,0.0136,-0.0004,-0.0007,-34.0502,-25.6322,-7.1248,,adl
12.151825,-0.0026,0.0257,0.0027,0.0136,-0.0004,-0.0007,-34.0136,-25.6322,-7.1492,,adl
12.163962,0.0002,-0.0196,0.0076,0.0136,-0.0004,-0.0007,-34.0136,-25.6322,-7.1492,,adl
12.165116,0.0002,-0.0196,0.0076,0.0136,-0.0004,-0.0007,-34.0136,-25.6322,-7.1492,,adl
12.166292,0.0002,-0.0196,0.0076,0.0136,-0.0004,-0.0007,-34.0136,-25.6322,-7.1492,,adl
12.167142,0.0002,-0.0196,0.0076,0.0136,-0.0004,-0.0007,-34.0136,-25.6322,-7.1492,,adl
12.200794,0.0002,-0.0196,0.0076,0.0136,-0.0004,-0.0007,-34.0258,-25.5712,-7.1492,,adl
12.217278,0.0002,-0.0196,0.0076,0.0017,0.0032,-0.0011,-34.0258,-25.5712,-7.1492,,adl
12.227097,-0.0112,-0.0181,-0.0031,0.0017,0.0032,-0.0011,-34.0258,-25.5712,-7.1492,,adl
12.229679,-0.0112,-0.0181,-0.0031,0.0017,0.0032,-0.0011,-34.0258,-25.5712,-7.1492,,adl
12.231782,-0.0112,-0.0181,-0.0031,0.0017,0.0032,-0.0011,-34.0258,-25.5712,-7.1492,,adl
12.233953,-0.0112,-0.0181,-0.0031,0.0017,0.0032,-0.0011,-34.0258,-25.5712,-7.1492,,adl
12.251871,-0.0112,-0.0181,-0.0031,0.0017,0.0032,-0.0011,-33.9648,-25.5346,-7.2346,,adl
12.286772,-0.0112,-0.0181,-0.0031,-0.0027,-0.004,0.0013,-33.9648,-25.5346,-7.2346,,adl
12.30348,0.0155,0.034,-0.0007,-0.0027,-0.004,0.0013,-33.9648,-25.5346,-7.2346,,adl
12.306682,0.0155,0.034,-0.0007,-0.0027,-0.004,0.0013,-33.9648,-25.5346,-7.2346,,adl
12.309096,0.0155,0.034,-0.0007,-0.0027,-0.004,0.0013,-33.9648,-25.5346,-7.2346,,adl
12.312028,0.0155,0.034,-0.0007,-0.0027,-0.004,0.0013,-33.9648,-25.5346,-7.2346,,adl
12.315462,0.0155,0.034,-0.0007,-0.0027,-0.004,0.0013,-33.9648,-25.5346,-7.2346,,adl
12.318232,0.0155,0.034,-0.0007,-0.0027,-0.004,0.0013,-33.9282,-25.5102,-7.2712,,adl
12.35232,0.0155,0.034,-0.0007,-0.0027,-0.004,0.0013,-33.9038,-25.5224,-7.2224,,adl
12.355496,0.0155,0.034,-0.0007,0.0016,-0.0007,0.0004,-33.9038,-25.5224,-7.2224,,adl
12.369552,0.0155,0.034,-0.0007,0.0016,-0.0007,0.0004,-33.9038,-25.5224,-7.2224,,adl
12.371715,0.0155,0.034,-0.0007,0.0016,-0.0007,0.0004,-33.9038,-25.5224,-7.2224,,adl
12.373823,0.0155,0.034,-0.0007,0.0016,-0.0007,0.0004,-33.9038,-25.5224,-7.2224,,adl
12.37601,-0.0085,-0.0184,-0.0047,0.0016,-0.0007,0.0004,-33.9038,-25.5224,-7.2224,,adl
12.401794,-0.0085,-0.0184,-0.0047,0.0016,-0.0007,0.0004,-33.8916,-25.5468,-7.2834,,adl
12.427035,-0.0085,-0.0184,-0.0047,-0.0013,0.0017,-0.0007,-33.8916,-25.5468,-7.2834,,adl
12.430417,-0.0085,-0.0184,-0.0047,-0.0013,0.0017,-0.0007,-33.8916,-25.5468,-7.2834,,adl
12.432815,-0.0085,-0.0184,-0.0047,-0.0013,0.0017,-0.0007,-33.8916,-25.5468,-7.2834,,adl
12.435271,-0.0085,-0.0184,-0.0047,-0.0013,0.0017,-0.0007,-33.8916,-25.5468,-7.2834,,adl
12.437848,-0.0038,-0.0104,0.0045,-0.0013,0.0017,-0.0007,-33.8916,-25.5468,-7.2834,,adl
12.451074,-0.0038,-0.0104,0.0045,-0.0013,0.0017,-0.0007,-33.8916,-25.5834,-7.2102,,adl
12.496431,-0.0038,-0.0104,0.0045,-0.0012,-0.0013,0.0,-33.8916,-25.5834,-7.2102,,adl
12.499132,-0.0038,-0.0104,0.0045,-0.0012,-0.0013,0.0,-33.8916,-25.5834,-7.2102,,adl
12.500453,-0.0038,-0.0104,0.0045,-0.0012,-0.0013,0.0,-33.8916,-25.5834,-7.2102,,adl
12.501803,-0.0038,-0.0104,0.0045,-0.0012,-0.0013,0.0,-33.8916,-25.5834,-7.2102,,adl
12.503106,-0.0038,-0.0104,0.0045,-0.0012,-0.0013,0.0,-33.8916,-25.5834,-7.2102,,adl
12.505053,-0.0038,-0.0104,0.0045,-0.0012,-0.0013,0.0,-33.9282,-25.6688,-7.076,,adl
12.506444,0.0027,0.0161,0.0017,-0.0012,-0.0013,0.0,-33.9282,-25.6688,-7.076,,adl
12.552374,0.0027,0.0161,0.0017,-0.0012,-0.0013,0.0,-33.9282,-25.7176,-7.0028,,adl
12.566494,0.0027,0.0161,0.0017,-0.0012,-0.0013,0.0,-33.9282,-25.7176,-7.0028,,adl
12.56971,0.0027,0.0161,0.0017,-0.0012,-0.0013,0.0,-33.9282,-25.7176,-7.0028,,adl
12.572426,0.0027,0.0161,0.0017,-0.0012,-0.0013,0.0,-33.9282,-25.7176,-7.0028,,adl
12.575227,0.0027,0.0161,0.0017,-0.0023,0.0003,-0.0007,-33.9282,-25.7176,-7.0028,,adl
12.57781,0.0011,-0.0053,-0.0001,-0.0023,0.0003,-0.0007,-33.9282,-25.7176,-7.0028,,adl
12.600213,0.0011,-0.0053,-0.0001,-0.0023,0.0003,-0.0007,-33.9526,-25.7176,-6.9296,,adl
12.630486,0.0011,-0.0053,-0.0001,-0.0023,0.0003,-0.0007,-33.9526,-25.7176,-6.9296,,adl
12.633372,0.0011,-0.0053,-0.0001,-0.0023,0.0003,-0.0007,-33.9526,-25.7176,-6.9296,,adl
12.63592,0.0011,-0.0053,-0.0001,-0.0023,0.0003,-0.0007,-33.9526,-25.7176,-6.9296,,adl
12.638447,0.0011,-0.0053,-0.0001,-0.0013,-0.0013,0.0009,-33.9526,-25.7176,-6.9296,,adl
12.645714,0.0004,0.0001,-0.0009,-0.0013,-0.0013,0.0009,-33.9526,-25.7176,-6.9296,,adl
12.651377,0.0004,0.0001,-0.0009,-0.0013,-0.0013,0.0009,-34.0868,-25.6688,-6.954,,adl
12.697438,0.0004,0.0001,-0.0009,-0.0013,-0.0013,0.0009,-34.0868,-25.6688,-6.954,,adl
12.700652,0.0004,0.0001,-0.0009,-0.0013,-0.0013,0.0009,-34.0868,-25.6688,-6.954,,adl
12.703199,0.0004,0.0001,-0.0009,-0.0013,-0.0013,0.0009,-34.0868,-25.6688,-6.954,,adl
12.705626,0.0004,0.0001,-0.0009,-0.0013,-0.0013,0.0009,-34.0868,-25.6688,-6.954,,adl
12.70802,0.0004,0.0001,-0.0009,-0.0013,-0.0013,0.0009,-34.1112,-25.6444,-6.9662,,adl
12.710705,0.0004,0.0001,-0.0009,-0.0048,-0.0009,-0.0003,-34.1112,-25.6444,-6.9662,,adl
12.717213,-0.0038,0.0022,0.0002,-0.0048,-0.0009,-0.0003,-34.1112,-25.6444,-6.9662,,adl
12.752199,-0.0038,0.0022,0.0002,-0.0048,-0.0009,-0.0003,-34.0868,-25.6566,-6.954,,adl
12.763797,-0.0038,0.0022,0.0002,-0.0048,-0.0009,-0.0003,-34.0868,-25.6566,-6.954,,adl
12.76574,-0.0038,0.0022,0.0002,-0.0048,-0.0009,-0.0003,-34.0868,-25.6566,-6.954,,adl
12.767456,-0.0038,0.0022,0.0002,-0.0048,-0.0009,-0.0003,-34.0868,-25.6566,-6.954,,adl
12.774677,-0.0038,0.0022,0.0002,-0.0031,0.0003,-0.0008,-34.0868,-25.6566,-6.954,,adl
12.783875,-0.0059,0.0,0.002,-0.0031,0.0003,-0.0008,-34.0868,-25.6566,-6.954,,adl
12.800043,-0.0059,0.0,0.002,-0.0031,0.0003,-0.0008,-34.0624,-25.62,-6.9296,,adl
12.830673,-0.0059,0.0,0.002,-0.0031,0.0003,-0.0008,-34.0624,-25.62,-6.9296,,adl
12.834783,-0.0059,0.0,0.002,-0.0031,0.0003,-0.0008,-34.0624,-25.62,-6.9296,,adl
12.837199,-0.0059,0.0,0.002,-0.0031,0.0003,-0.0008,-34.0624,-25.62,-6.9296,,adl
12.845933,-0.0059,0.0,0.002,-0.0044,-0.0007,-0.0008,-34.0624,-25.62,-6.9296,,adl
12.85177,-0.0059,0.0,0.002,-0.0044,-0.0007,-0.0008,-34.0502,-25.5834,-7.015,,adl
12.854949,0.0031,0.0008,-0.0028,-0.0044,-0.0007,-0.0008,-34.0502,-25.5834,-7.015,,adl
12.897975,0.0031,0.0008,-0.0028,-0.0044,-0.0007,-0.0008,-34.0502,-25.5834,-7.015,,adl
12.901591,0.0031,0.0008,-0.0028,-0.0044,-0.0007,-0.0008,-34.0502,-25.5834,-7.015,,adl
12.904317,0.0031,0.0008,-0.0028,-0.0044,-0.0007,-0.0008,-34.0502,-25.5834,-7.015,,adl
12.907226,0.0031,0.0008,-0.0028,-0.0044,-0.0007,-0.0008,-34.0502,-25.5834,-7.015,,adl
12.910203,0.0031,0.0008,-0.0028,-0.0044,-0.0007,-0.0008,-34.0624,-25.5346,-7.0516,,adl
12.915389,0.0031,0.0008,-0.0028,-0.0085,-0.0021,-0.0013,-34.0624,-25.5346,-7.0516,,adl
12.924249,0.0128,0.004,-0.0049,-0.0085,-0.0021,-0.0013,-34.0624,-25.5346,-7.0516,,adl
12.951174,0.0128,0.004,-0.0049,-0.0085,-0.0021,-0.0013,-34.0624,-25.4858,-7.0638,,adl
12.964267,0.0128,0.004,-0.0049,-0.0085,-0.0021,-0.0013,-34.0624,-25.4858,-7.0638,,adl
12.967751,0.0128,0.004,-0.0049,-0.0085,-0.0021,-0.0013,-34.0624,-25.4858,-7.0638,,adl
12.970724,0.0128,0.004,-0.0049,-0.0085,-0.0021,-0.0013,-34.0624,-25.4858,-7.0638,,adl
12.984508,0.0128,0.004,-0.0049,-0.0077,0.0076,-0.0004,-34.0624,-25.4858,-7.0638,,adl
12.994611,-0.0069,0.0255,-0.0,-0.0077,0.0076,-0.0004,-34.0624,-25.4858,-7.0638,,adl
13.002084,-0.0069,0.0255,-0.0,-0.0077,0.0076,-0.0004,-34.0624,-25.5224,-7.1614,,adl
13.030874,-0.0069,0.0255,-0.0,-0.0077,0.0076,-0.0004,-34.0624,-25.5224,-7.1614,,adl
13.034286,-0.0069,0.0255,-0.0,-0.0077,0.0076,-0.0004,-34.0624,-25.5224,-7.1614,,adl
13.036984,-0.0069,0.0255,-0.0,-0.0077,0.0076,-0.0004,-34.0624,-25.5224,-7.1614,,adl
13.052564,-0.0069,0.0255,-0.0,-0.0077,0.0076,-0.0004,-34.0258,-25.5834,-7.1248,,adl
13.056144,-0.0069,0.0255,-0.0,0.0103,-0.0057,0.0025,-34.0258,-25.5834,-7.1248,,adl
13.06532,0.0092,-0.0486,0.0128,0.0103,-0.0057,0.0025,-34.0258,-25.5834,-7.1248,,adl
13.097064,0.0092,-0.0486,0.0128,0.0103,-0.0057,0.0025,-34.0258,-25.5834,-7.1248,,adl
13.09932,0.0092,-0.0486,0.0128,0.0103,-0.0057,0.0025,-34.0258,-25.5834,-7.1248,,adl
13.100469,0.0092,-0.0486,0.0128,0.0103,-0.0057,0.0025,-34.0258,-25.5834,-7.1248,,adl
13.101826,0.0092,-0.0486,0.0128,0.0103,-0.0057,0.0025,-34.0258,-25.5834,-7.1248,,adl
13.102982,0.0092,-0.0486,0.0128,0.0103,-0.0057,0.0025,-34.0258,-25.5712,-7.0882,,adl
13.122735,0.0092,-0.0486,0.0128,-0.0091,0.0021,0.0001,-34.0258,-25.5712,-7.0882,,adl
13.13983,-0.0371,0.0349,-0.0082,-0.0091,0.0021,0.0001,-34.0258,-25.5712,-7.0882,,adl
13.151824,-0.0371,0.0349,-0.0082,-0.0091,0.0021,0.0001,-34.0258,-25.5468,-7.1858,,adl
13.162877,-0.0371,0.0349,-0.0082,-0.0091,0.0021,0.0001,-34.0258,-25.5468,-7.1858,,adl
13.165976,-0.0371,0.0349,-0.0082,-0.0091,0.0021,0.0001,-34.0258,-25.5468,-7.1858,,adl
13.167981,-0.0371,0.0349,-0.0082,-0.0091,0.0021,0.0001,-34.0258,-25.5468,-7.1858,,adl
13.192525,-0.0371,0.0349,-0.0082,0.002,-0.0,-0.0024,-34.0258,-25.5468,-7.1858,,adl
13.206415,-0.0371,0.0349,-0.0082,0.002,-0.0,-0.0024,-34.0502,-25.5834,-7.1248,,adl
13.208828,0.0474,-0.0219,-0.0026,0.002,-0.0,-0.0024,-34.0502,-25.5834,-7.1248,,adl
13.230068,0.0474,-0.0219,-0.0026,0.002,-0.0,-0.0024,-34.0502,-25.5834,-7.1248,,adl
13.231601,0.0474,-0.0219,-0.0026,0.002,-0.0,-0.0024,-34.0502,-25.5834,-7.1248,,adl
13.232506,0.0474,-0.0219,-0.0026,0.002,-0.0,-0.0024,-34.0502,-25.5834,-7.1248,,adl
13.252904,0.0474,-0.0219,-0.0026,0.002,-0.0,-0.0024,-34.0258,-25.559,-7.1614,,adl
13.263382,0.0474,-0.0219,-0.0026,-0.0025,-0.0011,0.0017,-34.0258,-25.559,-7.1614,,adl
13.274612,-0.0178,0.0088,0.004,-0.0025,-0.0011,0.0017,-34.0258,-25.559,-7.1614,,adl
13.296555,-0.0178,0.0088,0.004,-0.0025,-0.0011,0.0017,-34.0258,-25.559,-7.1614,,adl
13.299081,-0.0178,0.0088,0.004,-0.0025,-0.0011,0.0017,-34.0258,-25.559,-7.1614,,adl
13.300846,-0.0178,0.0088,0.004,-0.0025,-0.0011,0.0017,-34.0258,-25.559,-7.1614,,adl
13.303062,-0.0178,0.0088,0.004,-0.0025,-0.0011,0.0017,-34.0258,-25.559,-7.1614,,adl
13.305122,-0.0178,0.0088,0.004,-0.0025,-0.0011,0.0017,-33.9892,-25.5956,-7.1858,,adl
13.331929,-0.0178,0.0088,0.004,-0.0003,0.0005,0.0004,-33.9892,-25.5956,-7.1858,,adl
13.341687,-0.0004,-0.0057,-0.0041,-0.0003,0.0005,0.0004,-33.9892,-25.5956,-7.1858,,adl
13.350503,-0.0004,-0.0057,-0.0041,-0.0003,0.0005,0.0004,-33.977,-25.62,-7.198,,adl
13.362738,-0.0004,-0.0057,-0.0041,-0.0003,0.0005,0.0004,-33.977,-25.62,-7.198,,adl
13.364602,-0.0004,-0.0057,-0.0041,-0.0003,0.0005,0.0004,-33.977,-25.62,-7.198,,adl
13.36628,-0.0004,-0.0057,-0.0041,-0.0003,0.0005,0.0004,-33.977,-25.62,-7.198,,adl
13.402634,-0.0004,-0.0057,-0.0041,-0.0039,-0.0,0.0007,-33.977,-25.62,-7.198,,adl
13.40453,-0.0004,-0.0057,-0.0041,-0.0039,-0.0,0.0007,-33.977,-25.6566,-7.2102,,adl
13.41852,-0.0048,0.0087,-0.0061,-0.0039,-0.0,0.0007,-33.977,-25.6566,-7.2102,,adl
13.430909,-0.0048,0.0087,-0.0061,-0.0039,-0.0,0.0007,-33.977,-25.6566,-7.2102,,adl
13.434,-0.0048,0.0087,-0.0061,-0.0039,-0.0,0.0007,-33.977,-25.6566,-7.2102,,adl
13.435517,-0.0048,0.0087,-0.0061,-0.0039,-0.0,0.0007,-33.977,-25.6566,-7.2102,,adl
13.450816,-0.0048,0.0087,-0.0061,-0.0039,-0.0,0.0007,-33.9282,-25.6322,-7.2102,,adl
13.471365,-0.0048,0.0087,-0.0061,-0.0021,0.0011,-0.0017,-33.9282,-25.6322,-7.2102,,adl
13.484095,0.0133,0.0016,0.0093,-0.0021,0.0011,-0.0017,-33.9282,-25.6322,-7.2102,,adl
13.495542,0.0133,0.0016,0.0093,-0.0021,0.0011,-0.0017,-33.9282,-25.6322,-7.2102,,adl
13.497765,0.0133,0.0016,0.0093,-0.0021,0.0011,-0.0017,-33.9282,-25.6322,-7.2102,,adl
13.499127,0.0133,0.0016,0.0093,-0.0021,0.0011,-0.0017,-33.9282,-25.6322,-7.2102,,adl
13.500477,0.0133,0.0016,0.0093,-0.0021,0.0011,-0.0017,-33.9282,-25.6322,-7.2102,,adl
13.502006,0.0133,0.0016,0.0093,-0.0021,0.0011,-0.0017,-33.9404,-25.742,-7.1736,,adl
13.542988,0.0133,0.0016,0.0093,-0.0063,0.0012,0.0001,-33.9404,-25.742,-7.1736,,adl
13.553227,-0.0119,-0.0042,-0.006,-0.0063,0.0012,0.0001,-33.9404,-25.742,-7.1736,,adl
13.555354,-0.0119,-0.0042,-0.006,-0.0063,0.0012,0.0001,-33.9526,-25.7786,-7.137,,adl
13.563657,-0.0119,-0.0042,-0.006,-0.0063,0.0012,0.0001,-33.9526,-25.7786,-7.137,,adl
13.565794,-0.0119,-0.0042,-0.006,-0.0063,0.0012,0.0001,-33.9526,-25.7786,-7.137,,adl
13.567025,-0.0119,-0.0042,-0.006,-0.0063,0.0012,0.0001,-33.9526,-25.7786,-7.137,,adl
13.603002,-0.0119,-0.0042,-0.006,-0.0063,0.0012,0.0001,-34.0136,-25.7542,-7.198,,adl
13.612248,-0.0119,-0.0042,-0.006,-0.0017,0.0027,-0.0011,-34.0136,-25.7542,-7.198,,adl
13.622138,-0.0017,0.0046,0.0039,-0.0017,0.0027,-0.0011,-34.0136,-25.7542,-7.198,,adl
13.6304,-0.0017,0.0046,0.0039,-0.0017,0.0027,-0.0011,-34.0136,-25.7542,-7.198,,adl
13.63168,-0.0017,0.0046,0.0039,-0.0017,0.0027,-0.0011,-34.0136,-25.7542,-7.198,,adl
13.632587,-0.0017,0.0046,0.0039,-0.0017,0.0027,-0.0011,-34.0136,-25.7542,-7.198,,adl
13.65162,-0.0017,0.0046,0.0039,-0.0017,0.0027,-0.0011,-34.099,-25.7664,-7.1492,,adl
13.68199,-0.0017,0.0046,0.0039,-0.0027,0.0154,-0.0029,-34.099,-25.7664,-7.1492,,adl
13.693113,0.0102,-0.0052,0.001,-0.0027,0.0154,-0.0029,-34.099,-25.7664,-7.1492,,adl
13.696351,0.0102,-0.0052,0.001,-0.0027,0.0154,-0.0029,-34.099,-25.7664,-7.1492,,adl
13.699521,0.0102,-0.0052,0.001,-0.0027,0.0154,-0.0029,-34.099,-25.7664,-7.1492,,adl
13.702215,0.0102,-0.0052,0.001,-0.0027,0.0154,-0.0029,-34.099,-25.7664,-7.1492,,adl
13.704733,0.0102,-0.0052,0.001,-0.0027,0.0154,-0.0029,-34.099,-25.7664,-7.1492,,adl
13.707628,0.0102,-0.0052,0.001,-0.0027,0.0154,-0.0029,-34.1722,-25.7054,-7.2346,,adl
13.75193,0.0102,-0.0052,0.001,-0.0027,0.0154,-0.0029,-34.1966,-25.7298,-7.3078,,adl
13.756632,0.0102,-0.0052,0.001,-0.0025,0.0129,-0.0043,-34.1966,-25.7298,-7.3078,,adl
13.762677,0.0248,-0.004,-0.0077,-0.0025,0.0129,-0.0043,-34.1966,-25.7298,-7.3078,,adl
13.766096,0.0248,-0.004,-0.0077,-0.0025,0.0129,-0.0043,-34.1966,-25.7298,-7.3078,,adl
13.76897,0.0248,-0.004,-0.0077,-0.0025,0.0129,-0.0043,-34.1966,-25.7298,-7.3078,,adl
13.770974,0.0248,-0.004,-0.0077,-0.0025,0.0129,-0.0043,-34.1966,-25.7298,-7.3078,,adl
13.802522,0.0248,-0.004,-0.0077,-0.0025,0.0129,-0.0043,-34.1722,-25.681,-7.3078,,adl
13.82175,0.0248,-0.004,-0.0077,-0.0003,0.0059,0.0008,-34.1722,-25.681,-7.3078,,adl
13.832791,-0.0234,-0.015,0.0166,-0.0003,0.0059,0.0008,-34.1722,-25.681,-7.3078,,adl
13.836427,-0.0234,-0.015,0.0166,-0.0003,0.0059,0.0008,-34.1722,-25.681,-7.3078,,adl
13.839841,-0.0234,-0.015,0.0166,-0.0003,0.0059,0.0008,-34.1722,-25.681,-7.3078,,adl
13.841909,-0.0234,-0.015,0.0166,-0.0003,0.0059,0.0008,-34.1722,-25.681,-7.3078,,adl
13.843003,-0.0234,-0.015,0.0166,-0.0003,0.0059,0.0008,-34.1722,-25.681,-7.3078,,adl
13.849612,-0.0234,-0.015,0.0166,-0.0003,0.0059,0.0008,-34.221,-25.6444,-7.3566,,adl
13.891919,-0.0234,-0.015,0.0166,0.0032,0.0011,-0.0007,-34.221,-25.6444,-7.3566,,adl
13.895475,-0.0234,-0.015,0.0166,0.0032,0.0011,-0.0007,-34.221,-25.6444,-7.3566,,adl
13.897802,-0.0234,-0.015,0.0166,0.0032,0.0011,-0.0007,-34.221,-25.6444,-7.3566,,adl
13.899862,-0.0234,-0.015,0.0166,0.0032,0.0011,-0.0007,-34.221,-25.6444,-7.3566,,adl
13.90207,-0.0234,-0.015,0.0166,0.0032,0.0011,-0.0007,-34.2332,-25.6078,-7.381,,adl
13.903836,0.0111,0.0461,0.0141,0.0032,0.0011,-0.0007,-34.2332,-25.6078,-7.381,,adl
13.95118,0.0111,0.0461,0.0141,0.0032,0.0011,-0.0007,-34.221,-25.6322,-7.3688,,adl
13.960737,0.0111,0.0461,0.0141,0.0085,0.0004,-0.0011,-34.221,-25.6322,-7.3688,,adl
13.963974,0.0111,0.0461,0.0141,0.0085,0.0004,-0.0011,-34.221,-25.6322,-7.3688,,adl
13.9661,0.0111,0.0461,0.0141,0.0085,0.0004,-0.0011,-34.221,-25.6322,-7.3688,,adl
13.968038,0.0111,0.0461,0.0141,0.0085,0.0004,-0.0011,-34.221,-25.6322,-7.3688,,adl
13.972019,-0.0032,-0.0525,-0.0292,0.0085,0.0004,-0.0011,-34.221,-25.6322,-7.3688,,adl
14.002465,-0.0032,-0.0525,-0.0292,0.0085,0.0004,-0.0011,-34.1112,-25.7542,-7.2834,,adl
14.030827,-0.0032,-0.0525,-0.0292,-0.0012,-0.0043,0.0031,-34.1112,-25.7542,-7.2834,,adl
14.034668,-0.0032,-0.0525,-0.0292,-0.0012,-0.0043,0.0031,-34.1112,-25.7542,-7.2834,,adl
14.037144,-0.0032,-0.0525,-0.0292,-0.0012,-0.0043,0.0031,-34.1112,-25.7542,-7.2834,,adl
14.039695,-0.0032,-0.0525,-0.0292,-0.0012,-0.0043,0.0031,-34.1112,-25.7542,-7.2834,,adl
14.042325,-0.0032,-0.0525,-0.0292,-0.0012,-0.0043,0.0031,-34.1112,-25.7542,-7.2834,,adl
14.044938,-0.0058,0.0358,0.012,-0.0012,-0.0043,0.0031,-34.1112,-25.7542,-7.2834,,adl
14.052722,-0.0058,0.0358,0.012,-0.0012,-0.0043,0.0031,-34.038,-25.7786,-7.2346,,adl
14.096112,-0.0058,0.0358,0.012,-0.0012,-0.0043,0.0031,-34.038,-25.7786,-7.2346,,adl
14.099172,-0.0058,0.0358,0.012,-0.0012,-0.0043,0.0031,-34.038,-25.7786,-7.2346,,adl
14.101247,-0.0058,0.0358,0.012,-0.0012,-0.0043,0.0031,-34.038,-25.7786,-7.2346,,adl
14.103407,-0.0058,0.0358,0.012,-0.0012,-0.0043,0.0031,-33.9282,-25.8518,-7.1126,,adl
14.105775,-0.0058,0.0358,0.012,-0.016,-0.0048,0.0012,-33.9282,-25.8518,-7.1126,,adl
14.11008,0.0016,-0.0137,-0.0027,-0.016,-0.0048,0.0012,-33.9282,-25.8518,-7.1126,,adl
14.152423,0.0016,-0.0137,-0.0027,-0.016,-0.0048,0.0012,-33.8794,-25.8152,-7.0882,,adl
14.163931,0.0016,-0.0137,-0.0027,-0.016,-0.0048,0.0012,-33.8794,-25.8152,-7.0882,,adl
14.167358,0.0016,-0.0137,-0.0027,-0.016,-0.0048,0.0012,-33.8794,-25.8152,-7.0882,,adl
14.170078,0.0016,-0.0137,-0.0027,-0.016,-0.0048,0.0012,-33.8794,-25.8152,-7.0882,,adl
14.172506,0.0016,-0.0137,-0.0027,-0.2081,0.0129,-0.0213,-33.8794,-25.8152,-7.0882,,adl
14.180564,-0.0077,0.0675,0.0176,-0.2081,0.0129,-0.0213,-33.8794,-25.8152,-7.0882,,adl
14.201699,-0.0077,0.0675,0.0176,-0.2081,0.0129,-0.0213,-33.8428,-25.803,-7.1126,,adl
14.23045,-0.0077,0.0675,0.0176,-0.2081,0.0129,-0.0213,-33.8428,-25.803,-7.1126,,adl
14.23379,-0.0077,0.0675,0.0176,-0.2081,0.0129,-0.0213,-33.8428,-25.803,-7.1126,,adl
14.236244,-0.0077,0.0675,0.0176,-0.2081,0.0129,-0.0213,-33.8428,-25.803,-7.1126,,adl
14.238911,-0.0077,0.0675,0.0176,-0.2081,0.0129,-0.0213,-33.8428,-25.803,-7.1126,,adl
14.241321,-0.0077,0.0675,0.0176,-0.065,0.0184,0.0125,-33.8428,-25.803,-7.1126,,adl
14.25024,-0.0077,0.0675,0.0176,-0.065,0.0184,0.0125,-33.855,-25.8274,-7.1248,,adl
14.251631,-0.0034,0.161,0.0558,-0.065,0.0184,0.0125,-33.855,-25.8274,-7.1248,,adl
14.296171,-0.0034,0.161,0.0558,-0.065,0.0184,0.0125,-33.8672,-25.7542,-7.198,,adl
14.305872,-0.0034,0.161,0.0558,-0.065,0.0184,0.0125,-33.8672,-25.7542,-7.198,,adl
14.307178,-0.0034,0.161,0.0558,-0.065,0.0184,0.0125,-33.8672,-25.7542,-7.198,,adl
14.308212,-0.0034,0.161,0.0558,-0.065,0.0184,0.0125,-33.8672,-25.7542,-7.198,,adl
14.310177,-0.0034,0.161,0.0558,-0.0129,-0.0272,-0.0028,-33.8672,-25.7542,-7.198,,adl
14.319218,-0.0007,-0.2067,-0.1403,-0.0129,-0.0272,-0.0028,-33.8672,-25.7542,-7.198,,adl
14.36018,-0.0007,-0.2067,-0.1403,-0.0129,-0.0272,-0.0028,-33.8672,-25.6932,-7.3078,,adl
14.363555,-0.0007,-0.2067,-0.1403,-0.0129,-0.0272,-0.0028,-33.8672,-25.6932,-7.3078,,adl
14.366176,-0.0007,-0.2067,-0.1403,-0.0129,-0.0272,-0.0028,-33.8672,-25.6932,-7.3078,,adl
14.36853,-0.0007,-0.2067,-0.1403,-0.0129,-0.0272,-0.0028,-33.8672,-25.6932,-7.3078,,adl
14.379328,-0.0007,-0.2067,-0.1403,-0.1704,0.0487,-0.0073,-33.8672,-25.6932,-7.3078,,adl
14.38992,0.0024,0.1269,0.1502,-0.1704,0.0487,-0.0073,-33.8672,-25.6932,-7.3078,,adl
14.419273,0.0024,0.1269,0.1502,-0.1704,0.0487,-0.0073,-33.8916,-25.5346,-7.564,,adl
14.430564,0.0024,0.1269,0.1502,-0.1704,0.0487,-0.0073,-33.8916,-25.5346,-7.564,,adl
14.433554,0.0024,0.1269,0.1502,-0.1704,0.0487,-0.0073,-33.8916,-25.5346,-7.564,,adl
14.436042,0.0024,0.1269,0.1502,-0.1704,0.0487,-0.0073,-33.8916,-25.5346,-7.564,,adl
14.438633,0.0024,0.1269,0.1502,-0.1704,0.0487,-0.0073,-33.8916,-25.5346,-7.564,,adl
14.449315,0.0024,0.1269,0.1502,0.0795,-0.0389,0.0241,-33.8916,-25.5346,-7.564,,adl
14.459361,0.0324,-0.0507,-0.1135,0.0795,-0.0389,0.0241,-33.8916,-25.5346,-7.564,,adl
14.479389,0.0324,-0.0507,-0.1135,0.0795,-0.0389,0.0241,-33.916,-25.4614,-7.7714,,adl
14.495595,0.0324,-0.0507,-0.1135,0.0795,-0.0389,0.0241,-33.916,-25.4614,-7.7714,,adl
14.497405,0.0324,-0.0507,-0.1135,0.0795,-0.0389,0.0241,-33.916,-25.4614,-7.7714,,adl
14.499046,0.0324,-0.0507,-0.1135,0.0795,-0.0389,0.0241,-33.916,-25.4614,-7.7714,,adl
14.519293,0.0324,-0.0507,-0.1135,-0.1603,0.0474,-0.0362,-33.916,-25.4614,-7.7714,,adl
14.533438,-0.013,0.0503,-0.0432,-0.1603,0.0474,-0.0362,-33.916,-25.4614,-7.7714,,adl
14.539125,-0.013,0.0503,-0.0432,-0.1603,0.0474,-0.0362,-33.9648,-25.315,-8.0398,,adl
14.56367,-0.013,0.0503,-0.0432,-0.1603,0.0474,-0.0362,-33.9648,-25.315,-8.0398,,adl
14.567233,-0.013,0.0503,-0.0432,-0.1603,0.0474,-0.0362,-33.9648,-25.315,-8.0398,,adl
14.569792,-0.013,0.0503,-0.0432,-0.1603,0.0474,-0.0362,-33.9648,-25.315,-8.0398,,adl
14.589453,-0.013,0.0503,-0.0432,-0.0043,-0.0063,0.0244,-33.9648,-25.315,-8.0398,,adl
14.59858,-0.013,0.0503,-0.0432,-0.0043,-0.0063,0.0244,-33.9892,-25.2784,-8.1618,,adl
14.600012,-0.0588,0.008,0.18,-0.0043,-0.0063,0.0244,-33.9892,-25.2784,-8.1618,,adl
14.630339,-0.0588,0.008,0.18,-0.0043,-0.0063,0.0244,-33.9892,-25.2784,-8.1618,,adl
14.633406,-0.0588,0.008,0.18,-0.0043,-0.0063,0.0244,-33.9892,-25.2784,-8.1618,,adl
14.635981,-0.0588,0.008,0.18,-0.0043,-0.0063,0.0244,-33.9892,-25.2784,-8.1618,,adl
14.638669,-0.0588,0.008,0.18,-0.0043,-0.0063,0.0244,-33.9892,-25.2784,-8.1618,,adl
