time,ax,ay,az,wx,wy,wz,Bx,By,Bz,Unnamed: 10,label
0.048662,0.0,0.0,0.0,0.0,0.0,0.0,0.0,0.0,0.0,,adl
0.049023,0.0,0.0,0.0,0.0,0.0,0.0,0.0,0.0,0.0,,adl
0.081885,0.0,0.0,0.0,-0.0032,-0.0075,-0.0077,0.0,0.0,0.0,,adl
0.101716,0.0,0.0,0.0,-0.0032,-0.0075,-0.0077,-33.2206,3.3794,29.3898,,adl
0.106782,0.0,0.0,0.0,-0.0032,-0.0075,-0.0077,-33.2206,3.3794,29.3898,,adl
0.10779,0.0,0.0,0.0,-0.0032,-0.0075,-0.0077,-33.2206,3.3794,29.3898,,adl
0.108673,0.0,0.0,0.0,-0.0032,-0.0075,-0.0077,-33.2206,3.3794,29.3898,,adl
0.151521,0.0,0.0,0.0,-0.0197,-0.0015,-0.0047,-33.2206,3.3794,29.3898,,adl
0.159837,0.0,0.0,0.0,-0.0197,-0.0015,-0.0047,-33.2816,3.2818,29.2068,,adl
0.161327,0.0,0.0,0.0,-0.0197,-0.0015,-0.0047,-33.2816,3.2818,29.2068,,adl
0.174592,0.0,0.0,0.0,-0.0197,-0.0015,-0.0047,-33.2816,3.2818,29.2068,,adl
0.175501,0.0,0.0,0.0,-0.0197,-0.0015,-0.0047,-33.2816,3.2818,29.2068,,adl
0.17603,0.0,0.0,0.0,-0.0197,-0.0015,-0.0047,-33.2816,3.2818,29.2068,,adl
0.220081,0.0,0.0,0.0,-0.0197,-0.0015,-0.0047,-33.2694,3.2208,29.3532,,adl
0.221688,0.0,0.0,0.0,-0.006,-0.0017,-0.0012,-33.2694,3.2208,29.3532,,adl
0.229296,0.024,0.0927,0.0229,-0.006,-0.0017,-0.0012,-33.2694,3.2208,29.3532,,adl
0.240027,0.024,0.0927,0.0229,-0.006,-0.0017,-0.0012,-33.2694,3.2208,29.3532,,adl
0.241145,0.024,0.0927,0.0229,-0.006,-0.0017,-0.0012,-33.2694,3.2208,29.3532,,adl
0.242261,0.024,0.0927,0.0229,-0.006,-0.0017,-0.0012,-33.2694,3.2208,29.3532,,adl
0.243154,0.024,0.0927,0.0229,-0.006,-0.0017,-0.0012,-33.2694,3.2208,29.3532,,adl
0.282803,0.024,0.0927,0.0229,-0.006,-0.0017,-0.0012,-33.3426,3.2452,29.3288,,adl
0.291065,0.024,0.0927,0.0229,-0.0039,-0.0052,0.0059,-33.3426,3.2452,29.3288,,adl
0.301047,0.0327,-0.0381,-0.0111,-0.0039,-0.0052,0.0059,-33.3426,3.2452,29.3288,,adl
0.307463,0.0327,-0.0381,-0.0111,-0.0039,-0.0052,0.0059,-33.3426,3.2452,29.3288,,adl
0.308368,0.0327,-0.0381,-0.0111,-0.0039,-0.0052,0.0059,-33.3426,3.2452,29.3288,,adl
0.309139,0.0327,-0.0381,-0.0111,-0.0039,-0.0052,0.0059,-33.3426,3.2452,29.3288,,adl
0.340901,0.0327,-0.0381,-0.0111,-0.0039,-0.0052,0.0059,-33.3914,3.2452,29.2922,,adl
0.362499,0.0327,-0.0381,-0.0111,0.0064,-0.0061,0.0017,-33.3914,3.2452,29.2922,,adl
0.370754,0.0248,0.0267,-0.0281,0.0064,-0.0061,0.0017,-33.3914,3.2452,29.2922,,adl
0.373436,0.0248,0.0267,-0.0281,0.0064,-0.0061,0.0017,-33.3914,3.2452,29.2922,,adl
0.374304,0.0248,0.0267,-0.0281,0.0064,-0.0061,0.0017,-33.3914,3.2452,29.2922,,adl
0.374945,0.0248,0.0267,-0.0281,0.0064,-0.0061,0.0017,-33.3914,3.2452,29.2922,,adl
0.391953,0.0248,0.0267,-0.0281,0.0064,-0.0061,0.0017,-33.3548,3.3062,29.2434,,adl
0.431605,0.0248,0.0267,-0.0281,-0.0052,-0.0097,-0.0032,-33.3548,3.3062,29.2434,,adl
0.44137,0.043,0.0283,0.0041,-0.0052,-0.0097,-0.0032,-33.3548,3.3062,29.2434,,adl
0.442755,0.043,0.0283,0.0041,-0.0052,-0.0097,-0.0032,-33.3548,3.3062,29.2434,,adl
0.443676,0.043,0.0283,0.0041,-0.0052,-0.0097,-0.0032,-33.3548,3.3062,29.2434,,adl
0.444565,0.043,0.0283,0.0041,-0.0052,-0.0097,-0.0032,-33.3548,3.3062,29.2434,,adl
0.445426,0.043,0.0283,0.0041,-0.0052,-0.0097,-0.0032,-33.3548,3.3062,29.2434,,adl
0.460654,0.043,0.0283,0.0041,-0.0052,-0.0097,-0.0032,-33.3426,3.3184,29.1946,,adl
0.50058,0.043,0.0283,0.0041,-0.0009,-0.0224,-0.0061,-33.3426,3.3184,29.1946,,adl
0.507999,0.043,0.0283,0.0041,-0.0009,-0.0224,-0.0061,-33.3426,3.3184,29.1946,,adl
0.509032,0.043,0.0283,0.0041,-0.0009,-0.0224,-0.0061,-33.3426,3.3184,29.1946,,adl
0.510102,0.043,0.0283,0.0041,-0.0009,-0.0224,-0.0061,-33.3426,3.3184,29.1946,,adl
0.511054,0.0307,0.0078,0.0042,-0.0009,-0.0224,-0.0061,-33.3426,3.3184,29.1946,,adl
0.520027,0.0307,0.0078,0.0042,-0.0009,-0.0224,-0.0061,-33.306,3.3428,29.1336,,adl
0.570381,0.0307,0.0078,0.0042,-0.0077,-0.0329,-0.0133,-33.306,3.3428,29.1336,,adl
0.572858,0.0307,0.0078,0.0042,-0.0077,-0.0329,-0.0133,-33.306,3.3428,29.1336,,adl
0.573942,0.0307,0.0078,0.0042,-0.0077,-0.0329,-0.0133,-33.306,3.3428,29.1336,,adl
0.574829,0.0307,0.0078,0.0042,-0.0077,-0.0329,-0.0133,-33.306,3.3428,29.1336,,adl
0.580376,0.0307,0.0078,0.0042,-0.0077,-0.0329,-0.0133,-33.2938,3.3306,29.1092,,adl
0.581739,0.058,0.0146,0.0041,-0.0077,-0.0329,-0.0133,-33.2938,3.3306,29.1092,,adl
0.642151,0.058,0.0146,0.0041,-0.0077,-0.0329,-0.0133,-33.3182,3.3428,29.1946,,adl
0.643832,0.058,0.0146,0.0041,-0.0077,-0.0329,-0.0133,-33.3182,3.3428,29.1946,,adl
0.644771,0.058,0.0146,0.0041,-0.0077,-0.0329,-0.0133,-33.3182,3.3428,29.1946,,adl
0.645789,0.058,0.0146,0.0041,-0.0077,-0.0329,-0.0133,-33.3182,3.3428,29.1946,,adl
0.646742,0.058,0.0146,0.0041,-0.0077,-0.0329,-0.0133,-33.3182,3.3428,29.1946,,adl
0.647663,0.058,0.0146,0.0041,-0.0008,-0.0566,-0.0033,-33.3182,3.3428,29.1946,,adl
0.650401,0.0449,-0.0051,0.053,-0.0008,-0.0566,-0.0033,-33.3182,3.3428,29.1946,,adl
0.699868,0.0449,-0.0051,0.053,-0.0008,-0.0566,-0.0033,-33.2938,3.3672,29.1458,,adl
0.706705,0.0449,-0.0051,0.053,-0.0008,-0.0566,-0.0033,-33.2938,3.3672,29.1458,,adl
0.707769,0.0449,-0.0051,0.053,-0.0008,-0.0566,-0.0033,-33.2938,3.3672,29.1458,,adl
0.708702,0.0449,-0.0051,0.053,-0.0008,-0.0566,-0.0033,-33.2938,3.3672,29.1458,,adl
0.709732,0.0449,-0.0051,0.053,0.0269,-0.0593,0.0001,-33.2938,3.3672,29.1458,,adl
0.719519,0.0232,0.0625,-0.006,0.0269,-0.0593,0.0001,-33.2938,3.3672,29.1458,,adl
0.759376,0.0232,0.0625,-0.006,0.0269,-0.0593,0.0001,-33.2328,3.355,29.1946,,adl
0.77604,0.0232,0.0625,-0.006,0.0269,-0.0593,0.0001,-33.2328,3.355,29.1946,,adl
0.776922,0.0232,0.0625,-0.006,0.0269,-0.0593,0.0001,-33.2328,3.355,29.1946,,adl
0.777547,0.0232,0.0625,-0.006,0.0269,-0.0593,0.0001,-33.2328,3.355,29.1946,,adl
0.779539,0.0232,0.0625,-0.006,0.0221,-0.035,0.0017,-33.2328,3.355,29.1946,,adl
0.788854,0.0929,-0.0305,-0.0715,0.0221,-0.035,0.0017,-33.2328,3.355,29.1946,,adl
0.819446,0.0929,-0.0305,-0.0715,0.0221,-0.035,0.0017,-33.1474,3.294,29.3898,,adl
0.841482,0.0929,-0.0305,-0.0715,0.0221,-0.035,0.0017,-33.1474,3.294,29.3898,,adl
0.842523,0.0929,-0.0305,-0.0715,0.0221,-0.035,0.0017,-33.1474,3.294,29.3898,,adl
0.843131,0.0929,-0.0305,-0.0715,0.0221,-0.035,0.0017,-33.1474,3.294,29.3898,,adl
0.843755,0.0929,-0.0305,-0.0715,0.0221,-0.035,0.0017,-33.1474,3.294,29.3898,,adl
0.84745,0.0929,-0.0305,-0.0715,-0.0226,-0.0603,0.0256,-33.1474,3.294,29.3898,,adl
0.859131,0.0479,0.016,-0.0818,-0.0226,-0.0603,0.0256,-33.1474,3.294,29.3898,,adl
0.878855,0.0479,0.016,-0.0818,-0.0226,-0.0603,0.0256,-33.0376,3.2086,29.5484,,adl
0.909837,0.0479,0.016,-0.0818,-0.0226,-0.0603,0.0256,-33.0376,3.2086,29.5484,,adl
0.91112,0.0479,0.016,-0.0818,-0.0226,-0.0603,0.0256,-33.0376,3.2086,29.5484,,adl
0.91188,0.0479,0.016,-0.0818,-0.0226,-0.0603,0.0256,-33.0376,3.2086,29.5484,,adl
0.918843,0.0479,0.016,-0.0818,0.0013,-0.1091,0.0383,-33.0376,3.2086,29.5484,,adl
0.928656,0.0132,0.0115,-0.0548,0.0013,-0.1091,0.0383,-33.0376,3.2086,29.5484,,adl
0.938576,0.0132,0.0115,-0.0548,0.0013,-0.1091,0.0383,-32.9644,3.172,29.7192,,adl
0.976515,0.0132,0.0115,-0.0548,0.0013,-0.1091,0.0383,-32.9644,3.172,29.7192,,adl
0.977671,0.0132,0.0115,-0.0548,0.0013,-0.1091,0.0383,-32.9644,3.172,29.7192,,adl
0.978354,0.0132,0.0115,-0.0548,0.0013,-0.1091,0.0383,-32.9644,3.172,29.7192,,adl
0.988478,0.0132,0.0115,-0.0548,0.0138,-0.2161,0.0738,-32.9644,3.172,29.7192,,adl
0.999594,0.0132,0.0115,-0.0548,0.0138,-0.2161,0.0738,-32.879,3.1354,29.9144,,adl
1.000625,0.0064,-0.1135,-0.0559,0.0138,-0.2161,0.0738,-32.879,3.1354,29.9144,,adl
1.042876,0.0064,-0.1135,-0.0559,0.0138,-0.2161,0.0738,-32.879,3.1354,29.9144,,adl
1.043956,0.0064,-0.1135,-0.0559,0.0138,-0.2161,0.0738,-32.879,3.1354,29.9144,,adl
1.044566,0.0064,-0.1135,-0.0559,0.0138,-0.2161,0.0738,-32.879,3.1354,29.9144,,adl
1.045157,0.0064,-0.1135,-0.0559,0.0138,-0.2161,0.0738,-32.879,3.1354,29.9144,,adl
1.058627,0.0064,-0.1135,-0.0559,0.0138,-0.2161,0.0738,-32.696,3.172,30.1096,,adl
1.059743,0.0064,-0.1135,-0.0559,-0.0755,-0.3875,0.1376,-32.696,3.172,30.1096,,adl
1.068086,-0.1396,0.0642,-0.0547,-0.0755,-0.3875,0.1376,-32.696,3.172,30.1096,,adl
1.109554,-0.1396,0.0642,-0.0547,-0.0755,-0.3875,0.1376,-32.696,3.172,30.1096,,adl
1.110986,-0.1396,0.0642,-0.0547,-0.0755,-0.3875,0.1376,-32.696,3.172,30.1096,,adl
1.111972,-0.1396,0.0642,-0.0547,-0.0755,-0.3875,0.1376,-32.696,3.172,30.1096,,adl
1.118433,-0.1396,0.0642,-0.0547,-0.0755,-0.3875,0.1376,-32.3788,3.2452,30.3414,,adl
1.129526,-0.1396,0.0642,-0.0547,-0.1442,-0.6121,0.237,-32.3788,3.2452,30.3414,,adl
1.137928,-0.4517,0.0631,-0.2057,-0.1442,-0.6121,0.237,-32.3788,3.2452,30.3414,,adl
1.176207,-0.4517,0.0631,-0.2057,-0.1442,-0.6121,0.237,-32.3788,3.2452,30.3414,,adl
1.177411,-0.4517,0.0631,-0.2057,-0.1442,-0.6121,0.237,-32.3788,3.2452,30.3414,,adl
1.178429,-0.4517,0.0631,-0.2057,-0.1442,-0.6121,0.237,-32.3788,3.2452,30.3414,,adl
1.179201,-0.4517,0.0631,-0.2057,-0.1442,-0.6121,0.237,-31.964,3.2818,30.8294,,adl
1.199529,-0.4517,0.0631,-0.2057,-0.1595,-0.828,0.2619,-31.964,3.2818,30.8294,,adl
1.209274,-0.6665,0.0055,-0.2814,-0.1595,-0.828,0.2619,-31.964,3.2818,30.8294,,adl
1.23784,-0.6665,0.0055,-0.2814,-0.1595,-0.828,0.2619,-31.3052,3.3672,31.4272,,adl
1.239597,-0.6665,0.0055,-0.2814,-0.1595,-0.828,0.2619,-31.3052,3.3672,31.4272,,adl
1.240506,-0.6665,0.0055,-0.2814,-0.1595,-0.828,0.2619,-31.3052,3.3672,31.4272,,adl
1.241265,-0.6665,0.0055,-0.2814,-0.1595,-0.828,0.2619,-31.3052,3.3672,31.4272,,adl
1.242226,-0.6665,0.0055,-0.2814,-0.1595,-0.828,0.2619,-31.3052,3.3672,31.4272,,adl
1.268188,-0.6665,0.0055,-0.2814,-0.1302,-0.7922,0.0839,-31.3052,3.3672,31.4272,,adl
1.278118,-0.6385,0.1739,-0.0662,-0.1302,-0.7922,0.0839,-31.3052,3.3672,31.4272,,adl
1.299668,-0.6385,0.1739,-0.0662,-0.1302,-0.7922,0.0839,-30.4756,3.4526,32.025,,adl
1.307813,-0.6385,0.1739,-0.0662,-0.1302,-0.7922,0.0839,-30.4756,3.4526,32.025,,adl
1.308759,-0.6385,0.1739,-0.0662,-0.1302,-0.7922,0.0839,-30.4756,3.4526,32.025,,adl
1.309538,-0.6385,0.1739,-0.0662,-0.1302,-0.7922,0.0839,-30.4756,3.4526,32.025,,adl
1.339085,-0.6385,0.1739,-0.0662,-0.1317,-0.6547,-0.0466,-30.4756,3.4526,32.025,,adl
1.347128,-0.0592,0.2479,0.3911,-0.1317,-0.6547,-0.0466,-30.4756,3.4526,32.025,,adl
1.357108,-0.0592,0.2479,0.3911,-0.1317,-0.6547,-0.0466,-29.4996,3.4648,32.818,,adl
1.374455,-0.0592,0.2479,0.3911,-0.1317,-0.6547,-0.0466,-29.4996,3.4648,32.818,,adl
1.375658,-0.0592,0.2479,0.3911,-0.1317,-0.6547,-0.0466,-29.4996,3.4648,32.818,,adl
1.376615,-0.0592,0.2479,0.3911,-0.1317,-0.6547,-0.0466,-29.4996,3.4648,32.818,,adl
1.408443,-0.0592,0.2479,0.3911,-0.0035,-0.6183,-0.1099,-29.4996,3.4648,32.818,,adl
1.41709,-0.0592,0.2479,0.3911,-0.0035,-0.6183,-0.1099,-28.3528,3.4404,33.733,,adl
1.418683,0.011,-0.4759,0.4854,-0.0035,-0.6183,-0.1099,-28.3528,3.4404,33.733,,adl
1.44273,0.011,-0.4759,0.4854,-0.0035,-0.6183,-0.1099,-28.3528,3.4404,33.733,,adl
1.443997,0.011,-0.4759,0.4854,-0.0035,-0.6183,-0.1099,-28.3528,3.4404,33.733,,adl
1.444856,0.011,-0.4759,0.4854,-0.0035,-0.6183,-0.1099,-28.3528,3.4404,33.733,,adl
1.445831,0.011,-0.4759,0.4854,-0.0035,-0.6183,-0.1099,-28.3528,3.4404,33.733,,adl
1.478767,0.011,-0.4759,0.4854,-0.0035,-0.6183,-0.1099,-27.0352,3.3672,34.7334,,adl
1.480296,0.011,-0.4759,0.4854,0.025,-0.6538,-0.1969,-27.0352,3.3672,34.7334,,adl
1.485429,-0.3833,0.1042,0.4246,0.025,-0.6538,-0.1969,-27.0352,3.3672,34.7334,,adl
1.506823,-0.3833,0.1042,0.4246,0.025,-0.6538,-0.1969,-27.0352,3.3672,34.7334,,adl
1.507959,-0.3833,0.1042,0.4246,0.025,-0.6538,-0.1969,-27.0352,3.3672,34.7334,,adl
1.508745,-0.3833,0.1042,0.4246,0.025,-0.6538,-0.1969,-27.0352,3.3672,34.7334,,adl
1.536959,-0.3833,0.1042,0.4246,0.025,-0.6538,-0.1969,-25.6078,3.172,35.8314,,adl
1.547646,-0.3833,0.1042,0.4246,0.0591,-0.6328,-0.2716,-25.6078,3.172,35.8314,,adl
1.558021,-0.671,0.1622,0.3643,0.0591,-0.6328,-0.2716,-25.6078,3.172,35.8314,,adl
1.576294,-0.671,0.1622,0.3643,0.0591,-0.6328,-0.2716,-25.6078,3.172,35.8314,,adl
1.577458,-0.671,0.1622,0.3643,0.0591,-0.6328,-0.2716,-25.6078,3.172,35.8314,,adl
1.578423,-0.671,0.1622,0.3643,0.0591,-0.6328,-0.2716,-25.6078,3.172,35.8314,,adl
1.596544,-0.671,0.1622,0.3643,0.0591,-0.6328,-0.2716,-24.1194,2.989,36.8684,,adl
1.616483,-0.671,0.1622,0.3643,0.1005,-0.6249,-0.3237,-24.1194,2.989,36.8684,,adl
1.626288,-0.4979,-0.0019,0.3127,0.1005,-0.6249,-0.3237,-24.1194,2.989,36.8684,,adl
1.640905,-0.4979,-0.0019,0.3127,0.1005,-0.6249,-0.3237,-24.1194,2.989,36.8684,,adl
1.642356,-0.4979,-0.0019,0.3127,0.1005,-0.6249,-0.3237,-24.1194,2.989,36.8684,,adl
1.643115,-0.4979,-0.0019,0.3127,0.1005,-0.6249,-0.3237,-24.1194,2.989,36.8684,,adl
1.643864,-0.4979,-0.0019,0.3127,0.1005,-0.6249,-0.3237,-24.1194,2.989,36.8684,,adl
1.657322,-0.4979,-0.0019,0.3127,0.1005,-0.6249,-0.3237,-22.6066,2.7816,37.759,,adl
1.687801,-0.4979,-0.0019,0.3127,0.0629,-0.716,-0.2168,-22.6066,2.7816,37.759,,adl
1.697992,-0.8038,0.0393,0.2998,0.0629,-0.716,-0.2168,-22.6066,2.7816,37.759,,adl
1.708906,-0.8038,0.0393,0.2998,0.0629,-0.716,-0.2168,-22.6066,2.7816,37.759,,adl
1.710251,-0.8038,0.0393,0.2998,0.0629,-0.716,-0.2168,-22.6066,2.7816,37.759,,adl
1.711,-0.8038,0.0393,0.2998,0.0629,-0.716,-0.2168,-22.6066,2.7816,37.759,,adl
1.715836,-0.8038,0.0393,0.2998,0.0629,-0.716,-0.2168,-21.0938,2.5376,38.6252,,adl
1.757996,-0.8038,0.0393,0.2998,0.3192,-0.6017,-0.1827,-21.0938,2.5376,38.6252,,adl
1.765979,-0.4227,-0.6273,-0.0465,0.3192,-0.6017,-0.1827,-21.0938,2.5376,38.6252,,adl
1.775459,-0.4227,-0.6273,-0.0465,0.3192,-0.6017,-0.1827,-21.0938,2.5376,38.6252,,adl
1.776506,-0.4227,-0.6273,-0.0465,0.3192,-0.6017,-0.1827,-21.0938,2.5376,38.6252,,adl
1.777263,-0.4227,-0.6273,-0.0465,0.3192,-0.6017,-0.1827,-21.0938,2.5376,38.6252,,adl
1.778138,-0.4227,-0.6273,-0.0465,0.3192,-0.6017,-0.1827,-21.0938,2.5376,38.6252,,adl
1.778868,-0.4227,-0.6273,-0.0465,0.3192,-0.6017,-0.1827,-19.5932,2.4278,39.4548,,adl
1.826196,-0.4227,-0.6273,-0.0465,0.1301,-0.5382,-0.2683,-19.5932,2.4278,39.4548,,adl
1.836977,-0.4227,-0.6273,-0.0465,0.1301,-0.5382,-0.2683,-18.1658,2.4034,40.138,,adl
1.838466,0.9288,0.1052,-0.2075,0.1301,-0.5382,-0.2683,-18.1658,2.4034,40.138,,adl
1.83971,0.9288,0.1052,-0.2075,0.1301,-0.5382,-0.2683,-18.1658,2.4034,40.138,,adl
1.84057,0.9288,0.1052,-0.2075,0.1301,-0.5382,-0.2683,-18.1658,2.4034,40.138,,adl
1.841326,0.9288,0.1052,-0.2075,0.1301,-0.5382,-0.2683,-18.1658,2.4034,40.138,,adl
1.895713,0.9288,0.1052,-0.2075,0.1301,-0.5382,-0.2683,-16.6286,2.4522,40.7236,,adl
1.897349,0.9288,0.1052,-0.2075,0.1482,-0.859,-0.3573,-16.6286,2.4522,40.7236,,adl
1.905036,-0.0596,0.3791,-0.8654,0.1482,-0.859,-0.3573,-16.6286,2.4522,40.7236,,adl
1.906311,-0.0596,0.3791,-0.8654,0.1482,-0.859,-0.3573,-16.6286,2.4522,40.7236,,adl
1.90706,-0.0596,0.3791,-0.8654,0.1482,-0.859,-0.3573,-16.6286,2.4522,40.7236,,adl
1.907778,-0.0596,0.3791,-0.8654,0.1482,-0.859,-0.3573,-16.6286,2.4522,40.7236,,adl
1.956825,-0.0596,0.3791,-0.8654,0.1482,-0.859,-0.3573,-14.9572,2.5376,41.3336,,adl
1.965071,-0.0596,0.3791,-0.8654,0.0771,-1.0372,-0.3674,-14.9572,2.5376,41.3336,,adl
1.973692,0.0721,-0.2778,-0.4316,0.0771,-1.0372,-0.3674,-14.9572,2.5376,41.3336,,adl
1.974756,0.0721,-0.2778,-0.4316,0.0771,-1.0372,-0.3674,-14.9572,2.5376,41.3336,,adl
1.97553,0.0721,-0.2778,-0.4316,0.0771,-1.0372,-0.3674,-14.9572,2.5376,41.3336,,adl
1.976291,0.0721,-0.2778,-0.4316,0.0771,-1.0372,-0.3674,-14.9572,2.5376,41.3336,,adl
1.977061,0.0721,-0.2778,-0.4316,0.0771,-1.0372,-0.3674,-14.9572,2.5376,41.3336,,adl
2.015847,0.0721,-0.2778,-0.4316,0.0771,-1.0372,-0.3674,-13.2126,2.684,41.8094,,adl
2.036577,0.0721,-0.2778,-0.4316,0.0278,-0.9474,-0.314,-13.2126,2.684,41.8094,,adl
2.039779,0.0721,-0.2778,-0.4316,0.0278,-0.9474,-0.314,-13.2126,2.684,41.8094,,adl
2.040663,0.0721,-0.2778,-0.4316,0.0278,-0.9474,-0.314,-13.2126,2.684,41.8094,,adl
2.04141,0.0721,-0.2778,-0.4316,0.0278,-0.9474,-0.314,-13.2126,2.684,41.8094,,adl
2.045446,0.9024,0.1154,-0.7231,0.0278,-0.9474,-0.314,-13.2126,2.684,41.8094,,adl
2.073971,0.9024,0.1154,-0.7231,0.0278,-0.9474,-0.314,-11.285,2.8182,42.2608,,adl
2.103225,0.9024,0.1154,-0.7231,0.0376,-0.9352,-0.3459,-11.285,2.8182,42.2608,,adl
2.106047,0.9024,0.1154,-0.7231,0.0376,-0.9352,-0.3459,-11.285,2.8182,42.2608,,adl
2.106925,0.9024,0.1154,-0.7231,0.0376,-0.9352,-0.3459,-11.285,2.8182,42.2608,,adl
2.107671,0.9024,0.1154,-0.7231,0.0376,-0.9352,-0.3459,-11.285,2.8182,42.2608,,adl
2.114087,0.7899,-0.0791,-0.5164,0.0376,-0.9352,-0.3459,-11.285,2.8182,42.2608,,adl
2.134832,0.7899,-0.0791,-0.5164,0.0376,-0.9352,-0.3459,-9.2232,2.989,42.7366,,adl
2.174497,0.7899,-0.0791,-0.5164,-0.1217,-0.9898,-0.3641,-9.2232,2.989,42.7366,,adl
2.176325,0.7899,-0.0791,-0.5164,-0.1217,-0.9898,-0.3641,-9.2232,2.989,42.7366,,adl
2.177302,0.7899,-0.0791,-0.5164,-0.1217,-0.9898,-0.3641,-9.2232,2.989,42.7366,,adl
2.178446,0.7899,-0.0791,-0.5164,-0.1217,-0.9898,-0.3641,-9.2232,2.989,42.7366,,adl
2.179332,0.7899,-0.0791,-0.5164,-0.1217,-0.9898,-0.3641,-9.2232,2.989,42.7366,,adl
2.184344,0.1729,0.1372,-0.2432,-0.1217,-0.9898,-0.3641,-9.2232,2.989,42.7366,,adl
2.194317,0.1729,0.1372,-0.2432,-0.1217,-0.9898,-0.3641,-7.0638,3.111,43.066,,adl
2.241232,0.1729,0.1372,-0.2432,-0.1217,-0.9898,-0.3641,-7.0638,3.111,43.066,,adl
2.242793,0.1729,0.1372,-0.2432,-0.1217,-0.9898,-0.3641,-7.0638,3.111,43.066,,adl
2.243719,0.1729,0.1372,-0.2432,-0.1217,-0.9898,-0.3641,-7.0638,3.111,43.066,,adl
2.244609,0.1729,0.1372,-0.2432,-0.1543,-0.9719,-0.3173,-7.0638,3.111,43.066,,adl
2.255726,0.1729,0.1372,-0.2432,-0.1543,-0.9719,-0.3173,-4.758,3.0866,43.3466,,adl
2.257182,0.1964,0.2404,0.1244,-0.1543,-0.9719,-0.3173,-4.758,3.0866,43.3466,,adl
2.308138,0.1964,0.2404,0.1244,-0.1543,-0.9719,-0.3173,-4.758,3.0866,43.3466,,adl
2.309743,0.1964,0.2404,0.1244,-0.1543,-0.9719,-0.3173,-4.758,3.0866,43.3466,,adl
2.310756,0.1964,0.2404,0.1244,-0.1543,-0.9719,-0.3173,-4.758,3.0866,43.3466,,adl
2.315133,0.1964,0.2404,0.1244,-0.1543,-0.9719,-0.3173,-2.3302,3.0866,43.4442,,adl
2.316452,0.1964,0.2404,0.1244,-0.1434,-0.967,-0.2471,-2.3302,3.0866,43.4442,,adl
2.325847,0.1746,0.4462,0.2681,-0.1434,-0.967,-0.2471,-2.3302,3.0866,43.4442,,adl
2.374057,0.1746,0.4462,0.2681,-0.1434,-0.967,-0.2471,0.1464,3.0134,43.493,,adl
2.37584,0.1746,0.4462,0.2681,-0.1434,-0.967,-0.2471,0.1464,3.0134,43.493,,adl
2.376795,0.1746,0.4462,0.2681,-0.1434,-0.967,-0.2471,0.1464,3.0134,43.493,,adl
2.377794,0.1746,0.4462,0.2681,-0.1434,-0.967,-0.2471,0.1464,3.0134,43.493,,adl
2.378733,0.1746,0.4462,0.2681,-0.1434,-0.967,-0.2471,0.1464,3.0134,43.493,,adl
2.383663,0.1746,0.4462,0.2681,-0.1262,-1.0241,-0.2027,0.1464,3.0134,43.493,,adl
2.393233,-0.0053,0.0652,0.8819,-0.1262,-1.0241,-0.2027,0.1464,3.0134,43.493,,adl
2.435129,-0.0053,0.0652,0.8819,-0.1262,-1.0241,-0.2027,2.7206,2.9402,43.31,,adl
2.439524,-0.0053,0.0652,0.8819,-0.1262,-1.0241,-0.2027,2.7206,2.9402,43.31,,adl
2.440617,-0.0053,0.0652,0.8819,-0.1262,-1.0241,-0.2027,2.7206,2.9402,43.31,,adl
2.441516,-0.0053,0.0652,0.8819,-0.1262,-1.0241,-0.2027,2.7206,2.9402,43.31,,adl
2.453665,-0.0053,0.0652,0.8819,-0.0111,-1.4136,-0.0724,2.7206,2.9402,43.31,,adl
2.463306,-0.2391,0.156,0.9182,-0.0111,-1.4136,-0.0724,2.7206,2.9402,43.31,,adl
2.493327,-0.2391,0.156,0.9182,-0.0111,-1.4136,-0.0724,5.4046,2.8426,43.0294,,adl
2.507785,-0.2391,0.156,0.9182,-0.0111,-1.4136,-0.0724,5.4046,2.8426,43.0294,,adl
2.509084,-0.2391,0.156,0.9182,-0.0111,-1.4136,-0.0724,5.4046,2.8426,43.0294,,adl
2.510236,-0.2391,0.156,0.9182,-0.0111,-1.4136,-0.0724,5.4046,2.8426,43.0294,,adl
2.523308,-0.2391,0.156,0.9182,0.0304,-1.6587,-0.0771,5.4046,2.8426,43.0294,,adl
2.53298,-0.4969,-0.1145,0.6234,0.0304,-1.6587,-0.0771,5.4046,2.8426,43.0294,,adl
2.55317,-0.4969,-0.1145,0.6234,0.0304,-1.6587,-0.0771,8.357,2.7694,42.456,,adl
2.57484,-0.4969,-0.1145,0.6234,0.0304,-1.6587,-0.0771,8.357,2.7694,42.456,,adl
2.575899,-0.4969,-0.1145,0.6234,0.0304,-1.6587,-0.0771,8.357,2.7694,42.456,,adl
2.57666,-0.4969,-0.1145,0.6234,0.0304,-1.6587,-0.0771,8.357,2.7694,42.456,,adl
2.57741,-0.4969,-0.1145,0.6234,0.0304,-1.6587,-0.0771,8.357,2.7694,42.456,,adl
2.594404,-0.4969,-0.1145,0.6234,0.0843,-1.2209,-0.1803,8.357,2.7694,42.456,,adl
2.602984,0.5454,-0.6833,-0.3612,0.0843,-1.2209,-0.1803,8.357,2.7694,42.456,,adl
2.612644,0.5454,-0.6833,-0.3612,0.0843,-1.2209,-0.1803,11.3094,2.7816,41.5898,,adl
2.641356,0.5454,-0.6833,-0.3612,0.0843,-1.2209,-0.1803,11.3094,2.7816,41.5898,,adl
2.642611,0.5454,-0.6833,-0.3612,0.0843,-1.2209,-0.1803,11.3094,2.7816,41.5898,,adl
2.643376,0.5454,-0.6833,-0.3612,0.0843,-1.2209,-0.1803,11.3094,2.7816,41.5898,,adl
2.662671,0.5454,-0.6833,-0.3612,0.2437,-1.2031,0.0939,11.3094,2.7816,41.5898,,adl
2.675122,1.2426,-1.4382,-1.0278,0.2437,-1.2031,0.0939,11.3094,2.7816,41.5898,,adl
2.676726,1.2426,-1.4382,-1.0278,0.2437,-1.2031,0.0939,14.2374,2.8792,40.5284,,adl
2.707931,1.2426,-1.4382,-1.0278,0.2437,-1.2031,0.0939,14.2374,2.8792,40.5284,,adl
2.708953,1.2426,-1.4382,-1.0278,0.2437,-1.2031,0.0939,14.2374,2.8792,40.5284,,adl
2.709646,1.2426,-1.4382,-1.0278,0.2437,-1.2031,0.0939,14.2374,2.8792,40.5284,,adl
2.731815,1.2426,-1.4382,-1.0278,0.2437,-1.2031,0.0939,17.1532,3.05,39.1376,,adl
2.732963,1.2426,-1.4382,-1.0278,0.1284,-1.0689,0.2489,17.1532,3.05,39.1376,,adl
2.741153,-1.0323,0.8697,-0.965,0.1284,-1.0689,0.2489,17.1532,3.05,39.1376,,adl
2.773392,-1.0323,0.8697,-0.965,0.1284,-1.0689,0.2489,17.1532,3.05,39.1376,,adl
2.774477,-1.0323,0.8697,-0.965,0.1284,-1.0689,0.2489,17.1532,3.05,39.1376,,adl
2.775102,-1.0323,0.8697,-0.965,0.1284,-1.0689,0.2489,17.1532,3.05,39.1376,,adl
2.775691,-1.0323,0.8697,-0.965,0.1284,-1.0689,0.2489,17.1532,3.05,39.1376,,adl
2.803864,-1.0323,0.8697,-0.965,0.1284,-1.0689,0.2489,20.0812,3.0744,37.8566,,adl
2.805329,-1.0323,0.8697,-0.965,0.0743,-0.6828,0.2567,20.0812,3.0744,37.8566,,adl
2.811921,-0.5956,0.1962,-0.2732,0.0743,-0.6828,0.2567,20.0812,3.0744,37.8566,,adl
2.841461,-0.5956,0.1962,-0.2732,0.0743,-0.6828,0.2567,20.0812,3.0744,37.8566,,adl
2.842577,-0.5956,0.1962,-0.2732,0.0743,-0.6828,0.2567,20.0812,3.0744,37.8566,,adl
2.843229,-0.5956,0.1962,-0.2732,0.0743,-0.6828,0.2567,20.0812,3.0744,37.8566,,adl
2.863529,-0.5956,0.1962,-0.2732,0.0743,-0.6828,0.2567,22.8262,3.1476,36.3926,,adl
2.872998,-0.5956,0.1962,-0.2732,0.0194,-0.5264,0.2169,22.8262,3.1476,36.3926,,adl
2.88219,0.026,0.1555,-0.2852,0.0194,-0.5264,0.2169,22.8262,3.1476,36.3926,,adl
2.908187,0.026,0.1555,-0.2852,0.0194,-0.5264,0.2169,22.8262,3.1476,36.3926,,adl
2.909188,0.026,0.1555,-0.2852,0.0194,-0.5264,0.2169,22.8262,3.1476,36.3926,,adl
2.909928,0.026,0.1555,-0.2852,0.0194,-0.5264,0.2169,22.8262,3.1476,36.3926,,adl
2.92177,0.026,0.1555,-0.2852,0.0194,-0.5264,0.2169,25.2784,3.1476,34.9774,,adl
2.941674,0.026,0.1555,-0.2852,-0.1153,-0.4408,0.0109,25.2784,3.1476,34.9774,,adl
2.951403,-0.916,0.9474,-0.0758,-0.1153,-0.4408,0.0109,25.2784,3.1476,34.9774,,adl
2.974377,-0.916,0.9474,-0.0758,-0.1153,-0.4408,0.0109,25.2784,3.1476,34.9774,,adl
2.975423,-0.916,0.9474,-0.0758,-0.1153,-0.4408,0.0109,25.2784,3.1476,34.9774,,adl
2.976218,-0.916,0.9474,-0.0758,-0.1153,-0.4408,0.0109,25.2784,3.1476,34.9774,,adl
2.976949,-0.916,0.9474,-0.0758,-0.1153,-0.4408,0.0109,25.2784,3.1476,34.9774,,adl
2.981764,-0.916,0.9474,-0.0758,-0.1153,-0.4408,0.0109,27.389,3.172,33.5012,,adl
3.011575,-0.916,0.9474,-0.0758,-0.1202,-0.275,0.0264,27.389,3.172,33.5012,,adl
3.021372,-0.2472,0.1324,0.3372,-0.1202,-0.275,0.0264,27.389,3.172,33.5012,,adl
3.042129,-0.2472,0.1324,0.3372,-0.1202,-0.275,0.0264,29.0116,3.1476,32.208,,adl
3.043398,-0.2472,0.1324,0.3372,-0.1202,-0.275,0.0264,29.0116,3.1476,32.208,,adl
3.044199,-0.2472,0.1324,0.3372,-0.1202,-0.275,0.0264,29.0116,3.1476,32.208,,adl
3.044959,-0.2472,0.1324,0.3372,-0.1202,-0.275,0.0264,29.0116,3.1476,32.208,,adl
3.08355,-0.2472,0.1324,0.3372,-0.0073,-0.1111,0.0037,29.0116,3.1476,32.208,,adl
3.090855,-0.2688,-0.2613,0.4467,-0.0073,-0.1111,0.0037,29.0116,3.1476,32.208,,adl
3.100964,-0.2688,-0.2613,0.4467,-0.0073,-0.1111,0.0037,30.317,3.0378,31.11,,adl
3.107457,-0.2688,-0.2613,0.4467,-0.0073,-0.1111,0.0037,30.317,3.0378,31.11,,adl
3.108319,-0.2688,-0.2613,0.4467,-0.0073,-0.1111,0.0037,30.317,3.0378,31.11,,adl
3.109028,-0.2688,-0.2613,0.4467,-0.0073,-0.1111,0.0037,30.317,3.0378,31.11,,adl
3.152297,-0.2688,-0.2613,0.4467,0.0172,-0.1293,-0.0483,30.317,3.0378,31.11,,adl
3.161024,-0.2688,-0.2613,0.4467,0.0172,-0.1293,-0.0483,31.3784,2.9158,30.2194,,adl
3.162316,-0.6183,0.0472,0.4553,0.0172,-0.1293,-0.0483,31.3784,2.9158,30.2194,,adl
3.174484,-0.6183,0.0472,0.4553,0.0172,-0.1293,-0.0483,31.3784,2.9158,30.2194,,adl
3.175414,-0.6183,0.0472,0.4553,0.0172,-0.1293,-0.0483,31.3784,2.9158,30.2194,,adl
3.176164,-0.6183,0.0472,0.4553,0.0172,-0.1293,-0.0483,31.3784,2.9158,30.2194,,adl
3.176926,-0.6183,0.0472,0.4553,0.0172,-0.1293,-0.0483,31.3784,2.9158,30.2194,,adl
3.221038,-0.6183,0.0472,0.4553,0.0172,-0.1293,-0.0483,32.1226,2.8426,29.5728,,adl
3.222773,-0.6183,0.0472,0.4553,0.0011,-0.0949,-0.1043,32.1226,2.8426,29.5728,,adl
3.230371,-1.0347,0.1279,0.5932,0.0011,-0.0949,-0.1043,32.1226,2.8426,29.5728,,adl
3.241939,-1.0347,0.1279,0.5932,0.0011,-0.0949,-0.1043,32.1226,2.8426,29.5728,,adl
3.242966,-1.0347,0.1279,0.5932,0.0011,-0.0949,-0.1043,32.1226,2.8426,29.5728,,adl
3.243694,-1.0347,0.1279,0.5932,0.0011,-0.0949,-0.1043,32.1226,2.8426,29.5728,,adl
3.280821,-1.0347,0.1279,0.5932,0.0011,-0.0949,-0.1043,32.6472,2.9036,28.9994,,adl
3.290154,-1.0347,0.1279,0.5932,0.0907,0.0043,-0.0899,32.6472,2.9036,28.9994,,adl
3.300267,-0.6369,-0.1476,0.8182,0.0907,0.0043,-0.0899,32.6472,2.9036,28.9994,,adl
3.306353,-0.6369,-0.1476,0.8182,0.0907,0.0043,-0.0899,32.6472,2.9036,28.9994,,adl
3.307168,-0.6369,-0.1476,0.8182,0.0907,0.0043,-0.0899,32.6472,2.9036,28.9994,,adl
3.307815,-0.6369,-0.1476,0.8182,0.0907,0.0043,-0.0899,32.6472,2.9036,28.9994,,adl
3.341746,-0.6369,-0.1476,0.8182,0.0907,0.0043,-0.0899,33.0254,3.0134,28.5846,,adl
3.361762,-0.6369,-0.1476,0.8182,0.0581,-0.0543,0.0386,33.0254,3.0134,28.5846,,adl
3.368676,-1.0632,-0.6699,0.4656,0.0581,-0.0543,0.0386,33.0254,3.0134,28.5846,,adl
3.372591,-1.0632,-0.6699,0.4656,0.0581,-0.0543,0.0386,33.0254,3.0134,28.5846,,adl
3.373309,-1.0632,-0.6699,0.4656,0.0581,-0.0543,0.0386,33.0254,3.0134,28.5846,,adl
3.374054,-1.0632,-0.6699,0.4656,0.0581,-0.0543,0.0386,33.0254,3.0134,28.5846,,adl
3.37468,-1.0632,-0.6699,0.4656,0.0581,-0.0543,0.0386,33.0254,3.0134,28.5846,,adl
3.390711,-1.0632,-0.6699,0.4656,0.0581,-0.0543,0.0386,33.3426,3.2086,28.243,,adl
3.43238,-1.0632,-0.6699,0.4656,0.1174,-0.2374,-0.0505,33.3426,3.2086,28.243,,adl
3.44113,-1.1482,-1.4306,-0.1016,0.1174,-0.2374,-0.0505,33.3426,3.2086,28.243,,adl
3.442671,-1.1482,-1.4306,-0.1016,0.1174,-0.2374,-0.0505,33.3426,3.2086,28.243,,adl
3.443436,-1.1482,-1.4306,-0.1016,0.1174,-0.2374,-0.0505,33.3426,3.2086,28.243,,adl
3.444171,-1.1482,-1.4306,-0.1016,0.1174,-0.2374,-0.0505,33.3426,3.2086,28.243,,adl
3.459808,-1.1482,-1.4306,-0.1016,0.1174,-0.2374,-0.0505,33.6354,3.4526,27.9624,,adl
3.50049,-1.1482,-1.4306,-0.1016,-0.2075,-0.1485,-0.2987,33.6354,3.4526,27.9624,,adl
3.506527,-1.1482,-1.4306,-0.1016,-0.2075,-0.1485,-0.2987,33.6354,3.4526,27.9624,,adl
3.507672,-1.1482,-1.4306,-0.1016,-0.2075,-0.1485,-0.2987,33.6354,3.4526,27.9624,,adl
3.508765,-1.1482,-1.4306,-0.1016,-0.2075,-0.1485,-0.2987,33.6354,3.4526,27.9624,,adl
3.510152,0.541,0.9524,-1.0594,-0.2075,-0.1485,-0.2987,33.6354,3.4526,27.9624,,adl
3.519424,0.541,0.9524,-1.0594,-0.2075,-0.1485,-0.2987,33.8916,3.7576,27.7306,,adl
3.572028,0.541,0.9524,-1.0594,0.0288,-0.3039,-0.3003,33.8916,3.7576,27.7306,,adl
3.574047,0.541,0.9524,-1.0594,0.0288,-0.3039,-0.3003,33.8916,3.7576,27.7306,,adl
3.575016,0.541,0.9524,-1.0594,0.0288,-0.3039,-0.3003,33.8916,3.7576,27.7306,,adl
3.57601,0.541,0.9524,-1.0594,0.0288,-0.3039,-0.3003,33.8916,3.7576,27.7306,,adl
3.576962,0.541,0.9524,-1.0594,0.0288,-0.3039,-0.3003,33.8916,3.7576,27.7306,,adl
3.580907,0.541,0.9524,-1.0594,0.0288,-0.3039,-0.3003,34.1478,4.2212,27.4134,,adl
3.582459,1.3346,0.2289,-1.6195,0.0288,-0.3039,-0.3003,34.1478,4.2212,27.4134,,adl
3.641275,1.3346,0.2289,-1.6195,0.0288,-0.3039,-0.3003,34.4528,4.7214,27.0596,,adl
3.645876,1.3346,0.2289,-1.6195,-0.0313,-0.3208,-0.3089,34.4528,4.7214,27.0596,,adl
3.649236,1.3346,0.2289,-1.6195,-0.0313,-0.3208,-0.3089,34.4528,4.7214,27.0596,,adl
3.652501,1.3346,0.2289,-1.6195,-0.0313,-0.3208,-0.3089,34.4528,4.7214,27.0596,,adl
3.65497,1.3346,0.2289,-1.6195,-0.0313,-0.3208,-0.3089,34.4528,4.7214,27.0596,,adl
3.656626,1.0363,0.5863,-0.8554,-0.0313,-0.3208,-0.3089,34.4528,4.7214,27.0596,,adl
3.699858,1.0363,0.5863,-0.8554,-0.0313,-0.3208,-0.3089,34.7944,5.2948,26.5838,,adl
3.707631,1.0363,0.5863,-0.8554,0.0269,-0.3708,-0.224,34.7944,5.2948,26.5838,,adl
3.711011,1.0363,0.5863,-0.8554,0.0269,-0.3708,-0.224,34.7944,5.2948,26.5838,,adl
3.714023,1.0363,0.5863,-0.8554,0.0269,-0.3708,-0.224,34.7944,5.2948,26.5838,,adl
3.715389,1.0363,0.5863,-0.8554,0.0269,-0.3708,-0.224,34.7944,5.2948,26.5838,,adl
3.717496,1.0363,0.5863,-0.8554,0.0269,-0.3708,-0.224,34.7944,5.2948,26.5838,,adl
3.718968,1.3169,0.0425,-0.202,0.0269,-0.3708,-0.224,34.7944,5.2948,26.5838,,adl
3.759677,1.3169,0.0425,-0.202,0.0269,-0.3708,-0.224,35.1848,5.8438,26.1202,,adl
3.774677,1.3169,0.0425,-0.202,0.0269,-0.3708,-0.224,35.1848,5.8438,26.1202,,adl
3.776448,1.3169,0.0425,-0.202,0.0269,-0.3708,-0.224,35.1848,5.8438,26.1202,,adl
3.778115,1.3169,0.0425,-0.202,0.0269,-0.3708,-0.224,35.1848,5.8438,26.1202,,adl
3.779397,1.3169,0.0425,-0.202,-0.1117,-0.2944,-0.1676,35.1848,5.8438,26.1202,,adl
3.790703,0.0854,0.1503,0.1348,-0.1117,-0.2944,-0.1676,35.1848,5.8438,26.1202,,adl
3.818002,0.0854,0.1503,0.1348,-0.1117,-0.2944,-0.1676,35.6484,6.344,25.681,,adl
3.841833,0.0854,0.1503,0.1348,-0.1117,-0.2944,-0.1676,35.6484,6.344,25.681,,adl
3.845439,0.0854,0.1503,0.1348,-0.1117,-0.2944,-0.1676,35.6484,6.344,25.681,,adl
3.848084,0.0854,0.1503,0.1348,-0.1117,-0.2944,-0.1676,35.6484,6.344,25.681,,adl
3.850558,0.0854,0.1503,0.1348,-0.0919,0.0172,-0.1101,35.6484,6.344,25.681,,adl
3.858619,0.5869,0.568,0.0714,-0.0919,0.0172,-0.1101,35.6484,6.344,25.681,,adl
3.877208,0.5869,0.568,0.0714,-0.0919,0.0172,-0.1101,36.0388,6.9174,25.1564,,adl
3.908597,0.5869,0.568,0.0714,-0.0919,0.0172,-0.1101,36.0388,6.9174,25.1564,,adl
3.912148,0.5869,0.568,0.0714,-0.0919,0.0172,-0.1101,36.0388,6.9174,25.1564,,adl
3.915074,0.5869,0.568,0.0714,-0.0919,0.0172,-0.1101,36.0388,6.9174,25.1564,,adl
3.917491,0.5869,0.568,0.0714,-0.0919,0.0172,-0.1101,36.0388,6.9174,25.1564,,adl
3.919982,0.5869,0.568,0.0714,-0.0517,0.0333,0.0911,36.0388,6.9174,25.1564,,adl
3.928409,1.0299,0.1385,0.3807,-0.0517,0.0333,0.0911,36.0388,6.9174,25.1564,,adl
3.936967,1.0299,0.1385,0.3807,-0.0517,0.0333,0.0911,36.356,7.4542,24.6928,,adl
3.975306,1.0299,0.1385,0.3807,-0.0517,0.0333,0.0911,36.356,7.4542,24.6928,,adl
3.978392,1.0299,0.1385,0.3807,-0.0517,0.0333,0.0911,36.356,7.4542,24.6928,,adl
3.980474,1.0299,0.1385,0.3807,-0.0517,0.0333,0.0911,36.356,7.4542,24.6928,,adl
3.988898,1.0299,0.1385,0.3807,0.0213,-0.0278,0.2431,36.356,7.4542,24.6928,,adl
4.004883,-0.1897,0.2435,0.7584,0.0213,-0.0278,0.2431,36.356,7.4542,24.6928,,adl
4.009222,-0.1897,0.2435,0.7584,0.0213,-0.0278,0.2431,36.6366,7.8934,24.3146,,adl
4.042156,-0.1897,0.2435,0.7584,0.0213,-0.0278,0.2431,36.6366,7.8934,24.3146,,adl
4.044976,-0.1897,0.2435,0.7584,0.0213,-0.0278,0.2431,36.6366,7.8934,24.3146,,adl
4.047177,-0.1897,0.2435,0.7584,0.0213,-0.0278,0.2431,36.6366,7.8934,24.3146,,adl
4.05742,-0.1897,0.2435,0.7584,0.0213,-0.0278,0.2431,36.9416,8.1374,23.9608,,adl
4.060668,-0.1897,0.2435,0.7584,0.147,-0.0457,0.1917,36.9416,8.1374,23.9608,,adl
4.066938,0.3618,-0.1182,0.6762,0.147,-0.0457,0.1917,36.9416,8.1374,23.9608,,adl
4.107434,0.3618,-0.1182,0.6762,0.147,-0.0457,0.1917,36.9416,8.1374,23.9608,,adl
4.110489,0.3618,-0.1182,0.6762,0.147,-0.0457,0.1917,36.9416,8.1374,23.9608,,adl
4.112757,0.3618,-0.1182,0.6762,0.147,-0.0457,0.1917,36.9416,8.1374,23.9608,,adl
4.115052,0.3618,-0.1182,0.6762,0.147,-0.0457,0.1917,36.9416,8.1374,23.9608,,adl
4.119533,0.3618,-0.1182,0.6762,0.147,-0.0457,0.1917,37.1856,8.357,23.668,,adl
4.127614,0.3618,-0.1182,0.6762,0.2194,-0.083,0.0481,37.1856,8.357,23.668,,adl
4.138047,0.6294,-0.5768,0.7864,0.2194,-0.083,0.0481,37.1856,8.357,23.668,,adl
4.175629,0.6294,-0.5768,0.7864,0.2194,-0.083,0.0481,37.4052,8.4912,23.5338,,adl
4.179179,0.6294,-0.5768,0.7864,0.2194,-0.083,0.0481,37.4052,8.4912,23.5338,,adl
4.181254,0.6294,-0.5768,0.7864,0.2194,-0.083,0.0481,37.4052,8.4912,23.5338,,adl
4.18352,0.6294,-0.5768,0.7864,0.2194,-0.083,0.0481,37.4052,8.4912,23.5338,,adl
4.197688,0.6294,-0.5768,0.7864,0.1084,0.0678,-0.1216,37.4052,8.4912,23.5338,,adl
4.207749,0.6066,-0.6217,0.1845,0.1084,0.0678,-0.1216,37.4052,8.4912,23.5338,,adl
4.236817,0.6066,-0.6217,0.1845,0.1084,0.0678,-0.1216,37.4906,8.7108,23.4118,,adl
4.241871,0.6066,-0.6217,0.1845,0.1084,0.0678,-0.1216,37.4906,8.7108,23.4118,,adl
4.242994,0.6066,-0.6217,0.1845,0.1084,0.0678,-0.1216,37.4906,8.7108,23.4118,,adl
4.244208,0.6066,-0.6217,0.1845,0.1084,0.0678,-0.1216,37.4906,8.7108,23.4118,,adl
4.265742,0.6066,-0.6217,0.1845,0.1814,0.2389,0.0965,37.4906,8.7108,23.4118,,adl
4.275865,1.1339,-1.8415,-0.5211,0.1814,0.2389,0.0965,37.4906,8.7108,23.4118,,adl
4.295712,1.1339,-1.8415,-0.5211,0.1814,0.2389,0.0965,37.5516,8.7962,23.4606,,adl
4.306845,1.1339,-1.8415,-0.5211,0.1814,0.2389,0.0965,37.5516,8.7962,23.4606,,adl
4.307646,1.1339,-1.8415,-0.5211,0.1814,0.2389,0.0965,37.5516,8.7962,23.4606,,adl
4.3082,1.1339,-1.8415,-0.5211,0.1814,0.2389,0.0965,37.5516,8.7962,23.4606,,adl
4.309178,1.1339,-1.8415,-0.5211,0.1814,0.2389,0.0965,37.5516,8.7962,23.4606,,adl
4.337806,1.1339,-1.8415,-0.5211,-0.1763,0.1983,0.21,37.5516,8.7962,23.4606,,adl
4.350846,0.0606,2.0541,-1.7075,-0.1763,0.1983,0.21,37.5516,8.7962,23.4606,,adl
4.359741,0.0606,2.0541,-1.7075,-0.1763,0.1983,0.21,37.6004,8.7474,23.5704,,adl
4.374536,0.0606,2.0541,-1.7075,-0.1763,0.1983,0.21,37.6004,8.7474,23.5704,,adl
4.37575,0.0606,2.0541,-1.7075,-0.1763,0.1983,0.21,37.6004,8.7474,23.5704,,adl
4.376519,0.0606,2.0541,-1.7075,-0.1763,0.1983,0.21,37.6004,8.7474,23.5704,,adl
4.407355,0.0606,2.0541,-1.7075,0.1739,0.6814,0.112,37.6004,8.7474,23.5704,,adl
4.419285,0.0606,2.0541,-1.7075,0.1739,0.6814,0.112,37.5272,8.7596,23.8388,,adl
4.421771,-0.788,0.3787,-1.1315,0.1739,0.6814,0.112,37.5272,8.7596,23.8388,,adl
4.441952,-0.788,0.3787,-1.1315,0.1739,0.6814,0.112,37.5272,8.7596,23.8388,,adl
4.444044,-0.788,0.3787,-1.1315,0.1739,0.6814,0.112,37.5272,8.7596,23.8388,,adl
4.445454,-0.788,0.3787,-1.1315,0.1739,0.6814,0.112,37.5272,8.7596,23.8388,,adl
4.47797,-0.788,0.3787,-1.1315,0.1739,0.6814,0.112,37.3076,8.7718,24.2658,,adl
4.480679,-0.788,0.3787,-1.1315,0.1467,0.9139,0.3776,37.3076,8.7718,24.2658,,adl
4.486981,0.3491,-1.2108,-0.4016,0.1467,0.9139,0.3776,37.3076,8.7718,24.2658,,adl
4.508967,0.3491,-1.2108,-0.4016,0.1467,0.9139,0.3776,37.3076,8.7718,24.2658,,adl
4.511767,0.3491,-1.2108,-0.4016,0.1467,0.9139,0.3776,37.3076,8.7718,24.2658,,adl
4.513982,0.3491,-1.2108,-0.4016,0.1467,0.9139,0.3776,37.3076,8.7718,24.2658,,adl
4.515995,0.3491,-1.2108,-0.4016,0.1467,0.9139,0.3776,37.3076,8.7718,24.2658,,adl
4.536325,0.3491,-1.2108,-0.4016,0.1467,0.9139,0.3776,36.8196,8.7474,25.0222,,adl
4.546971,0.3491,-1.2108,-0.4016,-0.266,1.0994,0.1919,36.8196,8.7474,25.0222,,adl
4.562585,-0.1087,1.3676,-0.6565,-0.266,1.0994,0.1919,36.8196,8.7474,25.0222,,adl
4.575357,-0.1087,1.3676,-0.6565,-0.266,1.0994,0.1919,36.8196,8.7474,25.0222,,adl
4.577725,-0.1087,1.3676,-0.6565,-0.266,1.0994,0.1919,36.8196,8.7474,25.0222,,adl
4.578772,-0.1087,1.3676,-0.6565,-0.266,1.0994,0.1919,36.8196,8.7474,25.0222,,adl
4.595378,-0.1087,1.3676,-0.6565,-0.266,1.0994,0.1919,36.0388,8.5766,26.047,,adl
4.616637,-0.1087,1.3676,-0.6565,-0.1634,1.0085,0.1856,36.0388,8.5766,26.047,,adl
4.626383,-0.6706,0.2254,-0.1027,-0.1634,1.0085,0.1856,36.0388,8.5766,26.047,,adl
4.640505,-0.6706,0.2254,-0.1027,-0.1634,1.0085,0.1856,36.0388,8.5766,26.047,,adl
4.643752,-0.6706,0.2254,-0.1027,-0.1634,1.0085,0.1856,36.0388,8.5766,26.047,,adl
4.646274,-0.6706,0.2254,-0.1027,-0.1634,1.0085,0.1856,36.0388,8.5766,26.047,,adl
4.654905,-0.6706,0.2254,-0.1027,-0.1634,1.0085,0.1856,35.0018,8.2716,27.3524,,adl
4.685025,-0.6706,0.2254,-0.1027,-0.0229,1.0779,0.1518,35.0018,8.2716,27.3524,,adl
4.696008,-0.6099,-0.3794,0.0023,-0.0229,1.0779,0.1518,35.0018,8.2716,27.3524,,adl
4.708328,-0.6099,-0.3794,0.0023,-0.0229,1.0779,0.1518,35.0018,8.2716,27.3524,,adl
4.71206,-0.6099,-0.3794,0.0023,-0.0229,1.0779,0.1518,35.0018,8.2716,27.3524,,adl
4.714482,-0.6099,-0.3794,0.0023,-0.0229,1.0779,0.1518,35.0018,8.2716,27.3524,,adl
4.717121,-0.6099,-0.3794,0.0023,-0.0229,1.0779,0.1518,35.0018,8.2716,27.3524,,adl
4.719905,-0.6099,-0.3794,0.0023,-0.0229,1.0779,0.1518,33.7696,7.8568,28.8774,,adl
4.756347,-0.6099,-0.3794,0.0023,-0.1176,1.1581,0.0349,33.7696,7.8568,28.8774,,adl
4.766005,-0.0724,0.1585,0.0458,-0.1176,1.1581,0.0349,33.7696,7.8568,28.8774,,adl
4.774058,-0.0724,0.1585,0.0458,-0.1176,1.1581,0.0349,32.1104,7.5274,30.439,,adl
4.778201,-0.0724,0.1585,0.0458,-0.1176,1.1581,0.0349,32.1104,7.5274,30.439,,adl
4.78029,-0.0724,0.1585,0.0458,-0.1176,1.1581,0.0349,32.1104,7.5274,30.439,,adl
4.782804,-0.0724,0.1585,0.0458,-0.1176,1.1581,0.0349,32.1104,7.5274,30.439,,adl
4.826288,-0.0724,0.1585,0.0458,-0.1931,1.1677,0.0037,32.1104,7.5274,30.439,,adl
4.836855,-0.0724,0.1585,0.0458,-0.1931,1.1677,0.0037,30.1462,7.198,32.269,,adl
4.840262,-0.3995,0.3898,0.1977,-0.1931,1.1677,0.0037,30.1462,7.198,32.269,,adl
4.842919,-0.3995,0.3898,0.1977,-0.1931,1.1677,0.0037,30.1462,7.198,32.269,,adl
4.844971,-0.3995,0.3898,0.1977,-0.1931,1.1677,0.0037,30.1462,7.198,32.269,,adl
4.847114,-0.3995,0.3898,0.1977,-0.1931,1.1677,0.0037,30.1462,7.198,32.269,,adl
4.896876,-0.3995,0.3898,0.1977,-0.1931,1.1677,0.0037,28.06,6.7466,34.1844,,adl
4.900358,-0.3995,0.3898,0.1977,-0.0344,0.8418,0.1366,28.06,6.7466,34.1844,,adl
4.905628,-0.5978,-0.1044,0.42,-0.0344,0.8418,0.1366,28.06,6.7466,34.1844,,adl
4.908756,-0.5978,-0.1044,0.42,-0.0344,0.8418,0.1366,28.06,6.7466,34.1844,,adl
4.911549,-0.5978,-0.1044,0.42,-0.0344,0.8418,0.1366,28.06,6.7466,34.1844,,adl
4.913845,-0.5978,-0.1044,0.42,-0.0344,0.8418,0.1366,28.06,6.7466,34.1844,,adl
4.915027,-0.5978,-0.1044,0.42,-0.0344,0.8418,0.1366,28.06,6.7466,34.1844,,adl
4.956084,-0.5978,-0.1044,0.42,-0.0344,0.8418,0.1366,25.864,6.344,36.0144,,adl
4.965225,-0.5978,-0.1044,0.42,0.12,0.6272,0.0426,25.864,6.344,36.0144,,adl
4.974554,-1.4227,-0.3945,0.5731,0.12,0.6272,0.0426,25.864,6.344,36.0144,,adl
4.975843,-1.4227,-0.3945,0.5731,0.12,0.6272,0.0426,25.864,6.344,36.0144,,adl
4.97673,-1.4227,-0.3945,0.5731,0.12,0.6272,0.0426,25.864,6.344,36.0144,,adl
4.977773,-1.4227,-0.3945,0.5731,0.12,0.6272,0.0426,25.864,6.344,36.0144,,adl
5.015548,-1.4227,-0.3945,0.5731,0.12,0.6272,0.0426,23.7412,6.1488,37.6004,,adl
5.035055,-1.4227,-0.3945,0.5731,0.2174,0.1623,-0.1011,23.7412,6.1488,37.6004,,adl
5.040249,-1.4227,-0.3945,0.5731,0.2174,0.1623,-0.1011,23.7412,6.1488,37.6004,,adl
5.042748,-1.4227,-0.3945,0.5731,0.2174,0.1623,-0.1011,23.7412,6.1488,37.6004,,adl
5.044934,-1.4227,-0.3945,0.5731,0.2174,0.1623,-0.1011,23.7412,6.1488,37.6004,,adl
5.046618,-1.2502,-0.364,0.7283,0.2174,0.1623,-0.1011,23.7412,6.1488,37.6004,,adl
5.074684,-1.2502,-0.364,0.7283,0.2174,0.1623,-0.1011,21.8258,6.1,38.9058,,adl
5.105031,-1.2502,-0.364,0.7283,0.2358,-0.1674,-0.1755,21.8258,6.1,38.9058,,adl
5.10907,-1.2502,-0.364,0.7283,0.2358,-0.1674,-0.1755,21.8258,6.1,38.9058,,adl
5.112007,-1.2502,-0.364,0.7283,0.2358,-0.1674,-0.1755,21.8258,6.1,38.9058,,adl
5.115306,-1.2502,-0.364,0.7283,0.2358,-0.1674,-0.1755,21.8258,6.1,38.9058,,adl
5.117897,-1.2502,-0.364,0.7283,0.2358,-0.1674,-0.1755,21.8258,6.1,38.9058,,adl
5.119266,-1.9598,-0.4984,-0.351,0.2358,-0.1674,-0.1755,21.8258,6.1,38.9058,,adl
5.132993,-1.9598,-0.4984,-0.351,0.2358,-0.1674,-0.1755,20.2398,6.2098,40.0038,,adl
5.17531,-1.9598,-0.4984,-0.351,0.1755,-0.1638,-0.4322,20.2398,6.2098,40.0038,,adl
5.17896,-1.9598,-0.4984,-0.351,0.1755,-0.1638,-0.4322,20.2398,6.2098,40.0038,,adl
5.181468,-1.9598,-0.4984,-0.351,0.1755,-0.1638,-0.4322,20.2398,6.2098,40.0038,,adl
5.184699,-1.9598,-0.4984,-0.351,0.1755,-0.1638,-0.4322,20.2398,6.2098,40.0038,,adl
5.187357,0.6541,-0.5352,-0.3508,0.1755,-0.1638,-0.4322,20.2398,6.2098,40.0038,,adl
5.193799,0.6541,-0.5352,-0.3508,0.1755,-0.1638,-0.4322,18.8978,6.466,40.8456,,adl
5.242386,0.6541,-0.5352,-0.3508,-0.0035,-0.2238,-0.3159,18.8978,6.466,40.8456,,adl
5.246728,0.6541,-0.5352,-0.3508,-0.0035,-0.2238,-0.3159,18.8978,6.466,40.8456,,adl
5.249476,0.6541,-0.5352,-0.3508,-0.0035,-0.2238,-0.3159,18.8978,6.466,40.8456,,adl
5.252394,0.6541,-0.5352,-0.3508,-0.0035,-0.2238,-0.3159,18.8978,6.466,40.8456,,adl
5.256935,0.7039,1.3072,-1.2316,-0.0035,-0.2238,-0.3159,18.8978,6.466,40.8456,,adl
5.260353,0.7039,1.3072,-1.2316,-0.0035,-0.2238,-0.3159,17.9584,6.8564,41.419,,adl
5.308875,0.7039,1.3072,-1.2316,-0.0035,-0.2238,-0.3159,17.9584,6.8564,41.419,,adl
5.313235,0.7039,1.3072,-1.2316,-0.0035,-0.2238,-0.3159,17.9584,6.8564,41.419,,adl
5.316571,0.7039,1.3072,-1.2316,-0.0035,-0.2238,-0.3159,17.9584,6.8564,41.419,,adl
5.319052,0.7039,1.3072,-1.2316,-0.0035,-0.2238,-0.3159,17.9584,6.8564,41.419,,adl
5.321392,0.7039,1.3072,-1.2316,-0.0035,-0.2238,-0.3159,17.4948,7.3566,41.6996,,adl
5.323611,0.7039,1.3072,-1.2316,0.0896,-0.4549,-0.2594,17.4948,7.3566,41.6996,,adl
5.325213,0.5656,0.4862,-0.3837,0.0896,-0.4549,-0.2594,17.4948,7.3566,41.6996,,adl
5.374682,0.5656,0.4862,-0.3837,0.0896,-0.4549,-0.2594,17.385,7.9788,41.724,,adl
5.378667,0.5656,0.4862,-0.3837,0.0896,-0.4549,-0.2594,17.385,7.9788,41.724,,adl
5.381079,0.5656,0.4862,-0.3837,0.0896,-0.4549,-0.2594,17.385,7.9788,41.724,,adl
5.384318,0.5656,0.4862,-0.3837,0.0896,-0.4549,-0.2594,17.385,7.9788,41.724,,adl
5.386899,0.5656,0.4862,-0.3837,0.0929,-0.2389,-0.287,17.385,7.9788,41.724,,adl
5.393808,0.7652,-0.487,-0.2185,0.0929,-0.2389,-0.287,17.385,7.9788,41.724,,adl
5.434203,0.7652,-0.487,-0.2185,0.0929,-0.2389,-0.287,17.5558,8.6498,41.5654,,adl
5.44038,0.7652,-0.487,-0.2185,0.0929,-0.2389,-0.287,17.5558,8.6498,41.5654,,adl
5.443646,0.7652,-0.487,-0.2185,0.0929,-0.2389,-0.287,17.5558,8.6498,41.5654,,adl
5.446414,0.7652,-0.487,-0.2185,0.0929,-0.2389,-0.287,17.5558,8.6498,41.5654,,adl
5.453316,0.7652,-0.487,-0.2185,-0.0557,-0.2222,-0.1791,17.5558,8.6498,41.5654,,adl
5.464776,0.9599,0.5743,-0.0516,-0.0557,-0.2222,-0.1791,17.5558,8.6498,41.5654,,adl
5.493385,0.9599,0.5743,-0.0516,-0.0557,-0.2222,-0.1791,17.934,9.2476,41.3946,,adl
5.508459,0.9599,0.5743,-0.0516,-0.0557,-0.2222,-0.1791,17.934,9.2476,41.3946,,adl
5.512161,0.9599,0.5743,-0.0516,-0.0557,-0.2222,-0.1791,17.934,9.2476,41.3946,,adl
5.515317,0.9599,0.5743,-0.0516,-0.0557,-0.2222,-0.1791,17.934,9.2476,41.3946,,adl
5.51846,0.9599,0.5743,-0.0516,-0.0557,-0.2222,-0.1791,17.934,9.2476,41.3946,,adl
5.524325,0.9599,0.5743,-0.0516,-0.055,-0.3826,-0.0782,17.934,9.2476,41.3946,,adl
5.534109,0.0425,0.431,-0.0583,-0.055,-0.3826,-0.0782,17.934,9.2476,41.3946,,adl
5.553276,0.0425,0.431,-0.0583,-0.055,-0.3826,-0.0782,18.4464,9.7722,41.1506,,adl
5.574555,0.0425,0.431,-0.0583,-0.055,-0.3826,-0.0782,18.4464,9.7722,41.1506,,adl
5.576298,0.0425,0.431,-0.0583,-0.055,-0.3826,-0.0782,18.4464,9.7722,41.1506,,adl
5.577811,0.0425,0.431,-0.0583,-0.055,-0.3826,-0.0782,18.4464,9.7722,41.1506,,adl
5.593316,0.0425,0.431,-0.0583,0.0722,-0.3783,0.0563,18.4464,9.7722,41.1506,,adl
5.602841,-0.0139,-0.0481,0.1407,0.0722,-0.3783,0.0563,18.4464,9.7722,41.1506,,adl
5.623009,-0.0139,-0.0481,0.1407,0.0722,-0.3783,0.0563,19.0564,10.2236,40.8212,,adl
5.641939,-0.0139,-0.0481,0.1407,0.0722,-0.3783,0.0563,19.0564,10.2236,40.8212,,adl
5.644248,-0.0139,-0.0481,0.1407,0.0722,-0.3783,0.0563,19.0564,10.2236,40.8212,,adl
5.646246,-0.0139,-0.0481,0.1407,0.0722,-0.3783,0.0563,19.0564,10.2236,40.8212,,adl
5.648381,-0.0139,-0.0481,0.1407,0.0722,-0.3783,0.0563,19.0564,10.2236,40.8212,,adl
5.662923,-0.0139,-0.0481,0.1407,0.0376,-0.2843,0.1405,19.0564,10.2236,40.8212,,adl
5.672734,0.5557,0.3939,0.4659,0.0376,-0.2843,0.1405,19.0564,10.2236,40.8212,,adl
5.68415,0.5557,0.3939,0.4659,0.0376,-0.2843,0.1405,19.703,10.5652,40.4796,,adl
5.708257,0.5557,0.3939,0.4659,0.0376,-0.2843,0.1405,19.703,10.5652,40.4796,,adl
5.711154,0.5557,0.3939,0.4659,0.0376,-0.2843,0.1405,19.703,10.5652,40.4796,,adl
5.713392,0.5557,0.3939,0.4659,0.0376,-0.2843,0.1405,19.703,10.5652,40.4796,,adl
5.732799,0.5557,0.3939,0.4659,0.0999,-0.2087,0.1674,19.703,10.5652,40.4796,,adl
5.742546,0.5557,0.3939,0.4659,0.0999,-0.2087,0.1674,20.4228,10.8092,40.138,,adl
5.745533,0.3824,-0.2972,0.7245,0.0999,-0.2087,0.1674,20.4228,10.8092,40.138,,adl
5.774803,0.3824,-0.2972,0.7245,0.0999,-0.2087,0.1674,20.4228,10.8092,40.138,,adl
5.777456,0.3824,-0.2972,0.7245,0.0999,-0.2087,0.1674,20.4228,10.8092,40.138,,adl
5.779841,0.3824,-0.2972,0.7245,0.0999,-0.2087,0.1674,20.4228,10.8092,40.138,,adl
5.802533,0.3824,-0.2972,0.7245,0.0322,-0.2535,0.2168,20.4228,10.8092,40.138,,adl
5.805757,0.3824,-0.2972,0.7245,0.0322,-0.2535,0.2168,21.0938,10.9556,39.833,,adl
5.81124,0.5257,0.1357,0.5019,0.0322,-0.2535,0.2168,21.0938,10.9556,39.833,,adl
5.842146,0.5257,0.1357,0.5019,0.0322,-0.2535,0.2168,21.0938,10.9556,39.833,,adl
5.84506,0.5257,0.1357,0.5019,0.0322,-0.2535,0.2168,21.0938,10.9556,39.833,,adl
5.847486,0.5257,0.1357,0.5019,0.0322,-0.2535,0.2168,21.0938,10.9556,39.833,,adl
5.849968,0.5257,0.1357,0.5019,0.0322,-0.2535,0.2168,21.0938,10.9556,39.833,,adl
5.861965,0.5257,0.1357,0.5019,0.0322,-0.2535,0.2168,21.777,10.98,39.5036,,adl
5.870009,0.5257,0.1357,0.5019,0.0874,-0.3519,0.2289,21.777,10.98,39.5036,,adl
5.881655,0.3949,0.0015,0.5171,0.0874,-0.3519,0.2289,21.777,10.98,39.5036,,adl
5.908717,0.3949,0.0015,0.5171,0.0874,-0.3519,0.2289,21.777,10.98,39.5036,,adl
5.911778,0.3949,0.0015,0.5171,0.0874,-0.3519,0.2289,21.777,10.98,39.5036,,adl
5.914113,0.3949,0.0015,0.5171,0.0874,-0.3519,0.2289,21.777,10.98,39.5036,,adl
5.922188,0.3949,0.0015,0.5171,0.0874,-0.3519,0.2289,22.5334,10.919,39.2108,,adl
5.940469,0.3949,0.0015,0.5171,0.1081,-0.3004,0.1947,22.5334,10.919,39.2108,,adl
5.951633,0.5408,-0.3553,0.4731,0.1081,-0.3004,0.1947,22.5334,10.919,39.2108,,adl
5.974848,0.5408,-0.3553,0.4731,0.1081,-0.3004,0.1947,22.5334,10.919,39.2108,,adl
5.978194,0.5408,-0.3553,0.4731,0.1081,-0.3004,0.1947,22.5334,10.919,39.2108,,adl
5.981198,0.5408,-0.3553,0.4731,0.1081,-0.3004,0.1947,22.5334,10.919,39.2108,,adl
5.983695,0.5408,-0.3553,0.4731,0.1081,-0.3004,0.1947,23.3264,10.8458,38.8326,,adl
6.011353,0.5408,-0.3553,0.4731,-0.01,-0.0383,-0.1613,23.3264,10.8458,38.8326,,adl
6.024636,0.6259,-0.1488,0.1938,-0.01,-0.0383,-0.1613,23.3264,10.8458,38.8326,,adl
6.042753,0.6259,-0.1488,0.1938,-0.01,-0.0383,-0.1613,24.0096,10.8214,38.5276,,adl
6.044687,0.6259,-0.1488,0.1938,-0.01,-0.0383,-0.1613,24.0096,10.8214,38.5276,,adl
6.045878,0.6259,-0.1488,0.1938,-0.01,-0.0383,-0.1613,24.0096,10.8214,38.5276,,adl
6.046947,0.6259,-0.1488,0.1938,-0.01,-0.0383,-0.1613,24.0096,10.8214,38.5276,,adl
6.047932,0.6259,-0.1488,0.1938,-0.01,-0.0383,-0.1613,24.0096,10.8214,38.5276,,adl
6.082252,0.6259,-0.1488,0.1938,0.3679,0.182,-0.0698,24.0096,10.8214,38.5276,,adl
6.091193,0.7062,-1.8557,-0.2005,0.3679,0.182,-0.0698,24.0096,10.8214,38.5276,,adl
6.101339,0.7062,-1.8557,-0.2005,0.3679,0.182,-0.0698,24.4732,10.9556,38.2104,,adl
6.10922,0.7062,-1.8557,-0.2005,0.3679,0.182,-0.0698,24.4732,10.9556,38.2104,,adl
6.111306,0.7062,-1.8557,-0.2005,0.3679,0.182,-0.0698,24.4732,10.9556,38.2104,,adl
6.112537,0.7062,-1.8557,-0.2005,0.3679,0.182,-0.0698,24.4732,10.9556,38.2104,,adl
6.151703,0.7062,-1.8557,-0.2005,-0.268,-0.2245,0.2372,24.4732,10.9556,38.2104,,adl
6.161459,0.7062,-1.8557,-0.2005,-0.268,-0.2245,0.2372,24.888,10.98,37.9786,,adl
6.164598,-0.6456,0.8869,-0.9085,-0.268,-0.2245,0.2372,24.888,10.98,37.9786,,adl
6.174686,-0.6456,0.8869,-0.9085,-0.268,-0.2245,0.2372,24.888,10.98,37.9786,,adl
6.175698,-0.6456,0.8869,-0.9085,-0.268,-0.2245,0.2372,24.888,10.98,37.9786,,adl
6.176457,-0.6456,0.8869,-0.9085,-0.268,-0.2245,0.2372,24.888,10.98,37.9786,,adl
6.221071,-0.6456,0.8869,-0.9085,-0.268,-0.2245,0.2372,25.3516,10.9068,37.7224,,adl
6.223005,-0.6456,0.8869,-0.9085,-0.186,-0.4193,0.0956,25.3516,10.9068,37.7224,,adl
6.232988,-1.6241,1.0054,-1.0776,-0.186,-0.4193,0.0956,25.3516,10.9068,37.7224,,adl
6.241848,-1.6241,1.0054,-1.0776,-0.186,-0.4193,0.0956,25.3516,10.9068,37.7224,,adl
6.244622,-1.6241,1.0054,-1.0776,-0.186,-0.4193,0.0956,25.3516,10.9068,37.7224,,adl
6.247449,-1.6241,1.0054,-1.0776,-0.186,-0.4193,0.0956,25.3516,10.9068,37.7224,,adl
6.249423,-1.6241,1.0054,-1.0776,-0.186,-0.4193,0.0956,25.3516,10.9068,37.7224,,adl
6.280938,-1.6241,1.0054,-1.0776,-0.186,-0.4193,0.0956,25.864,10.7848,37.4784,,adl
6.29044,-1.6241,1.0054,-1.0776,-0.0253,-0.3438,0.1936,25.864,10.7848,37.4784,,adl
6.300941,-1.3163,-0.8594,-0.442,-0.0253,-0.3438,0.1936,25.864,10.7848,37.4784,,adl
6.308671,-1.3163,-0.8594,-0.442,-0.0253,-0.3438,0.1936,25.864,10.7848,37.4784,,adl
6.312177,-1.3163,-0.8594,-0.442,-0.0253,-0.3438,0.1936,25.864,10.7848,37.4784,,adl
6.315515,-1.3163,-0.8594,-0.442,-0.0253,-0.3438,0.1936,25.864,10.7848,37.4784,,adl
6.340444,-1.3163,-0.8594,-0.442,-0.0253,-0.3438,0.1936,26.3886,10.6262,37.2466,,adl
6.360448,-1.3163,-0.8594,-0.442,-0.1969,-0.3237,0.1884,26.3886,10.6262,37.2466,,adl
6.370647,0.4873,0.0752,0.0379,-0.1969,-0.3237,0.1884,26.3886,10.6262,37.2466,,adl
6.374229,0.4873,0.0752,0.0379,-0.1969,-0.3237,0.1884,26.3886,10.6262,37.2466,,adl
6.376607,0.4873,0.0752,0.0379,-0.1969,-0.3237,0.1884,26.3886,10.6262,37.2466,,adl
6.379745,0.4873,0.0752,0.0379,-0.1969,-0.3237,0.1884,26.3886,10.6262,37.2466,,adl
6.392786,0.4873,0.0752,0.0379,-0.1969,-0.3237,0.1884,26.8888,10.4188,36.9538,,adl
6.430492,0.4873,0.0752,0.0379,-0.2401,-0.2439,0.0326,26.8888,10.4188,36.9538,,adl
6.44246,-0.6897,0.7111,0.5258,-0.2401,-0.2439,0.0326,26.8888,10.4188,36.9538,,adl
6.445952,-0.6897,0.7111,0.5258,-0.2401,-0.2439,0.0326,26.8888,10.4188,36.9538,,adl
6.448351,-0.6897,0.7111,0.5258,-0.2401,-0.2439,0.0326,26.8888,10.4188,36.9538,,adl
6.450934,-0.6897,0.7111,0.5258,-0.2401,-0.2439,0.0326,26.8888,10.4188,36.9538,,adl
6.452914,-0.6897,0.7111,0.5258,-0.2401,-0.2439,0.0326,26.8888,10.4188,36.9538,,adl
6.461157,-0.6897,0.7111,0.5258,-0.2401,-0.2439,0.0326,27.389,10.1138,36.7464,,adl
6.499282,-0.6897,0.7111,0.5258,-0.0895,-0.0658,0.0349,27.389,10.1138,36.7464,,adl
6.508792,-0.4831,-0.2509,0.7443,-0.0895,-0.0658,0.0349,27.389,10.1138,36.7464,,adl
6.510435,-0.4831,-0.2509,0.7443,-0.0895,-0.0658,0.0349,27.389,10.1138,36.7464,,adl
6.511223,-0.4831,-0.2509,0.7443,-0.0895,-0.0658,0.0349,27.389,10.1138,36.7464,,adl
6.512015,-0.4831,-0.2509,0.7443,-0.0895,-0.0658,0.0349,27.389,10.1138,36.7464,,adl
6.518951,-0.4831,-0.2509,0.7443,-0.0895,-0.0658,0.0349,27.9258,9.6624,36.5878,,adl
6.570246,-0.4831,-0.2509,0.7443,-0.0292,0.0044,-0.0684,27.9258,9.6624,36.5878,,adl
6.574239,-0.4831,-0.2509,0.7443,-0.0292,0.0044,-0.0684,27.9258,9.6624,36.5878,,adl
6.576715,-0.4831,-0.2509,0.7443,-0.0292,0.0044,-0.0684,27.9258,9.6624,36.5878,,adl
6.579298,-0.4831,-0.2509,0.7443,-0.0292,0.0044,-0.0684,27.9258,9.6624,36.5878,,adl
6.582033,-0.4831,-0.2509,0.7443,-0.0292,0.0044,-0.0684,28.5236,9.089,36.4902,,adl
6.583866,-0.4477,0.0017,0.7913,-0.0292,0.0044,-0.0684,28.5236,9.089,36.4902,,adl
6.640675,-0.4477,0.0017,0.7913,-0.0292,0.0044,-0.0684,29.036,8.6742,36.3072,,adl
6.64487,-0.4477,0.0017,0.7913,-0.0292,0.0044,-0.0684,29.036,8.6742,36.3072,,adl
6.647375,-0.4477,0.0017,0.7913,-0.0292,0.0044,-0.0684,29.036,8.6742,36.3072,,adl
6.650034,-0.4477,0.0017,0.7913,-0.0292,0.0044,-0.0684,29.036,8.6742,36.3072,,adl
6.652452,-0.4477,0.0017,0.7913,-0.0292,0.0044,-0.0684,29.036,8.6742,36.3072,,adl
6.65477,-0.4477,0.0017,0.7913,-0.1483,0.1466,-0.2236,29.036,8.6742,36.3072,,adl
6.656241,-0.6591,0.6216,0.3948,-0.1483,0.1466,-0.2236,29.036,8.6742,36.3072,,adl
6.69956,-0.6591,0.6216,0.3948,-0.1483,0.1466,-0.2236,29.3776,8.3814,36.2096,,adl
6.707151,-0.6591,0.6216,0.3948,-0.0127,0.1353,-0.1342,29.3776,8.3814,36.2096,,adl
6.710148,-0.6591,0.6216,0.3948,-0.0127,0.1353,-0.1342,29.3776,8.3814,36.2096,,adl
6.712472,-0.6591,0.6216,0.3948,-0.0127,0.1353,-0.1342,29.3776,8.3814,36.2096,,adl
6.715097,-0.6591,0.6216,0.3948,-0.0127,0.1353,-0.1342,29.3776,8.3814,36.2096,,adl
6.720236,-0.7923,-0.4652,0.671,-0.0127,0.1353,-0.1342,29.3776,8.3814,36.2096,,adl
6.759029,-0.7923,-0.4652,0.671,-0.0127,0.1353,-0.1342,29.5728,8.1374,36.1974,,adl
6.774569,-0.7923,-0.4652,0.671,-0.0127,0.1353,-0.1342,29.5728,8.1374,36.1974,,adl
6.775872,-0.7923,-0.4652,0.671,-0.0127,0.1353,-0.1342,29.5728,8.1374,36.1974,,adl
6.776693,-0.7923,-0.4652,0.671,-0.0127,0.1353,-0.1342,29.5728,8.1374,36.1974,,adl
6.777469,-0.7923,-0.4652,0.671,0.0128,0.1261,0.2325,29.5728,8.1374,36.1974,,adl
6.790053,-0.5207,-0.5019,0.1363,0.0128,0.1261,0.2325,29.5728,8.1374,36.1974,,adl
6.818533,-0.5207,-0.5019,0.1363,0.0128,0.1261,0.2325,29.5728,7.9422,36.2706,,adl
6.841643,-0.5207,-0.5019,0.1363,0.0128,0.1261,0.2325,29.5728,7.9422,36.2706,,adl
6.843246,-0.5207,-0.5019,0.1363,0.0128,0.1261,0.2325,29.5728,7.9422,36.2706,,adl
6.844263,-0.5207,-0.5019,0.1363,0.0128,0.1261,0.2325,29.5728,7.9422,36.2706,,adl
6.845254,-0.5207,-0.5019,0.1363,0.0128,0.1261,0.2325,29.5728,7.9422,36.2706,,adl
6.847291,-0.5207,-0.5019,0.1363,-0.0344,0.3285,0.0929,29.5728,7.9422,36.2706,,adl
6.856907,0.0236,-0.8441,0.1177,-0.0344,0.3285,0.0929,29.5728,7.9422,36.2706,,adl
6.876757,0.0236,-0.8441,0.1177,-0.0344,0.3285,0.0929,29.4874,7.7714,36.5146,,adl
6.908306,0.0236,-0.8441,0.1177,-0.0344,0.3285,0.0929,29.4874,7.7714,36.5146,,adl
6.911137,0.0236,-0.8441,0.1177,-0.0344,0.3285,0.0929,29.4874,7.7714,36.5146,,adl
6.913455,0.0236,-0.8441,0.1177,-0.0344,0.3285,0.0929,29.4874,7.7714,36.5146,,adl
6.918879,0.0236,-0.8441,0.1177,0.0671,0.2735,-0.471,29.4874,7.7714,36.5146,,adl
6.928622,0.54,0.005,-0.8394,0.0671,0.2735,-0.471,29.4874,7.7714,36.5146,,adl
6.939465,0.54,0.005,-0.8394,0.0671,0.2735,-0.471,29.1458,7.8202,36.8074,,adl
6.974546,0.54,0.005,-0.8394,0.0671,0.2735,-0.471,29.1458,7.8202,36.8074,,adl
6.977428,0.54,0.005,-0.8394,0.0671,0.2735,-0.471,29.1458,7.8202,36.8074,,adl
6.979858,0.54,0.005,-0.8394,0.0671,0.2735,-0.471,29.1458,7.8202,36.8074,,adl
6.988991,0.54,0.005,-0.8394,0.2147,-0.0808,-0.3875,29.1458,7.8202,36.8074,,adl
6.998207,0.54,0.005,-0.8394,0.2147,-0.0808,-0.3875,28.7554,8.0886,37.0636,,adl
7.001422,0.5743,-0.4762,-0.9532,0.2147,-0.0808,-0.3875,28.7554,8.0886,37.0636,,adl
7.042344,0.5743,-0.4762,-0.9532,0.2147,-0.0808,-0.3875,28.7554,8.0886,37.0636,,adl
7.045718,0.5743,-0.4762,-0.9532,0.2147,-0.0808,-0.3875,28.7554,8.0886,37.0636,,adl
7.048214,0.5743,-0.4762,-0.9532,0.2147,-0.0808,-0.3875,28.7554,8.0886,37.0636,,adl
7.050878,0.5743,-0.4762,-0.9532,0.2147,-0.0808,-0.3875,28.7554,8.0886,37.0636,,adl
7.058157,0.5743,-0.4762,-0.9532,0.2147,-0.0808,-0.3875,28.365,8.4424,37.2466,,adl
7.06228,0.5743,-0.4762,-0.9532,-0.0542,-0.0883,-0.3867,28.365,8.4424,37.2466,,adl
7.07215,1.3256,1.2567,-0.1779,-0.0542,-0.0883,-0.3867,28.365,8.4424,37.2466,,adl
7.108235,1.3256,1.2567,-0.1779,-0.0542,-0.0883,-0.3867,28.365,8.4424,37.2466,,adl
7.109813,1.3256,1.2567,-0.1779,-0.0542,-0.0883,-0.3867,28.365,8.4424,37.2466,,adl
7.110765,1.3256,1.2567,-0.1779,-0.0542,-0.0883,-0.3867,28.365,8.4424,37.2466,,adl
7.119543,1.3256,1.2567,-0.1779,-0.0542,-0.0883,-0.3867,28.0234,8.8328,37.454,,adl
7.127004,1.3256,1.2567,-0.1779,0.1044,0.0285,-0.3004,28.0234,8.8328,37.454,,adl
7.138011,0.8527,-0.1733,-0.1286,0.1044,0.0285,-0.3004,28.0234,8.8328,37.454,,adl
7.175909,0.8527,-0.1733,-0.1286,0.1044,0.0285,-0.3004,27.694,9.2354,37.7346,,adl
7.179456,0.8527,-0.1733,-0.1286,0.1044,0.0285,-0.3004,27.694,9.2354,37.7346,,adl
7.181528,0.8527,-0.1733,-0.1286,0.1044,0.0285,-0.3004,27.694,9.2354,37.7346,,adl
7.183812,0.8527,-0.1733,-0.1286,0.1044,0.0285,-0.3004,27.694,9.2354,37.7346,,adl
7.196241,0.8527,-0.1733,-0.1286,-0.0157,0.1895,-0.2017,27.694,9.2354,37.7346,,adl
7.207,0.4821,0.5556,-0.3934,-0.0157,0.1895,-0.2017,27.694,9.2354,37.7346,,adl
7.236026,0.4821,0.5556,-0.3934,-0.0157,0.1895,-0.2017,27.2914,9.7112,37.942,,adl
7.239544,0.4821,0.5556,-0.3934,-0.0157,0.1895,-0.2017,27.2914,9.7112,37.942,,adl
7.241259,0.4821,0.5556,-0.3934,-0.0157,0.1895,-0.2017,27.2914,9.7112,37.942,,adl
7.243661,0.4821,0.5556,-0.3934,-0.0157,0.1895,-0.2017,27.2914,9.7112,37.942,,adl
7.245766,0.4821,0.5556,-0.3934,-0.0157,0.1895,-0.2017,27.2914,9.7112,37.942,,adl
7.265906,0.4821,0.5556,-0.3934,-0.0446,0.1597,-0.1599,27.2914,9.7112,37.942,,adl
7.27578,0.6682,0.6181,-0.0306,-0.0446,0.1597,-0.1599,27.2914,9.7112,37.942,,adl
7.296368,0.6682,0.6181,-0.0306,-0.0446,0.1597,-0.1599,26.9376,10.2602,38.1494,,adl
7.307537,0.6682,0.6181,-0.0306,-0.0446,0.1597,-0.1599,26.9376,10.2602,38.1494,,adl
7.310738,0.6682,0.6181,-0.0306,-0.0446,0.1597,-0.1599,26.9376,10.2602,38.1494,,adl
7.313162,0.6682,0.6181,-0.0306,-0.0446,0.1597,-0.1599,26.9376,10.2602,38.1494,,adl
7.335539,0.6682,0.6181,-0.0306,0.0365,0.1766,-0.0453,26.9376,10.2602,38.1494,,adl
7.350337,-0.2091,-0.1321,0.3208,0.0365,0.1766,-0.0453,26.9376,10.2602,38.1494,,adl
7.358442,-0.2091,-0.1321,0.3208,0.0365,0.1766,-0.0453,26.5228,10.8702,38.308,,adl
7.373846,-0.2091,-0.1321,0.3208,0.0365,0.1766,-0.0453,26.5228,10.8702,38.308,,adl
7.375052,-0.2091,-0.1321,0.3208,0.0365,0.1766,-0.0453,26.5228,10.8702,38.308,,adl
7.375821,-0.2091,-0.1321,0.3208,0.0365,0.1766,-0.0453,26.5228,10.8702,38.308,,adl
7.406314,-0.2091,-0.1321,0.3208,0.0522,0.2497,0.1585,26.5228,10.8702,38.308,,adl
7.4148,-0.2091,-0.1321,0.3208,0.0522,0.2497,0.1585,26.2178,11.3338,38.491,,adl
7.415636,0.5512,0.2893,0.5399,0.0522,0.2497,0.1585,26.2178,11.3338,38.491,,adl
7.441665,0.5512,0.2893,0.5399,0.0522,0.2497,0.1585,26.2178,11.3338,38.491,,adl
7.44372,0.5512,0.2893,0.5399,0.0522,0.2497,0.1585,26.2178,11.3338,38.491,,adl
7.445086,0.5512,0.2893,0.5399,0.0522,0.2497,0.1585,26.2178,11.3338,38.491,,adl
7.446651,0.5512,0.2893,0.5399,0.0522,0.2497,0.1585,26.2178,11.3338,38.491,,adl
7.476794,0.5512,0.2893,0.5399,0.0522,0.2497,0.1585,25.8762,11.6266,38.6984,,adl
7.479632,0.5512,0.2893,0.5399,-0.0096,0.2728,0.3631,25.8762,11.6266,38.6984,,adl
7.486501,0.4587,0.4151,0.3585,-0.0096,0.2728,0.3631,25.8762,11.6266,38.6984,,adl
7.508279,0.4587,0.4151,0.3585,-0.0096,0.2728,0.3631,25.8762,11.6266,38.6984,,adl
7.510424,0.4587,0.4151,0.3585,-0.0096,0.2728,0.3631,25.8762,11.6266,38.6984,,adl
7.511629,0.4587,0.4151,0.3585,-0.0096,0.2728,0.3631,25.8762,11.6266,38.6984,,adl
7.536077,0.4587,0.4151,0.3585,-0.0096,0.2728,0.3631,25.498,11.7364,38.9546,,adl
7.546669,0.4587,0.4151,0.3585,-0.1264,0.267,0.5103,25.498,11.7364,38.9546,,adl
7.557747,0.5927,0.1422,0.4307,-0.1264,0.267,0.5103,25.498,11.7364,38.9546,,adl
7.575473,0.5927,0.1422,0.4307,-0.1264,0.267,0.5103,25.498,11.7364,38.9546,,adl
7.578467,0.5927,0.1422,0.4307,-0.1264,0.267,0.5103,25.498,11.7364,38.9546,,adl
7.5805,0.5927,0.1422,0.4307,-0.1264,0.267,0.5103,25.498,11.7364,38.9546,,adl
7.582742,0.5927,0.1422,0.4307,-0.1264,0.267,0.5103,25.498,11.7364,38.9546,,adl
7.596017,0.5927,0.1422,0.4307,-0.1264,0.267,0.5103,25.0588,11.5778,39.3206,,adl
7.616298,0.5927,0.1422,0.4307,-0.1527,0.3125,0.589,25.0588,11.5778,39.3206,,adl
7.625881,0.802,0.2977,0.6211,-0.1527,0.3125,0.589,25.0588,11.5778,39.3206,,adl
7.64222,0.802,0.2977,0.6211,-0.1527,0.3125,0.589,25.0588,11.5778,39.3206,,adl
7.644976,0.802,0.2977,0.6211,-0.1527,0.3125,0.589,25.0588,11.5778,39.3206,,adl
7.647071,0.802,0.2977,0.6211,-0.1527,0.3125,0.589,25.0588,11.5778,39.3206,,adl
7.655449,0.802,0.2977,0.6211,-0.1527,0.3125,0.589,24.5952,11.2484,39.7232,,adl
7.685781,0.802,0.2977,0.6211,0.1489,0.5123,0.2597,24.5952,11.2484,39.7232,,adl
7.69526,1.0304,-0.5667,0.3749,0.1489,0.5123,0.2597,24.5952,11.2484,39.7232,,adl
7.708059,1.0304,-0.5667,0.3749,0.1489,0.5123,0.2597,24.5952,11.2484,39.7232,,adl
7.71029,1.0304,-0.5667,0.3749,0.1489,0.5123,0.2597,24.5952,11.2484,39.7232,,adl
7.711477,1.0304,-0.5667,0.3749,0.1489,0.5123,0.2597,24.5952,11.2484,39.7232,,adl
7.714252,1.0304,-0.5667,0.3749,0.1489,0.5123,0.2597,24.095,10.8702,40.2112,,adl
7.755967,1.0304,-0.5667,0.3749,0.0228,0.5277,0.0499,24.095,10.8702,40.2112,,adl
7.76549,0.2876,-0.7824,0.7349,0.0228,0.5277,0.0499,24.095,10.8702,40.2112,,adl
7.774653,0.2876,-0.7824,0.7349,0.0228,0.5277,0.0499,23.4484,10.4798,40.7358,,adl
7.777626,0.2876,-0.7824,0.7349,0.0228,0.5277,0.0499,23.4484,10.4798,40.7358,,adl
7.779563,0.2876,-0.7824,0.7349,0.0228,0.5277,0.0499,23.4484,10.4798,40.7358,,adl
7.781232,0.2876,-0.7824,0.7349,0.0228,0.5277,0.0499,23.4484,10.4798,40.7358,,adl
7.783263,0.2876,-0.7824,0.7349,0.0228,0.5277,0.0499,23.4484,10.4798,40.7358,,adl
7.82509,0.2876,-0.7824,0.7349,0.1688,0.8952,0.098,23.4484,10.4798,40.7358,,adl
7.837088,0.2876,-0.7824,0.7349,0.1688,0.8952,0.098,22.6554,10.0772,41.419,,adl
7.839127,1.2721,-1.8173,0.1284,0.1688,0.8952,0.098,22.6554,10.0772,41.419,,adl
7.841205,1.2721,-1.8173,0.1284,0.1688,0.8952,0.098,22.6554,10.0772,41.419,,adl
7.842348,1.2721,-1.8173,0.1284,0.1688,0.8952,0.098,22.6554,10.0772,41.419,,adl
7.843197,1.2721,-1.8173,0.1284,0.1688,0.8952,0.098,22.6554,10.0772,41.419,,adl
7.896023,1.2721,-1.8173,0.1284,0.1688,0.8952,0.098,21.5818,9.6868,42.151,,adl
7.899672,1.2721,-1.8173,0.1284,0.122,0.6863,0.3454,21.5818,9.6868,42.151,,adl
7.905181,0.2153,0.5838,-1.3847,0.122,0.6863,0.3454,21.5818,9.6868,42.151,,adl
7.907586,0.2153,0.5838,-1.3847,0.122,0.6863,0.3454,21.5818,9.6868,42.151,,adl
7.910236,0.2153,0.5838,-1.3847,0.122,0.6863,0.3454,21.5818,9.6868,42.151,,adl
7.91172,0.2153,0.5838,-1.3847,0.122,0.6863,0.3454,21.5818,9.6868,42.151,,adl
7.955183,0.2153,0.5838,-1.3847,0.122,0.6863,0.3454,20.3496,9.394,42.8464,,adl
7.964728,0.2153,0.5838,-1.3847,0.0182,0.8196,0.1598,20.3496,9.394,42.8464,,adl
7.974776,0.2153,0.5838,-1.3847,0.0182,0.8196,0.1598,20.3496,9.394,42.8464,,adl
7.975956,0.2153,0.5838,-1.3847,0.0182,0.8196,0.1598,20.3496,9.394,42.8464,,adl
7.976893,0.2153,0.5838,-1.3847,0.0182,0.8196,0.1598,20.3496,9.394,42.8464,,adl
7.978207,0.2153,0.5838,-1.3847,0.0182,0.8196,0.1598,20.3496,9.394,42.8464,,adl
7.979141,-1.5052,1.411,-1.8878,0.0182,0.8196,0.1598,20.3496,9.394,42.8464,,adl
8.014827,-1.5052,1.411,-1.8878,0.0182,0.8196,0.1598,18.91,9.211,43.5906,,adl
8.034798,-1.5052,1.411,-1.8878,0.1919,0.8685,0.3442,18.91,9.211,43.5906,,adl
8.040087,-1.5052,1.411,-1.8878,0.1919,0.8685,0.3442,18.91,9.211,43.5906,,adl
8.042416,-1.5052,1.411,-1.8878,0.1919,0.8685,0.3442,18.91,9.211,43.5906,,adl
8.044376,-1.5052,1.411,-1.8878,0.1919,0.8685,0.3442,18.91,9.211,43.5906,,adl
8.046124,-0.4872,-0.8685,-1.0373,0.1919,0.8685,0.3442,18.91,9.211,43.5906,,adl
8.074265,-0.4872,-0.8685,-1.0373,0.1919,0.8685,0.3442,17.1654,9.2354,44.3104,,adl
8.104161,-0.4872,-0.8685,-1.0373,-0.1214,1.2121,0.2471,17.1654,9.2354,44.3104,,adl
8.108601,-0.4872,-0.8685,-1.0373,-0.1214,1.2121,0.2471,17.1654,9.2354,44.3104,,adl
8.110849,-0.4872,-0.8685,-1.0373,-0.1214,1.2121,0.2471,17.1654,9.2354,44.3104,,adl
8.112955,-0.4872,-0.8685,-1.0373,-0.1214,1.2121,0.2471,17.1654,9.2354,44.3104,,adl
8.115274,0.4983,0.826,-0.7745,-0.1214,1.2121,0.2471,17.1654,9.2354,44.3104,,adl
8.132402,0.4983,0.826,-0.7745,-0.1214,1.2121,0.2471,15.0792,9.3208,45.0546,,adl
8.174501,0.4983,0.826,-0.7745,-0.0559,1.2919,0.1916,15.0792,9.3208,45.0546,,adl
8.177493,0.4983,0.826,-0.7745,-0.0559,1.2919,0.1916,15.0792,9.3208,45.0546,,adl
8.179734,0.4983,0.826,-0.7745,-0.0559,1.2919,0.1916,15.0792,9.3208,45.0546,,adl
8.181901,0.4983,0.826,-0.7745,-0.0559,1.2919,0.1916,15.0792,9.3208,45.0546,,adl
8.183995,0.4983,0.826,-0.7745,-0.0559,1.2919,0.1916,15.0792,9.3208,45.0546,,adl
8.186319,-0.5374,0.5156,-0.2364,-0.0559,1.2919,0.1916,15.0792,9.3208,45.0546,,adl
8.193254,-0.5374,0.5156,-0.2364,-0.0559,1.2919,0.1916,12.6758,9.3696,45.7256,,adl
8.242734,-0.5374,0.5156,-0.2364,0.022,1.0824,0.1226,12.6758,9.3696,45.7256,,adl
8.245323,-0.5374,0.5156,-0.2364,0.022,1.0824,0.1226,12.6758,9.3696,45.7256,,adl
8.247261,-0.5374,0.5156,-0.2364,0.022,1.0824,0.1226,12.6758,9.3696,45.7256,,adl
8.248892,-0.5374,0.5156,-0.2364,0.022,1.0824,0.1226,12.6758,9.3696,45.7256,,adl
8.257349,-0.5374,0.5156,-0.2364,0.022,1.0824,0.1226,10.004,9.4306,46.3356,,adl
8.260099,-0.4062,0.1258,0.256,0.022,1.0824,0.1226,10.004,9.4306,46.3356,,adl
8.30893,-0.4062,0.1258,0.256,0.022,1.0824,0.1226,10.004,9.4306,46.3356,,adl
8.312272,-0.4062,0.1258,0.256,0.022,1.0824,0.1226,10.004,9.4306,46.3356,,adl
8.314052,-0.4062,0.1258,0.256,0.022,1.0824,0.1226,10.004,9.4306,46.3356,,adl
8.315764,-0.4062,0.1258,0.256,0.022,1.0824,0.1226,7.198,9.516,46.7992,,adl
8.318038,-0.4062,0.1258,0.256,-0.0447,0.9683,0.0184,7.198,9.516,46.7992,,adl
8.3262,-0.7689,0.3293,0.8888,-0.0447,0.9683,0.0184,7.198,9.516,46.7992,,adl
8.374426,-0.7689,0.3293,0.8888,-0.0447,0.9683,0.0184,4.3676,9.6014,47.0798,,adl
8.378186,-0.7689,0.3293,0.8888,-0.0447,0.9683,0.0184,4.3676,9.6014,47.0798,,adl
8.380389,-0.7689,0.3293,0.8888,-0.0447,0.9683,0.0184,4.3676,9.6014,47.0798,,adl
8.382814,-0.7689,0.3293,0.8888,-0.0447,0.9683,0.0184,4.3676,9.6014,47.0798,,adl
8.384955,-0.7689,0.3293,0.8888,-0.0447,0.9683,0.0184,4.3676,9.6014,47.0798,,adl
8.387223,-0.7689,0.3293,0.8888,0.0945,0.9831,0.0,4.3676,9.6014,47.0798,,adl
8.395089,-0.3959,0.0426,0.9048,0.0945,0.9831,0.0,4.3676,9.6014,47.0798,,adl
8.433896,-0.3959,0.0426,0.9048,0.0945,0.9831,0.0,1.3786,9.7356,47.2872,,adl
8.440943,-0.3959,0.0426,0.9048,0.0945,0.9831,0.0,1.3786,9.7356,47.2872,,adl
8.443706,-0.3959,0.0426,0.9048,0.0945,0.9831,0.0,1.3786,9.7356,47.2872,,adl
8.445467,-0.3959,0.0426,0.9048,0.0945,0.9831,0.0,1.3786,9.7356,47.2872,,adl
8.4527,-0.3959,0.0426,0.9048,0.3799,1.0904,-0.0119,1.3786,9.7356,47.2872,,adl
8.464217,-0.3133,-0.8254,0.4849,0.3799,1.0904,-0.0119,1.3786,9.7356,47.2872,,adl
8.502135,-0.3133,-0.8254,0.4849,0.3799,1.0904,-0.0119,-1.708,9.9918,47.2994,,adl
8.506598,-0.3133,-0.8254,0.4849,0.3799,1.0904,-0.0119,-1.708,9.9918,47.2994,,adl
8.508772,-0.3133,-0.8254,0.4849,0.3799,1.0904,-0.0119,-1.708,9.9918,47.2994,,adl
8.510899,-0.3133,-0.8254,0.4849,0.3799,1.0904,-0.0119,-1.708,9.9918,47.2994,,adl
8.521085,-0.3133,-0.8254,0.4849,0.136,0.622,0.1515,-1.708,9.9918,47.2994,,adl
8.532242,0.0688,-0.4724,-0.4356,0.136,0.622,0.1515,-1.708,9.9918,47.2994,,adl
8.562532,0.0688,-0.4724,-0.4356,0.136,0.622,0.1515,-4.6482,10.2724,47.214,,adl
8.576664,0.0688,-0.4724,-0.4356,0.136,0.622,0.1515,-4.6482,10.2724,47.214,,adl
8.577675,0.0688,-0.4724,-0.4356,0.136,0.622,0.1515,-4.6482,10.2724,47.214,,adl
8.578268,0.0688,-0.4724,-0.4356,0.136,0.622,0.1515,-4.6482,10.2724,47.214,,adl
8.578767,0.0688,-0.4724,-0.4356,0.136,0.622,0.1515,-4.6482,10.2724,47.214,,adl
8.591456,0.0688,-0.4724,-0.4356,0.138,0.6144,-0.1153,-4.6482,10.2724,47.214,,adl
8.601196,-1.6317,-1.9178,-1.0597,0.138,0.6144,-0.1153,-4.6482,10.2724,47.214,,adl
8.622978,-1.6317,-1.9178,-1.0597,0.138,0.6144,-0.1153,-7.4054,10.6628,46.9334,,adl
8.642274,-1.6317,-1.9178,-1.0597,0.138,0.6144,-0.1153,-7.4054,10.6628,46.9334,,adl
8.645225,-1.6317,-1.9178,-1.0597,0.138,0.6144,-0.1153,-7.4054,10.6628,46.9334,,adl
8.647932,-1.6317,-1.9178,-1.0597,0.138,0.6144,-0.1153,-7.4054,10.6628,46.9334,,adl
8.662741,-1.6317,-1.9178,-1.0597,-0.0878,0.5241,-0.3001,-7.4054,10.6628,46.9334,,adl
8.677483,0.9192,1.786,-1.6506,-0.0878,0.5241,-0.3001,-7.4054,10.6628,46.9334,,adl
8.682418,0.9192,1.786,-1.6506,-0.0878,0.5241,-0.3001,-9.882,11.0654,46.5308,,adl
8.708591,0.9192,1.786,-1.6506,-0.0878,0.5241,-0.3001,-9.882,11.0654,46.5308,,adl
8.711569,0.9192,1.786,-1.6506,-0.0878,0.5241,-0.3001,-9.882,11.0654,46.5308,,adl
8.713808,0.9192,1.786,-1.6506,-0.0878,0.5241,-0.3001,-9.882,11.0654,46.5308,,adl
8.731973,0.9192,1.786,-1.6506,-0.0763,0.3477,-0.2109,-9.882,11.0654,46.5308,,adl
8.741537,0.9192,1.786,-1.6506,-0.0763,0.3477,-0.2109,-12.1024,11.3948,46.116,,adl
8.745206,0.8877,0.8256,-0.7371,-0.0763,0.3477,-0.2109,-12.1024,11.3948,46.116,,adl
8.775039,0.8877,0.8256,-0.7371,-0.0763,0.3477,-0.2109,-12.1024,11.3948,46.116,,adl
8.778261,0.8877,0.8256,-0.7371,-0.0763,0.3477,-0.2109,-12.1024,11.3948,46.116,,adl
8.780721,0.8877,0.8256,-0.7371,-0.0763,0.3477,-0.2109,-12.1024,11.3948,46.116,,adl
8.783411,0.8877,0.8256,-0.7371,-0.0763,0.3477,-0.2109,-12.1024,11.3948,46.116,,adl
8.802091,0.8877,0.8256,-0.7371,-0.0107,0.3164,-0.2328,-12.1024,11.3948,46.116,,adl
8.806226,0.8877,0.8256,-0.7371,-0.0107,0.3164,-0.2328,-14.0788,11.6632,45.5792,,adl
8.811547,-0.5638,-0.4922,-0.1462,-0.0107,0.3164,-0.2328,-14.0788,11.6632,45.5792,,adl
8.842159,-0.5638,-0.4922,-0.1462,-0.0107,0.3164,-0.2328,-14.0788,11.6632,45.5792,,adl
8.845745,-0.5638,-0.4922,-0.1462,-0.0107,0.3164,-0.2328,-14.0788,11.6632,45.5792,,adl
8.848242,-0.5638,-0.4922,-0.1462,-0.0107,0.3164,-0.2328,-14.0788,11.6632,45.5792,,adl
8.861965,-0.5638,-0.4922,-0.1462,-0.0107,0.3164,-0.2328,-15.8112,11.8828,45.0668,,adl
8.871354,-0.5638,-0.4922,-0.1462,-0.2071,0.3234,-0.0916,-15.8112,11.8828,45.0668,,adl
8.879918,0.7427,1.1316,-0.1641,-0.2071,0.3234,-0.0916,-15.8112,11.8828,45.0668,,adl
8.908249,0.7427,1.1316,-0.1641,-0.2071,0.3234,-0.0916,-15.8112,11.8828,45.0668,,adl
8.911606,0.7427,1.1316,-0.1641,-0.2071,0.3234,-0.0916,-15.8112,11.8828,45.0668,,adl
8.914348,0.7427,1.1316,-0.1641,-0.2071,0.3234,-0.0916,-15.8112,11.8828,45.0668,,adl
8.921307,0.7427,1.1316,-0.1641,-0.2071,0.3234,-0.0916,-17.324,11.9072,44.5788,,adl
8.941181,0.7427,1.1316,-0.1641,-0.0292,0.3057,0.0376,-17.324,11.9072,44.5788,,adl
8.956692,0.2306,0.0597,0.3403,-0.0292,0.3057,0.0376,-17.324,11.9072,44.5788,,adl
8.974418,0.2306,0.0597,0.3403,-0.0292,0.3057,0.0376,-17.324,11.9072,44.5788,,adl
8.976592,0.2306,0.0597,0.3403,-0.0292,0.3057,0.0376,-17.324,11.9072,44.5788,,adl
8.97779,0.2306,0.0597,0.3403,-0.0292,0.3057,0.0376,-17.324,11.9072,44.5788,,adl
8.979033,0.2306,0.0597,0.3403,-0.0292,0.3057,0.0376,-17.324,11.9072,44.5788,,adl
8.980276,0.2306,0.0597,0.3403,-0.0292,0.3057,0.0376,-18.5562,11.7974,44.2006,,adl
9.011015,0.2306,0.0597,0.3403,-0.1356,0.2923,0.1514,-18.5562,11.7974,44.2006,,adl
9.020918,0.3538,0.2024,0.474,-0.1356,0.2923,0.1514,-18.5562,11.7974,44.2006,,adl
9.040974,0.3538,0.2024,0.474,-0.1356,0.2923,0.1514,-19.703,11.6388,43.8224,,adl
9.04454,0.3538,0.2024,0.474,-0.1356,0.2923,0.1514,-19.703,11.6388,43.8224,,adl
9.046897,0.3538,0.2024,0.474,-0.1356,0.2923,0.1514,-19.703,11.6388,43.8224,,adl
9.048962,0.3538,0.2024,0.474,-0.1356,0.2923,0.1514,-19.703,11.6388,43.8224,,adl
9.081144,0.3538,0.2024,0.474,-0.1696,0.1542,0.2372,-19.703,11.6388,43.8224,,adl
9.090506,0.1776,0.3898,0.5534,-0.1696,0.1542,0.2372,-19.703,11.6388,43.8224,,adl
9.100839,0.1776,0.3898,0.5534,-0.1696,0.1542,0.2372,-20.6668,11.407,43.432,,adl
9.108636,0.1776,0.3898,0.5534,-0.1696,0.1542,0.2372,-20.6668,11.407,43.432,,adl
9.111677,0.1776,0.3898,0.5534,-0.1696,0.1542,0.2372,-20.6668,11.407,43.432,,adl
9.114036,0.1776,0.3898,0.5534,-0.1696,0.1542,0.2372,-20.6668,11.407,43.432,,adl
9.151113,0.1776,0.3898,0.5534,0.0437,-0.1104,0.1748,-20.6668,11.407,43.432,,adl
9.160449,0.1776,0.3898,0.5534,0.0437,-0.1104,0.1748,-21.411,11.2118,43.2124,,adl
9.163586,0.5218,-0.2629,0.3591,0.0437,-0.1104,0.1748,-21.411,11.2118,43.2124,,adl
9.174645,0.5218,-0.2629,0.3591,0.0437,-0.1104,0.1748,-21.411,11.2118,43.2124,,adl
9.175933,0.5218,-0.2629,0.3591,0.0437,-0.1104,0.1748,-21.411,11.2118,43.2124,,adl
9.177093,0.5218,-0.2629,0.3591,0.0437,-0.1104,0.1748,-21.411,11.2118,43.2124,,adl
9.178372,0.5218,-0.2629,0.3591,0.0437,-0.1104,0.1748,-21.411,11.2118,43.2124,,adl
9.221169,0.5218,-0.2629,0.3591,0.0437,-0.1104,0.1748,-21.9234,11.1264,43.005,,adl
9.225042,0.5218,-0.2629,0.3591,0.1281,-0.2036,-0.0201,-21.9234,11.1264,43.005,,adl
9.235255,-0.0451,-0.8176,0.8319,0.1281,-0.2036,-0.0201,-21.9234,11.1264,43.005,,adl
9.242769,-0.0451,-0.8176,0.8319,0.1281,-0.2036,-0.0201,-21.9234,11.1264,43.005,,adl
9.244149,-0.0451,-0.8176,0.8319,0.1281,-0.2036,-0.0201,-21.9234,11.1264,43.005,,adl
9.245087,-0.0451,-0.8176,0.8319,0.1281,-0.2036,-0.0201,-21.9234,11.1264,43.005,,adl
9.280272,-0.0451,-0.8176,0.8319,0.1281,-0.2036,-0.0201,-22.2528,11.0654,42.8708,,adl
9.289762,-0.0451,-0.8176,0.8319,-0.0838,0.0461,-0.0852,-22.2528,11.0654,42.8708,,adl
9.302401,1.224,-0.4978,0.9685,-0.0838,0.0461,-0.0852,-22.2528,11.0654,42.8708,,adl
9.310754,1.224,-0.4978,0.9685,-0.0838,0.0461,-0.0852,-22.2528,11.0654,42.8708,,adl
9.313442,1.224,-0.4978,0.9685,-0.0838,0.0461,-0.0852,-22.2528,11.0654,42.8708,,adl
9.315786,1.224,-0.4978,0.9685,-0.0838,0.0461,-0.0852,-22.2528,11.0654,42.8708,,adl
9.339943,1.224,-0.4978,0.9685,-0.0838,0.0461,-0.0852,-22.5822,11.0654,42.7122,,adl
9.359738,1.224,-0.4978,0.9685,0.1695,0.5445,0.0748,-22.5822,11.0654,42.7122,,adl
9.370629,1.6673,-1.3915,-0.1342,0.1695,0.5445,0.0748,-22.5822,11.0654,42.7122,,adl
9.374006,1.6673,-1.3915,-0.1342,0.1695,0.5445,0.0748,-22.5822,11.0654,42.7122,,adl
9.375991,1.6673,-1.3915,-0.1342,0.1695,0.5445,0.0748,-22.5822,11.0654,42.7122,,adl
9.378167,1.6673,-1.3915,-0.1342,0.1695,0.5445,0.0748,-22.5822,11.0654,42.7122,,adl
9.379297,1.6673,-1.3915,-0.1342,0.1695,0.5445,0.0748,-22.5822,11.0654,42.7122,,adl
9.393165,1.6673,-1.3915,-0.1342,0.1695,0.5445,0.0748,-22.9726,11.163,42.5658,,adl
9.429801,1.6673,-1.3915,-0.1342,0.0409,0.2795,0.2249,-22.9726,11.163,42.5658,,adl
9.440102,-0.2665,0.4309,-1.5283,0.0409,0.2795,0.2249,-22.9726,11.163,42.5658,,adl
9.442719,-0.2665,0.4309,-1.5283,0.0409,0.2795,0.2249,-22.9726,11.163,42.5658,,adl
9.444384,-0.2665,0.4309,-1.5283,0.0409,0.2795,0.2249,-22.9726,11.163,42.5658,,adl
9.446221,-0.2665,0.4309,-1.5283,0.0409,0.2795,0.2249,-22.9726,11.163,42.5658,,adl
9.460549,-0.2665,0.4309,-1.5283,0.0409,0.2795,0.2249,-23.3874,11.285,42.4072,,adl
9.499766,-0.2665,0.4309,-1.5283,0.1248,0.445,0.2021,-23.3874,11.285,42.4072,,adl
9.507778,-1.8567,1.231,-1.3941,0.1248,0.445,0.2021,-23.3874,11.285,42.4072,,adl
9.510299,-1.8567,1.231,-1.3941,0.1248,0.445,0.2021,-23.3874,11.285,42.4072,,adl
9.511991,-1.8567,1.231,-1.3941,0.1248,0.445,0.2021,-23.3874,11.285,42.4072,,adl
9.51395,-1.8567,1.231,-1.3941,0.1248,0.445,0.2021,-23.3874,11.285,42.4072,,adl
9.515641,-1.8567,1.231,-1.3941,0.1248,0.445,0.2021,-23.3874,11.285,42.4072,,adl
9.519659,-1.8567,1.231,-1.3941,0.1248,0.445,0.2021,-23.8144,11.529,42.09,,adl
9.569542,-1.8567,1.231,-1.3941,0.1776,0.8108,0.3244,-23.8144,11.529,42.09,,adl
9.573331,-1.8567,1.231,-1.3941,0.1776,0.8108,0.3244,-23.8144,11.529,42.09,,adl
9.575194,-1.8567,1.231,-1.3941,0.1776,0.8108,0.3244,-23.8144,11.529,42.09,,adl
9.576886,-1.8567,1.231,-1.3941,0.1776,0.8108,0.3244,-23.8144,11.529,42.09,,adl
9.580769,-1.8567,1.231,-1.3941,0.1776,0.8108,0.3244,-24.4122,11.8706,41.6142,,adl
9.582795,0.218,-0.7083,-0.6825,0.1776,0.8108,0.3244,-24.4122,11.8706,41.6142,,adl
9.640116,0.218,-0.7083,-0.6825,0.1776,0.8108,0.3244,-25.2906,12.2244,40.9432,,adl
9.643088,0.218,-0.7083,-0.6825,-0.1874,0.8691,0.123,-25.2906,12.2244,40.9432,,adl
9.646014,0.218,-0.7083,-0.6825,-0.1874,0.8691,0.123,-25.2906,12.2244,40.9432,,adl
9.648092,0.218,-0.7083,-0.6825,-0.1874,0.8691,0.123,-25.2906,12.2244,40.9432,,adl
9.650331,0.218,-0.7083,-0.6825,-0.1874,0.8691,0.123,-25.2906,12.2244,40.9432,,adl
9.652586,0.1019,1.0237,-0.5408,-0.1874,0.8691,0.123,-25.2906,12.2244,40.9432,,adl
9.699077,0.1019,1.0237,-0.5408,-0.1874,0.8691,0.123,-26.4374,12.5172,40.0892,,adl
9.711161,0.1019,1.0237,-0.5408,0.0152,0.6792,0.1807,-26.4374,12.5172,40.0892,,adl
9.714205,0.1019,1.0237,-0.5408,0.0152,0.6792,0.1807,-26.4374,12.5172,40.0892,,adl
9.716259,0.1019,1.0237,-0.5408,0.0152,0.6792,0.1807,-26.4374,12.5172,40.0892,,adl
9.718281,0.1019,1.0237,-0.5408,0.0152,0.6792,0.1807,-26.4374,12.5172,40.0892,,adl
9.720179,0.1019,1.0237,-0.5408,0.0152,0.6792,0.1807,-26.4374,12.5172,40.0892,,adl
9.721998,-1.1231,0.2851,-0.0041,0.0152,0.6792,0.1807,-26.4374,12.5172,40.0892,,adl
9.758733,-1.1231,0.2851,-0.0041,0.0152,0.6792,0.1807,-27.8404,12.9076,38.979,,adl
9.774029,-1.1231,0.2851,-0.0041,0.0152,0.6792,0.1807,-27.8404,12.9076,38.979,,adl
9.77539,-1.1231,0.2851,-0.0041,0.0152,0.6792,0.1807,-27.8404,12.9076,38.979,,adl
9.776298,-1.1231,0.2851,-0.0041,0.0152,0.6792,0.1807,-27.8404,12.9076,38.979,,adl
9.777209,-1.1231,0.2851,-0.0041,-0.0048,0.5802,0.0658,-27.8404,12.9076,38.979,,adl
9.787862,-0.4028,-0.2944,0.0251,-0.0048,0.5802,0.0658,-27.8404,12.9076,38.979,,adl
9.818303,-0.4028,-0.2944,0.0251,-0.0048,0.5802,0.0658,-29.2678,13.2248,37.9054,,adl
9.841904,-0.4028,-0.2944,0.0251,-0.0048,0.5802,0.0658,-29.2678,13.2248,37.9054,,adl
9.844327,-0.4028,-0.2944,0.0251,-0.0048,0.5802,0.0658,-29.2678,13.2248,37.9054,,adl
9.8464,-0.4028,-0.2944,0.0251,-0.0048,0.5802,0.0658,-29.2678,13.2248,37.9054,,adl
9.849025,-0.4028,-0.2944,0.0251,-0.1177,0.5117,-0.0105,-29.2678,13.2248,37.9054,,adl
9.85955,-0.6483,0.7073,0.418,-0.1177,0.5117,-0.0105,-29.2678,13.2248,37.9054,,adl
9.877478,-0.6483,0.7073,0.418,-0.1177,0.5117,-0.0105,-30.6952,13.5298,36.6732,,adl
9.90869,-0.6483,0.7073,0.418,-0.1177,0.5117,-0.0105,-30.6952,13.5298,36.6732,,adl
9.911949,-0.6483,0.7073,0.418,-0.1177,0.5117,-0.0105,-30.6952,13.5298,36.6732,,adl
9.914492,-0.6483,0.7073,0.418,-0.1177,0.5117,-0.0105,-30.6952,13.5298,36.6732,,adl
9.917422,-0.6483,0.7073,0.418,-0.1177,0.5117,-0.0105,-30.6952,13.5298,36.6732,,adl
9.919378,-0.6483,0.7073,0.418,-0.0198,0.519,-0.0844,-30.6952,13.5298,36.6732,,adl
9.927228,-0.6221,-0.2357,0.6961,-0.0198,0.519,-0.0844,-30.6952,13.5298,36.6732,,adl
9.93599,-0.6221,-0.2357,0.6961,-0.0198,0.519,-0.0844,-32.1104,13.725,35.3434,,adl
9.975604,-0.6221,-0.2357,0.6961,-0.0198,0.519,-0.0844,-32.1104,13.725,35.3434,,adl
9.979002,-0.6221,-0.2357,0.6961,-0.0198,0.519,-0.0844,-32.1104,13.725,35.3434,,adl
9.981455,-0.6221,-0.2357,0.6961,-0.0198,0.519,-0.0844,-32.1104,13.725,35.3434,,adl
9.98776,-0.6221,-0.2357,0.6961,-0.127,0.7836,-0.1382,-32.1104,13.725,35.3434,,adl
9.997769,0.046,-0.0377,0.6786,-0.127,0.7836,-0.1382,-32.1104,13.725,35.3434,,adl
10.002134,0.046,-0.0377,0.6786,-0.127,0.7836,-0.1382,-33.6232,13.7738,33.9648,,adl
10.042562,0.046,-0.0377,0.6786,-0.127,0.7836,-0.1382,-33.6232,13.7738,33.9648,,adl
10.04671,0.046,-0.0377,0.6786,-0.127,0.7836,-0.1382,-33.6232,13.7738,33.9648,,adl
10.049233,0.046,-0.0377,0.6786,-0.127,0.7836,-0.1382,-33.6232,13.7738,33.9648,,adl
10.057928,0.046,-0.0377,0.6786,-0.127,0.7836,-0.1382,-35.0872,13.6396,32.6106,,adl
10.062441,0.046,-0.0377,0.6786,-0.1633,0.8626,0.0656,-35.0872,13.6396,32.6106,,adl
10.072751,-0.0866,-0.5578,0.6883,-0.1633,0.8626,0.0656,-35.0872,13.6396,32.6106,,adl
10.109206,-0.0866,-0.5578,0.6883,-0.1633,0.8626,0.0656,-35.0872,13.6396,32.6106,,adl
10.112392,-0.0866,-0.5578,0.6883,-0.1633,0.8626,0.0656,-35.0872,13.6396,32.6106,,adl
10.114564,-0.0866,-0.5578,0.6883,-0.1633,0.8626,0.0656,-35.0872,13.6396,32.6106,,adl
10.116669,-0.0866,-0.5578,0.6883,-0.1633,0.8626,0.0656,-35.0872,13.6396,32.6106,,adl
10.118847,-0.0866,-0.5578,0.6883,-0.1633,0.8626,0.0656,-36.4536,13.5786,31.1832,,adl
10.126524,-0.0866,-0.5578,0.6883,0.1822,0.363,0.1129,-36.4536,13.5786,31.1832,,adl
10.137705,-0.778,-1.7488,-0.1789,0.1822,0.363,0.1129,-36.4536,13.5786,31.1832,,adl
10.175987,-0.778,-1.7488,-0.1789,0.1822,0.363,0.1129,-37.7102,13.4688,29.768,,adl
10.178866,-0.778,-1.7488,-0.1789,0.1822,0.363,0.1129,-37.7102,13.4688,29.768,,adl
10.180566,-0.778,-1.7488,-0.1789,0.1822,0.363,0.1129,-37.7102,13.4688,29.768,,adl
10.182767,-0.778,-1.7488,-0.1789,0.1822,0.363,0.1129,-37.7102,13.4688,29.768,,adl
10.197004,-0.778,-1.7488,-0.1789,-0.0891,0.8569,-0.3534,-37.7102,13.4688,29.768,,adl
10.207989,-0.4991,-0.1415,-1.0775,-0.0891,0.8569,-0.3534,-37.7102,13.4688,29.768,,adl
10.236775,-0.4991,-0.1415,-1.0775,-0.0891,0.8569,-0.3534,-38.9912,13.115,28.3162,,adl
10.241415,-0.4991,-0.1415,-1.0775,-0.0891,0.8569,-0.3534,-38.9912,13.115,28.3162,,adl
10.24416,-0.4991,-0.1415,-1.0775,-0.0891,0.8569,-0.3534,-38.9912,13.115,28.3162,,adl
10.246743,-0.4991,-0.1415,-1.0775,-0.0891,0.8569,-0.3534,-38.9912,13.115,28.3162,,adl
10.266782,-0.4991,-0.1415,-1.0775,-0.2507,0.6538,-0.0467,-38.9912,13.115,28.3162,,adl
10.276609,1.7971,2.1523,-1.8269,-0.2507,0.6538,-0.0467,-38.9912,13.115,28.3162,,adl
10.297033,1.7971,2.1523,-1.8269,-0.2507,0.6538,-0.0467,-40.2356,12.7978,26.6692,,adl
10.308222,1.7971,2.1523,-1.8269,-0.2507,0.6538,-0.0467,-40.2356,12.7978,26.6692,,adl
10.311692,1.7971,2.1523,-1.8269,-0.2507,0.6538,-0.0467,-40.2356,12.7978,26.6692,,adl
10.314363,1.7971,2.1523,-1.8269,-0.2507,0.6538,-0.0467,-40.2356,12.7978,26.6692,,adl
10.316993,1.7971,2.1523,-1.8269,-0.2507,0.6538,-0.0467,-40.2356,12.7978,26.6692,,adl
10.336212,1.7971,2.1523,-1.8269,-0.1043,0.6794,-0.2682,-40.2356,12.7978,26.6692,,adl
10.347058,0.3671,-0.4451,-0.5606,-0.1043,0.6794,-0.2682,-40.2356,12.7978,26.6692,,adl
10.357897,0.3671,-0.4451,-0.5606,-0.1043,0.6794,-0.2682,-41.4434,12.383,24.9734,,adl
10.37561,0.3671,-0.4451,-0.5606,-0.1043,0.6794,-0.2682,-41.4434,12.383,24.9734,,adl
10.378329,0.3671,-0.4451,-0.5606,-0.1043,0.6794,-0.2682,-41.4434,12.383,24.9734,,adl
10.380346,0.3671,-0.4451,-0.5606,-0.1043,0.6794,-0.2682,-41.4434,12.383,24.9734,,adl
10.406151,0.3671,-0.4451,-0.5606,-0.2039,0.8412,-0.1201,-41.4434,12.383,24.9734,,adl
10.41474,0.3671,-0.4451,-0.5606,-0.2039,0.8412,-0.1201,-42.639,11.9438,23.1678,,adl
10.419961,0.5423,0.2384,-0.2107,-0.2039,0.8412,-0.1201,-42.639,11.9438,23.1678,,adl
10.440258,0.5423,0.2384,-0.2107,-0.2039,0.8412,-0.1201,-42.639,11.9438,23.1678,,adl
10.441992,0.5423,0.2384,-0.2107,-0.2039,0.8412,-0.1201,-42.639,11.9438,23.1678,,adl
10.444153,0.5423,0.2384,-0.2107,-0.2039,0.8412,-0.1201,-42.639,11.9438,23.1678,,adl
10.476773,0.5423,0.2384,-0.2107,-0.3657,0.7385,0.1174,-42.639,11.9438,23.1678,,adl
10.480683,0.5423,0.2384,-0.2107,-0.3657,0.7385,0.1174,-43.676,11.4558,21.3378,,adl
10.486032,0.4461,1.4037,-0.1759,-0.3657,0.7385,0.1174,-43.676,11.4558,21.3378,,adl
10.508183,0.4461,1.4037,-0.1759,-0.3657,0.7385,0.1174,-43.676,11.4558,21.3378,,adl
10.510588,0.4461,1.4037,-0.1759,-0.3657,0.7385,0.1174,-43.676,11.4558,21.3378,,adl
10.512388,0.4461,1.4037,-0.1759,-0.3657,0.7385,0.1174,-43.676,11.4558,21.3378,,adl
10.514255,0.4461,1.4037,-0.1759,-0.3657,0.7385,0.1174,-43.676,11.4558,21.3378,,adl
10.535363,0.4461,1.4037,-0.1759,-0.3657,0.7385,0.1174,-44.6154,11.224,19.3858,,adl
10.547919,0.4461,1.4037,-0.1759,0.043,0.951,0.4236,-44.6154,11.224,19.3858,,adl
10.555372,-0.4155,-0.6583,0.9542,0.043,0.951,0.4236,-44.6154,11.224,19.3858,,adl
10.575419,-0.4155,-0.6583,0.9542,0.043,0.951,0.4236,-44.6154,11.224,19.3858,,adl
10.576921,-0.4155,-0.6583,0.9542,0.043,0.951,0.4236,-44.6154,11.224,19.3858,,adl
10.578145,-0.4155,-0.6583,0.9542,0.043,0.951,0.4236,-44.6154,11.224,19.3858,,adl
10.594286,-0.4155,-0.6583,0.9542,0.043,0.951,0.4236,-45.4938,11.0654,17.2142,,adl
10.615488,-0.4155,-0.6583,0.9542,0.0454,1.143,0.5093,-45.4938,11.0654,17.2142,,adl
10.625934,1.0173,0.4623,0.5482,0.0454,1.143,0.5093,-45.4938,11.0654,17.2142,,adl
10.641756,1.0173,0.4623,0.5482,0.0454,1.143,0.5093,-45.4938,11.0654,17.2142,,adl
10.644967,1.0173,0.4623,0.5482,0.0454,1.143,0.5093,-45.4938,11.0654,17.2142,,adl
10.646844,1.0173,0.4623,0.5482,0.0454,1.143,0.5093,-45.4938,11.0654,17.2142,,adl
10.655102,1.0173,0.4623,0.5482,0.0454,1.143,0.5093,-46.238,11.102,14.8474,,adl
10.684592,1.0173,0.4623,0.5482,0.0858,0.7906,0.312,-46.238,11.102,14.8474,,adl
10.695035,-0.0597,-0.3252,0.5449,0.0858,0.7906,0.312,-46.238,11.102,14.8474,,adl
10.708273,-0.0597,-0.3252,0.5449,0.0858,0.7906,0.312,-46.238,11.102,14.8474,,adl
10.710993,-0.0597,-0.3252,0.5449,0.0858,0.7906,0.312,-46.238,11.102,14.8474,,adl
10.712744,-0.0597,-0.3252,0.5449,0.0858,0.7906,0.312,-46.238,11.102,14.8474,,adl
10.714989,-0.0597,-0.3252,0.5449,0.0858,0.7906,0.312,-46.238,11.102,14.8474,,adl
10.716971,-0.0597,-0.3252,0.5449,0.0858,0.7906,0.312,-46.7626,11.407,12.444,,adl
10.755415,-0.0597,-0.3252,0.5449,0.1044,0.525,0.0847,-46.7626,11.407,12.444,,adl
10.76475,-0.4638,-0.2893,0.9373,0.1044,0.525,0.0847,-46.7626,11.407,12.444,,adl
10.774869,-0.4638,-0.2893,0.9373,0.1044,0.525,0.0847,-47.1042,11.773,10.065,,adl
10.779168,-0.4638,-0.2893,0.9373,0.1044,0.525,0.0847,-47.1042,11.773,10.065,,adl
10.7809,-0.4638,-0.2893,0.9373,0.1044,0.525,0.0847,-47.1042,11.773,10.065,,adl
10.782915,-0.4638,-0.2893,0.9373,0.1044,0.525,0.0847,-47.1042,11.773,10.065,,adl
10.824952,-0.4638,-0.2893,0.9373,0.206,0.8622,-0.0386,-47.1042,11.773,10.065,,adl
10.834874,-0.4638,-0.2893,0.9373,0.206,0.8622,-0.0386,-47.2872,12.2488,7.625,,adl
10.838315,1.4534,-0.9119,-0.3325,0.206,0.8622,-0.0386,-47.2872,12.2488,7.625,,adl
10.841211,1.4534,-0.9119,-0.3325,0.206,0.8622,-0.0386,-47.2872,12.2488,7.625,,adl
10.843427,1.4534,-0.9119,-0.3325,0.206,0.8622,-0.0386,-47.2872,12.2488,7.625,,adl
10.845655,1.4534,-0.9119,-0.3325,0.206,0.8622,-0.0386,-47.2872,12.2488,7.625,,adl
10.894515,1.4534,-0.9119,-0.3325,0.206,0.8622,-0.0386,-47.2994,12.8832,5.0386,,adl
10.896979,1.4534,-0.9119,-0.3325,0.2475,0.9292,0.5226,-47.2994,12.8832,5.0386,,adl
10.907535,1.7354,-2.1708,-0.6579,0.2475,0.9292,0.5226,-47.2994,12.8832,5.0386,,adl
10.909777,1.7354,-2.1708,-0.6579,0.2475,0.9292,0.5226,-47.2994,12.8832,5.0386,,adl
10.91116,1.7354,-2.1708,-0.6579,0.2475,0.9292,0.5226,-47.2994,12.8832,5.0386,,adl
10.912671,1.7354,-2.1708,-0.6579,0.2475,0.9292,0.5226,-47.2994,12.8832,5.0386,,adl
10.914268,1.7354,-2.1708,-0.6579,0.2475,0.9292,0.5226,-47.2994,12.8832,5.0386,,adl
10.954637,1.7354,-2.1708,-0.6579,0.2475,0.9292,0.5226,-47.092,13.8958,2.3668,,adl
10.964648,1.7354,-2.1708,-0.6579,-0.0716,0.8711,0.4858,-47.092,13.8958,2.3668,,adl
10.973124,-0.3615,2.5383,-1.3474,-0.0716,0.8711,0.4858,-47.092,13.8958,2.3668,,adl
10.975067,-0.3615,2.5383,-1.3474,-0.0716,0.8711,0.4858,-47.092,13.8958,2.3668,,adl
10.976281,-0.3615,2.5383,-1.3474,-0.0716,0.8711,0.4858,-47.092,13.8958,2.3668,,adl
10.977396,-0.3615,2.5383,-1.3474,-0.0716,0.8711,0.4858,-47.092,13.8958,2.3668,,adl
11.014445,-0.3615,2.5383,-1.3474,-0.0716,0.8711,0.4858,-46.6894,14.7986,-0.4026,,adl
11.034742,-0.3615,2.5383,-1.3474,0.2041,1.4735,0.2522,-46.6894,14.7986,-0.4026,,adl
11.045052,-0.3615,2.5383,-1.3474,0.2041,1.4735,0.2522,-46.6894,14.7986,-0.4026,,adl
11.04659,-0.3615,2.5383,-1.3474,0.2041,1.4735,0.2522,-46.6894,14.7986,-0.4026,,adl
11.047503,-0.3615,2.5383,-1.3474,0.2041,1.4735,0.2522,-46.6894,14.7986,-0.4026,,adl
11.049017,0.1144,-0.1345,-1.343,0.2041,1.4735,0.2522,-46.6894,14.7986,-0.4026,,adl
11.072198,0.1144,-0.1345,-1.343,0.2041,1.4735,0.2522,-46.055,15.6526,-3.1598,,adl
11.104581,0.1144,-0.1345,-1.343,-0.0079,1.6785,0.368,-46.055,15.6526,-3.1598,,adl
11.108804,0.1144,-0.1345,-1.343,-0.0079,1.6785,0.368,-46.055,15.6526,-3.1598,,adl
11.111071,0.1144,-0.1345,-1.343,-0.0079,1.6785,0.368,-46.055,15.6526,-3.1598,,adl
11.11332,0.1144,-0.1345,-1.343,-0.0079,1.6785,0.368,-46.055,15.6526,-3.1598,,adl
11.115769,0.1144,-0.1345,-1.343,-0.0079,1.6785,0.368,-46.055,15.6526,-3.1598,,adl
11.117919,0.2803,0.2773,-1.1254,-0.0079,1.6785,0.368,-46.055,15.6526,-3.1598,,adl
11.131797,0.2803,0.2773,-1.1254,-0.0079,1.6785,0.368,-45.1156,16.4334,-6.1488,,adl
11.174409,0.2803,0.2773,-1.1254,0.0245,1.9377,0.2288,-45.1156,16.4334,-6.1488,,adl
11.177252,0.2803,0.2773,-1.1254,0.0245,1.9377,0.2288,-45.1156,16.4334,-6.1488,,adl
11.179305,0.2803,0.2773,-1.1254,0.0245,1.9377,0.2288,-45.1156,16.4334,-6.1488,,adl
11.181016,0.2803,0.2773,-1.1254,0.0245,1.9377,0.2288,-45.1156,16.4334,-6.1488,,adl
11.189224,0.404,0.4237,-0.7914,0.0245,1.9377,0.2288,-45.1156,16.4334,-6.1488,,adl
11.191442,0.404,0.4237,-0.7914,0.0245,1.9377,0.2288,-43.8224,17.2264,-9.3818,,adl
11.242268,0.404,0.4237,-0.7914,0.0064,1.8272,0.3028,-43.8224,17.2264,-9.3818,,adl
11.244544,0.404,0.4237,-0.7914,0.0064,1.8272,0.3028,-43.8224,17.2264,-9.3818,,adl
11.245706,0.404,0.4237,-0.7914,0.0064,1.8272,0.3028,-43.8224,17.2264,-9.3818,,adl
11.246927,0.404,0.4237,-0.7914,0.0064,1.8272,0.3028,-43.8224,17.2264,-9.3818,,adl
11.248062,0.404,0.4237,-0.7914,0.0064,1.8272,0.3028,-43.8224,17.2264,-9.3818,,adl
11.251995,0.404,0.4237,-0.7914,0.0064,1.8272,0.3028,-42.2486,18.056,-12.871,,adl
11.253538,-0.215,0.3399,-0.2341,0.0064,1.8272,0.3028,-42.2486,18.056,-12.871,,adl
11.30893,-0.215,0.3399,-0.2341,0.0064,1.8272,0.3028,-42.2486,18.056,-12.871,,adl
11.311711,-0.215,0.3399,-0.2341,0.0064,1.8272,0.3028,-42.2486,18.056,-12.871,,adl
11.313403,-0.215,0.3399,-0.2341,0.0064,1.8272,0.3028,-42.2486,18.056,-12.871,,adl
11.31527,-0.215,0.3399,-0.2341,0.0618,1.5948,0.1087,-42.2486,18.056,-12.871,,adl
11.322778,-0.215,0.3399,-0.2341,0.0618,1.5948,0.1087,-40.2722,18.9344,-16.4456,,adl
11.324932,-0.8791,-0.0643,-0.1081,0.0618,1.5948,0.1087,-40.2722,18.9344,-16.4456,,adl
11.375585,-0.8791,-0.0643,-0.1081,0.0618,1.5948,0.1087,-40.2722,18.9344,-16.4456,,adl
11.378106,-0.8791,-0.0643,-0.1081,0.0618,1.5948,0.1087,-40.2722,18.9344,-16.4456,,adl
11.379842,-0.8791,-0.0643,-0.1081,0.0618,1.5948,0.1087,-40.2722,18.9344,-16.4456,,adl
11.38474,-0.8791,-0.0643,-0.1081,0.0618,1.5948,0.1087,-37.9542,19.703,-20.0202,,adl
11.387172,-0.8791,-0.0643,-0.1081,-0.0036,1.697,0.0316,-37.9542,19.703,-20.0202,,adl
11.392808,-0.5602,0.2158,-0.1735,-0.0036,1.697,0.0316,-37.9542,19.703,-20.0202,,adl
11.442362,-0.5602,0.2158,-0.1735,-0.0036,1.697,0.0316,-35.38,20.2032,-23.5826,,adl
11.445399,-0.5602,0.2158,-0.1735,-0.0036,1.697,0.0316,-35.38,20.2032,-23.5826,,adl
11.446747,-0.5602,0.2158,-0.1735,-0.0036,1.697,0.0316,-35.38,20.2032,-23.5826,,adl
11.447999,-0.5602,0.2158,-0.1735,-0.0036,1.697,0.0316,-35.38,20.2032,-23.5826,,adl
11.449238,-0.5602,0.2158,-0.1735,-0.0036,1.697,0.0316,-35.38,20.2032,-23.5826,,adl
11.452025,-0.5602,0.2158,-0.1735,0.1035,1.7633,0.0647,-35.38,20.2032,-23.5826,,adl
11.463673,0.1458,-0.1499,0.5574,0.1035,1.7633,0.0647,-35.38,20.2032,-23.5826,,adl
11.503001,0.1458,-0.1499,0.5574,0.1035,1.7633,0.0647,-32.3788,20.5692,-26.962,,adl
11.50749,0.1458,-0.1499,0.5574,0.1035,1.7633,0.0647,-32.3788,20.5692,-26.962,,adl
11.509437,0.1458,-0.1499,0.5574,0.1035,1.7633,0.0647,-32.3788,20.5692,-26.962,,adl
11.511395,0.1458,-0.1499,0.5574,0.1035,1.7633,0.0647,-32.3788,20.5692,-26.962,,adl
11.523106,0.1458,-0.1499,0.5574,0.0389,1.748,-0.0161,-32.3788,20.5692,-26.962,,adl
11.532949,-0.1801,0.0875,0.4023,0.0389,1.748,-0.0161,-32.3788,20.5692,-26.962,,adl
11.562115,-0.1801,0.0875,0.4023,0.0389,1.748,-0.0161,-29.1336,20.862,-30.1584,,adl
11.574646,-0.1801,0.0875,0.4023,0.0389,1.748,-0.0161,-29.1336,20.862,-30.1584,,adl
11.5763,-0.1801,0.0875,0.4023,0.0389,1.748,-0.0161,-29.1336,20.862,-30.1584,,adl
11.578019,-0.1801,0.0875,0.4023,0.0389,1.748,-0.0161,-29.1336,20.862,-30.1584,,adl
11.589946,-0.1801,0.0875,0.4023,-0.0774,1.6681,0.1329,-29.1336,20.862,-30.1584,,adl
11.600493,0.0148,-0.2145,0.3054,-0.0774,1.6681,0.1329,-29.1336,20.862,-30.1584,,adl
11.621765,0.0148,-0.2145,0.3054,-0.0774,1.6681,0.1329,-25.6566,21.0206,-32.8668,,adl
11.64214,0.0148,-0.2145,0.3054,-0.0774,1.6681,0.1329,-25.6566,21.0206,-32.8668,,adl
11.645101,0.0148,-0.2145,0.3054,-0.0774,1.6681,0.1329,-25.6566,21.0206,-32.8668,,adl
11.647837,0.0148,-0.2145,0.3054,-0.0774,1.6681,0.1329,-25.6566,21.0206,-32.8668,,adl
11.650307,0.0148,-0.2145,0.3054,-0.0774,1.6681,0.1329,-25.6566,21.0206,-32.8668,,adl
11.661804,0.0148,-0.2145,0.3054,0.1413,1.2942,0.2738,-25.6566,21.0206,-32.8668,,adl
11.671386,0.1137,-1.9545,-0.9451,0.1413,1.2942,0.2738,-25.6566,21.0206,-32.8668,,adl
11.681509,0.1137,-1.9545,-0.9451,0.1413,1.2942,0.2738,-22.1186,21.106,-35.136,,adl
11.708416,0.1137,-1.9545,-0.9451,0.1413,1.2942,0.2738,-22.1186,21.106,-35.136,,adl
11.710544,0.1137,-1.9545,-0.9451,0.1413,1.2942,0.2738,-22.1186,21.106,-35.136,,adl
11.711771,0.1137,-1.9545,-0.9451,0.1413,1.2942,0.2738,-22.1186,21.106,-35.136,,adl
11.731617,0.1137,-1.9545,-0.9451,-0.0443,1.7674,-0.0993,-22.1186,21.106,-35.136,,adl
11.745353,0.1137,-1.9545,-0.9451,-0.0443,1.7674,-0.0993,-18.4708,21.0694,-37.088,,adl
11.748548,-0.6946,1.1013,-1.4505,-0.0443,1.7674,-0.0993,-18.4708,21.0694,-37.088,,adl
11.773883,-0.6946,1.1013,-1.4505,-0.0443,1.7674,-0.0993,-18.4708,21.0694,-37.088,,adl
11.776502,-0.6946,1.1013,-1.4505,-0.0443,1.7674,-0.0993,-18.4708,21.0694,-37.088,,adl
11.778916,-0.6946,1.1013,-1.4505,-0.0443,1.7674,-0.0993,-18.4708,21.0694,-37.088,,adl
11.8018,-0.6946,1.1013,-1.4505,-0.0443,1.7674,-0.0993,-14.7132,20.9962,-38.6252,,adl
11.805636,-0.6946,1.1013,-1.4505,-0.1017,1.6449,0.0446,-14.7132,20.9962,-38.6252,,adl
11.814144,1.0199,0.8974,-1.7037,-0.1017,1.6449,0.0446,-14.7132,20.9962,-38.6252,,adl
11.841991,1.0199,0.8974,-1.7037,-0.1017,1.6449,0.0446,-14.7132,20.9962,-38.6252,,adl
11.845096,1.0199,0.8974,-1.7037,-0.1017,1.6449,0.0446,-14.7132,20.9962,-38.6252,,adl
11.847628,1.0199,0.8974,-1.7037,-0.1017,1.6449,0.0446,-14.7132,20.9962,-38.6252,,adl
11.849909,1.0199,0.8974,-1.7037,-0.1017,1.6449,0.0446,-14.7132,20.9962,-38.6252,,adl
11.861464,1.0199,0.8974,-1.7037,-0.1017,1.6449,0.0446,-10.8824,20.984,-39.833,,adl
11.870985,1.0199,0.8974,-1.7037,0.0016,1.5253,-0.1011,-10.8824,20.984,-39.833,,adl
11.880541,-0.2437,0.1379,-0.8665,0.0016,1.5253,-0.1011,-10.8824,20.984,-39.833,,adl
11.908059,-0.2437,0.1379,-0.8665,0.0016,1.5253,-0.1011,-10.8824,20.984,-39.833,,adl
11.909422,-0.2437,0.1379,-0.8665,0.0016,1.5253,-0.1011,-10.8824,20.984,-39.833,,adl
11.910178,-0.2437,0.1379,-0.8665,0.0016,1.5253,-0.1011,-10.8824,20.984,-39.833,,adl
11.920332,-0.2437,0.1379,-0.8665,0.0016,1.5253,-0.1011,-7.0516,20.8986,-40.6748,,adl
11.940558,-0.2437,0.1379,-0.8665,0.0141,1.2858,-0.1747,-7.0516,20.8986,-40.6748,,adl
11.950591,-0.1135,-0.229,-0.3491,0.0141,1.2858,-0.1747,-7.0516,20.8986,-40.6748,,adl
11.974956,-0.1135,-0.229,-0.3491,0.0141,1.2858,-0.1747,-7.0516,20.8986,-40.6748,,adl
11.977869,-0.1135,-0.229,-0.3491,0.0141,1.2858,-0.1747,-7.0516,20.8986,-40.6748,,adl
11.980004,-0.1135,-0.229,-0.3491,0.0141,1.2858,-0.1747,-7.0516,20.8986,-40.6748,,adl
11.982207,-0.1135,-0.229,-0.3491,0.0141,1.2858,-0.1747,-3.3916,20.9352,-41.236,,adl
12.010308,-0.1135,-0.229,-0.3491,-0.1289,1.2048,-0.0427,-3.3916,20.9352,-41.236,,adl
12.024676,0.0651,0.547,-0.3037,-0.1289,1.2048,-0.0427,-3.3916,20.9352,-41.236,,adl
12.040078,0.0651,0.547,-0.3037,-0.1289,1.2048,-0.0427,0.1952,20.9352,-41.4434,,adl
12.041784,0.0651,0.547,-0.3037,-0.1289,1.2048,-0.0427,0.1952,20.9352,-41.4434,,adl
12.042776,0.0651,0.547,-0.3037,-0.1289,1.2048,-0.0427,0.1952,20.9352,-41.4434,,adl
12.043613,0.0651,0.547,-0.3037,-0.1289,1.2048,-0.0427,0.1952,20.9352,-41.4434,,adl
12.044456,0.0651,0.547,-0.3037,-0.1289,1.2048,-0.0427,0.1952,20.9352,-41.4434,,adl
12.080448,0.0651,0.547,-0.3037,-0.1824,1.1237,-0.0121,0.1952,20.9352,-41.4434,,adl
12.089974,0.4255,0.6739,0.2575,-0.1824,1.1237,-0.0121,0.1952,20.9352,-41.4434,,adl
12.100134,0.4255,0.6739,0.2575,-0.1824,1.1237,-0.0121,3.5868,20.9962,-41.3946,,adl
12.109452,0.4255,0.6739,0.2575,-0.1824,1.1237,-0.0121,3.5868,20.9962,-41.3946,,adl
12.114593,0.4255,0.6739,0.2575,-0.1824,1.1237,-0.0121,3.5868,20.9962,-41.3946,,adl
12.115424,0.4255,0.6739,0.2575,-0.1824,1.1237,-0.0121,3.5868,20.9962,-41.3946,,adl
12.147971,0.4255,0.6739,0.2575,-0.2455,0.8061,0.1767,3.5868,20.9962,-41.3946,,adl
12.157498,0.4255,0.6739,0.2575,-0.2455,0.8061,0.1767,6.8808,21.0694,-40.9798,,adl
12.158917,-0.1395,0.057,0.4413,-0.2455,0.8061,0.1767,6.8808,21.0694,-40.9798,,adl
12.172721,-0.1395,0.057,0.4413,-0.2455,0.8061,0.1767,6.8808,21.0694,-40.9798,,adl
12.173291,-0.1395,0.057,0.4413,-0.2455,0.8061,0.1767,6.8808,21.0694,-40.9798,,adl
12.173494,-0.1395,0.057,0.4413,-0.2455,0.8061,0.1767,6.8808,21.0694,-40.9798,,adl
12.220254,-0.1395,0.057,0.4413,-0.0921,0.431,0.3036,6.8808,21.0694,-40.9798,,adl
12.222326,-0.1395,0.057,0.4413,-0.0921,0.431,0.3036,9.9186,21.1548,-40.3088,,adl
12.22908,-0.0453,0.321,1.0275,-0.0921,0.431,0.3036,9.9186,21.1548,-40.3088,,adl
12.24119,-0.0453,0.321,1.0275,-0.0921,0.431,0.3036,9.9186,21.1548,-40.3088,,adl
12.242257,-0.0453,0.321,1.0275,-0.0921,0.431,0.3036,9.9186,21.1548,-40.3088,,adl
12.242926,-0.0453,0.321,1.0275,-0.0921,0.431,0.3036,9.9186,21.1548,-40.3088,,adl
12.243582,-0.0453,0.321,1.0275,-0.0921,0.431,0.3036,9.9186,21.1548,-40.3088,,adl
12.279223,-0.0453,0.321,1.0275,-0.0921,0.431,0.3036,12.4806,21.3012,-39.772,,adl
12.288467,-0.0453,0.321,1.0275,0.2578,0.4388,0.1244,12.4806,21.3012,-39.772,,adl
12.300452,0.1772,-0.9096,1.3062,0.2578,0.4388,0.1244,12.4806,21.3012,-39.772,,adl
12.307777,0.1772,-0.9096,1.3062,0.2578,0.4388,0.1244,12.4806,21.3012,-39.772,,adl
12.308395,0.1772,-0.9096,1.3062,0.2578,0.4388,0.1244,12.4806,21.3012,-39.772,,adl
12.308784,0.1772,-0.9096,1.3062,0.2578,0.4388,0.1244,12.4806,21.3012,-39.772,,adl
12.34033,0.1772,-0.9096,1.3062,0.2578,0.4388,0.1244,14.7132,21.35,-39.1986,,adl
12.357356,0.1772,-0.9096,1.3062,0.2157,0.4904,-0.2209,14.7132,21.35,-39.1986,,adl
12.36722,1.2981,-0.5784,0.4665,0.2157,0.4904,-0.2209,14.7132,21.35,-39.1986,,adl
12.372907,1.2981,-0.5784,0.4665,0.2157,0.4904,-0.2209,14.7132,21.35,-39.1986,,adl
12.373704,1.2981,-0.5784,0.4665,0.2157,0.4904,-0.2209,14.7132,21.35,-39.1986,,adl
12.374358,1.2981,-0.5784,0.4665,0.2157,0.4904,-0.2209,14.7132,21.35,-39.1986,,adl
12.391899,1.2981,-0.5784,0.4665,0.2157,0.4904,-0.2209,16.6286,21.4354,-38.7228,,adl
12.43059,1.2981,-0.5784,0.4665,0.4437,0.782,0.1128,16.6286,21.4354,-38.7228,,adl
12.440193,1.196,-2.1082,-0.241,0.4437,0.782,0.1128,16.6286,21.4354,-38.7228,,adl
12.441085,1.196,-2.1082,-0.241,0.4437,0.782,0.1128,16.6286,21.4354,-38.7228,,adl
12.441505,1.196,-2.1082,-0.241,0.4437,0.782,0.1128,16.6286,21.4354,-38.7228,,adl
12.44215,1.196,-2.1082,-0.241,0.4437,0.782,0.1128,16.6286,21.4354,-38.7228,,adl
12.442592,1.196,-2.1082,-0.241,0.4437,0.782,0.1128,16.6286,21.4354,-38.7228,,adl
12.458555,1.196,-2.1082,-0.241,0.4437,0.782,0.1128,18.3244,21.3256,-38.247,,adl
12.501114,1.196,-2.1082,-0.241,0.0537,0.8342,0.4645,18.3244,21.3256,-38.247,,adl
12.506659,-0.8127,1.5994,-2.0334,0.0537,0.8342,0.4645,18.3244,21.3256,-38.247,,adl
12.507496,-0.8127,1.5994,-2.0334,0.0537,0.8342,0.4645,18.3244,21.3256,-38.247,,adl
12.508001,-0.8127,1.5994,-2.0334,0.0537,0.8342,0.4645,18.3244,21.3256,-38.247,,adl
12.508474,-0.8127,1.5994,-2.0334,0.0537,0.8342,0.4645,18.3244,21.3256,-38.247,,adl
12.518286,-0.8127,1.5994,-2.0334,0.0537,0.8342,0.4645,19.9958,21.1304,-37.7712,,adl
12.570686,-0.8127,1.5994,-2.0334,0.2135,0.7839,0.2878,19.9958,21.1304,-37.7712,,adl
12.573005,-0.8127,1.5994,-2.0334,0.2135,0.7839,0.2878,19.9958,21.1304,-37.7712,,adl
12.573689,-0.8127,1.5994,-2.0334,0.2135,0.7839,0.2878,19.9958,21.1304,-37.7712,,adl
12.574289,-0.8127,1.5994,-2.0334,0.2135,0.7839,0.2878,19.9958,21.1304,-37.7712,,adl
12.576361,-0.8127,1.5994,-2.0334,0.2135,0.7839,0.2878,21.533,20.8254,-37.3198,,adl
12.577451,-1.5815,-0.1967,-1.3344,0.2135,0.7839,0.2878,21.533,20.8254,-37.3198,,adl
12.640548,-1.5815,-0.1967,-1.3344,0.2135,0.7839,0.2878,22.9604,20.3862,-37.0514,,adl
12.642094,-1.5815,-0.1967,-1.3344,-0.0748,0.5458,0.3135,22.9604,20.3862,-37.0514,,adl
12.643413,-1.5815,-0.1967,-1.3344,-0.0748,0.5458,0.3135,22.9604,20.3862,-37.0514,,adl
12.644052,-1.5815,-0.1967,-1.3344,-0.0748,0.5458,0.3135,22.9604,20.3862,-37.0514,,adl
12.644617,-1.5815,-0.1967,-1.3344,-0.0748,0.5458,0.3135,22.9604,20.3862,-37.0514,,adl
12.645216,-1.5815,-0.1967,-1.3344,-0.0748,0.5458,0.3135,22.9604,20.3862,-37.0514,,adl
12.648544,-0.8448,0.2521,-0.829,-0.0748,0.5458,0.3135,22.9604,20.3862,-37.0514,,adl
12.698619,-0.8448,0.2521,-0.829,-0.0748,0.5458,0.3135,24.3024,19.9714,-36.7586,,adl
12.708216,-0.8448,0.2521,-0.829,-0.0226,0.2767,0.0967,24.3024,19.9714,-36.7586,,adl
12.710803,-0.8448,0.2521,-0.829,-0.0226,0.2767,0.0967,24.3024,19.9714,-36.7586,,adl
12.712874,-0.8448,0.2521,-0.829,-0.0226,0.2767,0.0967,24.3024,19.9714,-36.7586,,adl
12.715197,-0.8448,0.2521,-0.829,-0.0226,0.2767,0.0967,24.3024,19.9714,-36.7586,,adl
12.720062,-0.4774,1.0541,-0.4497,-0.0226,0.2767,0.0967,24.3024,19.9714,-36.7586,,adl
12.758111,-0.4774,1.0541,-0.4497,-0.0226,0.2767,0.0967,25.6078,19.4346,-36.3682,,adl
12.775678,-0.4774,1.0541,-0.4497,0.0839,-0.0823,0.119,25.6078,19.4346,-36.3682,,adl
12.779219,-0.4774,1.0541,-0.4497,0.0839,-0.0823,0.119,25.6078,19.4346,-36.3682,,adl
12.781263,-0.4774,1.0541,-0.4497,0.0839,-0.0823,0.119,25.6078,19.4346,-36.3682,,adl
12.783708,-0.4774,1.0541,-0.4497,0.0839,-0.0823,0.119,25.6078,19.4346,-36.3682,,adl
12.787133,-0.8399,-0.0963,0.3264,0.0839,-0.0823,0.119,25.6078,19.4346,-36.3682,,adl
12.817488,-0.8399,-0.0963,0.3264,0.0839,-0.0823,0.119,26.7912,18.9222,-36.0022,,adl
12.842189,-0.8399,-0.0963,0.3264,0.0839,-0.0823,0.119,26.7912,18.9222,-36.0022,,adl
12.844928,-0.8399,-0.0963,0.3264,0.0839,-0.0823,0.119,26.7912,18.9222,-36.0022,,adl
12.847998,-0.8399,-0.0963,0.3264,0.0839,-0.0823,0.119,26.7912,18.9222,-36.0022,,adl
12.850265,-0.8399,-0.0963,0.3264,0.0839,-0.0823,0.119,26.7912,18.9222,-36.0022,,adl
12.852307,-0.8399,-0.0963,0.3264,0.106,-0.1139,-0.1844,26.7912,18.9222,-36.0022,,adl
12.860843,-0.6693,0.4056,0.7981,0.106,-0.1139,-0.1844,26.7912,18.9222,-36.0022,,adl
12.87588,-0.6693,0.4056,0.7981,0.106,-0.1139,-0.1844,27.8038,18.4708,-35.6484,,adl
12.908147,-0.6693,0.4056,0.7981,0.106,-0.1139,-0.1844,27.8038,18.4708,-35.6484,,adl
12.912341,-0.6693,0.4056,0.7981,0.106,-0.1139,-0.1844,27.8038,18.4708,-35.6484,,adl
12.915901,-0.6693,0.4056,0.7981,0.106,-0.1139,-0.1844,27.8038,18.4708,-35.6484,,adl
12.918242,-0.6693,0.4056,0.7981,0.1389,0.015,-0.257,27.8038,18.4708,-35.6484,,adl
12.924901,-0.2119,0.2212,0.4239,0.1389,0.015,-0.257,27.8038,18.4708,-35.6484,,adl
12.935009,-0.2119,0.2212,0.4239,0.1389,0.015,-0.257,28.6212,18.178,-35.3678,,adl
12.973961,-0.2119,0.2212,0.4239,0.1389,0.015,-0.257,28.6212,18.178,-35.3678,,adl
12.975328,-0.2119,0.2212,0.4239,0.1389,0.015,-0.257,28.6212,18.178,-35.3678,,adl
12.975842,-0.2119,0.2212,0.4239,0.1389,0.015,-0.257,28.6212,18.178,-35.3678,,adl
12.9868,-0.2119,0.2212,0.4239,-0.1964,-0.0073,-0.0218,28.6212,18.178,-35.3678,,adl
12.995352,-0.1535,-0.4064,0.6824,-0.1964,-0.0073,-0.0218,28.6212,18.178,-35.3678,,adl
12.996767,-0.1535,-0.4064,0.6824,-0.1964,-0.0073,-0.0218,29.1336,17.995,-35.075,,adl
13.042586,-0.1535,-0.4064,0.6824,-0.1964,-0.0073,-0.0218,29.1336,17.995,-35.075,,adl
13.046328,-0.1535,-0.4064,0.6824,-0.1964,-0.0073,-0.0218,29.1336,17.995,-35.075,,adl
13.049264,-0.1535,-0.4064,0.6824,-0.1964,-0.0073,-0.0218,29.1336,17.995,-35.075,,adl
13.052213,-0.1535,-0.4064,0.6824,-0.1964,-0.0073,-0.0218,29.1336,17.995,-35.075,,adl
13.058714,-0.1535,-0.4064,0.6824,-0.1964,-0.0073,-0.0218,29.3776,17.9218,-35.0872,,adl
13.062087,-0.1535,-0.4064,0.6824,0.3412,-0.1615,-0.0314,29.3776,17.9218,-35.0872,,adl
13.067333,-1.1665,-2.5043,-0.193,0.3412,-0.1615,-0.0314,29.3776,17.9218,-35.0872,,adl
13.10895,-1.1665,-2.5043,-0.193,0.3412,-0.1615,-0.0314,29.3776,17.9218,-35.0872,,adl
13.111539,-1.1665,-2.5043,-0.193,0.3412,-0.1615,-0.0314,29.3776,17.9218,-35.0872,,adl
13.113128,-1.1665,-2.5043,-0.193,0.3412,-0.1615,-0.0314,29.3776,17.9218,-35.0872,,adl
13.116642,-1.1665,-2.5043,-0.193,0.3412,-0.1615,-0.0314,29.3288,17.9096,-35.2214,,adl
13.126217,-1.1665,-2.5043,-0.193,-0.1483,-0.2016,-0.361,29.3288,17.9096,-35.2214,,adl
13.139314,-0.7421,0.2188,-2.1781,-0.1483,-0.2016,-0.361,29.3288,17.9096,-35.2214,,adl
13.175711,-0.7421,0.2188,-2.1781,-0.1483,-0.2016,-0.361,28.975,18.056,-35.563,,adl
13.180363,-0.7421,0.2188,-2.1781,-0.1483,-0.2016,-0.361,28.975,18.056,-35.563,,adl
13.183631,-0.7421,0.2188,-2.1781,-0.1483,-0.2016,-0.361,28.975,18.056,-35.563,,adl
13.186609,-0.7421,0.2188,-2.1781,-0.1483,-0.2016,-0.361,28.975,18.056,-35.563,,adl
13.189478,-0.7421,0.2188,-2.1781,-0.1483,-0.2016,-0.361,28.975,18.056,-35.563,,adl
13.197816,-0.7421,0.2188,-2.1781,-0.1388,-0.8736,-0.2775,28.975,18.056,-35.563,,adl
13.205998,0.3126,2.3681,-1.4374,-0.1388,-0.8736,-0.2775,28.975,18.056,-35.563,,adl
13.236038,0.3126,2.3681,-1.4374,-0.1388,-0.8736,-0.2775,28.304,18.3122,-36.1242,,adl
13.240027,0.3126,2.3681,-1.4374,-0.1388,-0.8736,-0.2775,28.304,18.3122,-36.1242,,adl
13.242874,0.3126,2.3681,-1.4374,-0.1388,-0.8736,-0.2775,28.304,18.3122,-36.1242,,adl
13.245895,0.3126,2.3681,-1.4374,-0.1388,-0.8736,-0.2775,28.304,18.3122,-36.1242,,adl
13.266361,0.3126,2.3681,-1.4374,0.4232,-0.8361,-0.5282,28.304,18.3122,-36.1242,,adl
13.27624,-0.3277,-2.1271,0.1436,0.4232,-0.8361,-0.5282,28.304,18.3122,-36.1242,,adl
13.295884,-0.3277,-2.1271,0.1436,0.4232,-0.8361,-0.5282,27.2914,18.5684,-36.7952,,adl
13.307692,-0.3277,-2.1271,0.1436,0.4232,-0.8361,-0.5282,27.2914,18.5684,-36.7952,,adl
13.309226,-0.3277,-2.1271,0.1436,0.4232,-0.8361,-0.5282,27.2914,18.5684,-36.7952,,adl
13.310556,-0.3277,-2.1271,0.1436,0.4232,-0.8361,-0.5282,27.2914,18.5684,-36.7952,,adl
13.335783,-0.3277,-2.1271,0.1436,0.177,-0.785,-0.1844,27.2914,18.5684,-36.7952,,adl
13.347659,0.6492,0.9874,-0.8867,0.177,-0.785,-0.1844,27.2914,18.5684,-36.7952,,adl
13.355931,0.6492,0.9874,-0.8867,0.177,-0.785,-0.1844,26.0836,18.788,-37.5638,,adl
13.375305,0.6492,0.9874,-0.8867,0.177,-0.785,-0.1844,26.0836,18.788,-37.5638,,adl
13.377554,0.6492,0.9874,-0.8867,0.177,-0.785,-0.1844,26.0836,18.788,-37.5638,,adl
13.378951,0.6492,0.9874,-0.8867,0.177,-0.785,-0.1844,26.0836,18.788,-37.5638,,adl
13.380114,0.6492,0.9874,-0.8867,0.177,-0.785,-0.1844,26.0836,18.788,-37.5638,,adl
13.405698,0.6492,0.9874,-0.8867,0.1587,-0.8539,-0.2575,26.0836,18.788,-37.5638,,adl
13.415615,0.6492,0.9874,-0.8867,0.1587,-0.8539,-0.2575,24.6196,18.9344,-38.4666,,adl
13.419358,0.0514,0.6543,-0.1923,0.1587,-0.8539,-0.2575,24.6196,18.9344,-38.4666,,adl
13.442298,0.0514,0.6543,-0.1923,0.1587,-0.8539,-0.2575,24.6196,18.9344,-38.4666,,adl
13.446002,0.0514,0.6543,-0.1923,0.1587,-0.8539,-0.2575,24.6196,18.9344,-38.4666,,adl
13.448476,0.0514,0.6543,-0.1923,0.1587,-0.8539,-0.2575,24.6196,18.9344,-38.4666,,adl
13.475998,0.0514,0.6543,-0.1923,0.1587,-0.8539,-0.2575,22.875,19.093,-39.4792,,adl
13.479609,0.0514,0.6543,-0.1923,-0.0277,-0.8119,-0.0935,22.875,19.093,-39.4792,,adl
13.489913,-0.1956,0.3095,0.2957,-0.0277,-0.8119,-0.0935,22.875,19.093,-39.4792,,adl
13.507026,-0.1956,0.3095,0.2957,-0.0277,-0.8119,-0.0935,22.875,19.093,-39.4792,,adl
13.509415,-0.1956,0.3095,0.2957,-0.0277,-0.8119,-0.0935,22.875,19.093,-39.4792,,adl
13.511784,-0.1956,0.3095,0.2957,-0.0277,-0.8119,-0.0935,22.875,19.093,-39.4792,,adl
13.534268,-0.1956,0.3095,0.2957,-0.0277,-0.8119,-0.0935,20.9718,19.1906,-40.3698,,adl
13.545274,-0.1956,0.3095,0.2957,0.0931,-0.5731,-0.0639,20.9718,19.1906,-40.3698,,adl
13.555386,0.8247,0.0047,0.3012,0.0931,-0.5731,-0.0639,20.9718,19.1906,-40.3698,,adl
13.573689,0.8247,0.0047,0.3012,0.0931,-0.5731,-0.0639,20.9718,19.1906,-40.3698,,adl
13.57562,0.8247,0.0047,0.3012,0.0931,-0.5731,-0.0639,20.9718,19.1906,-40.3698,,adl
13.57688,0.8247,0.0047,0.3012,0.0931,-0.5731,-0.0639,20.9718,19.1906,-40.3698,,adl
13.578767,0.8247,0.0047,0.3012,0.0931,-0.5731,-0.0639,20.9718,19.1906,-40.3698,,adl
13.594804,0.8247,0.0047,0.3012,0.0931,-0.5731,-0.0639,18.9222,19.3126,-41.236,,adl
13.613519,0.8247,0.0047,0.3012,-0.0852,-0.8707,0.149,18.9222,19.3126,-41.236,,adl
13.623629,0.0267,0.6496,0.6439,-0.0852,-0.8707,0.149,18.9222,19.3126,-41.236,,adl
13.640981,0.0267,0.6496,0.6439,-0.0852,-0.8707,0.149,18.9222,19.3126,-41.236,,adl
13.645196,0.0267,0.6496,0.6439,-0.0852,-0.8707,0.149,18.9222,19.3126,-41.236,,adl
13.648618,0.0267,0.6496,0.6439,-0.0852,-0.8707,0.149,18.9222,19.3126,-41.236,,adl
13.654285,0.0267,0.6496,0.6439,-0.0852,-0.8707,0.149,16.775,19.3248,-42.1388,,adl
13.684361,0.0267,0.6496,0.6439,-0.1166,-0.91,0.2535,16.775,19.3248,-42.1388,,adl
13.694561,-0.2477,0.7103,0.847,-0.1166,-0.91,0.2535,16.775,19.3248,-42.1388,,adl
13.709798,-0.2477,0.7103,0.847,-0.1166,-0.91,0.2535,16.775,19.3248,-42.1388,,adl
13.711258,-0.2477,0.7103,0.847,-0.1166,-0.91,0.2535,16.775,19.3248,-42.1388,,adl
13.712167,-0.2477,0.7103,0.847,-0.1166,-0.91,0.2535,16.775,19.3248,-42.1388,,adl
13.714666,-0.2477,0.7103,0.847,-0.1166,-0.91,0.2535,14.5912,19.337,-42.9074,,adl
13.754957,-0.2477,0.7103,0.847,-0.1256,-0.7787,0.2702,14.5912,19.337,-42.9074,,adl
13.764372,0.7611,-0.1159,1.0289,-0.1256,-0.7787,0.2702,14.5912,19.337,-42.9074,,adl
13.775755,0.7611,-0.1159,1.0289,-0.1256,-0.7787,0.2702,12.505,19.3614,-43.493,,adl
13.779719,0.7611,-0.1159,1.0289,-0.1256,-0.7787,0.2702,12.505,19.3614,-43.493,,adl
13.782263,0.7611,-0.1159,1.0289,-0.1256,-0.7787,0.2702,12.505,19.3614,-43.493,,adl
13.784301,0.7611,-0.1159,1.0289,-0.1256,-0.7787,0.2702,12.505,19.3614,-43.493,,adl
13.786504,0.7611,-0.1159,1.0289,-0.1256,-0.7787,0.2702,12.505,19.3614,-43.493,,adl
13.82449,0.7611,-0.1159,1.0289,-0.1447,-0.5863,0.1478,12.505,19.3614,-43.493,,adl
13.833231,0.7611,-0.1159,1.0289,-0.1447,-0.5863,0.1478,10.4798,19.4712,-43.981,,adl
13.836321,1.0429,-0.109,0.4486,-0.1447,-0.5863,0.1478,10.4798,19.4712,-43.981,,adl
13.842075,1.0429,-0.109,0.4486,-0.1447,-0.5863,0.1478,10.4798,19.4712,-43.981,,adl
13.84525,1.0429,-0.109,0.4486,-0.1447,-0.5863,0.1478,10.4798,19.4712,-43.981,,adl
13.848118,1.0429,-0.109,0.4486,-0.1447,-0.5863,0.1478,10.4798,19.4712,-43.981,,adl
13.894597,1.0429,-0.109,0.4486,-0.1447,-0.5863,0.1478,8.5766,19.7152,-44.2982,,adl
13.898377,1.0429,-0.109,0.4486,-0.1358,-0.2987,-0.2296,8.5766,19.7152,-44.2982,,adl
13.909541,1.1815,-0.8676,-0.5319,-0.1358,-0.2987,-0.2296,8.5766,19.7152,-44.2982,,adl
13.913234,1.1815,-0.8676,-0.5319,-0.1358,-0.2987,-0.2296,8.5766,19.7152,-44.2982,,adl
13.91514,1.1815,-0.8676,-0.5319,-0.1358,-0.2987,-0.2296,8.5766,19.7152,-44.2982,,adl
13.916832,1.1815,-0.8676,-0.5319,-0.1358,-0.2987,-0.2296,8.5766,19.7152,-44.2982,,adl
13.954232,1.1815,-0.8676,-0.5319,-0.1358,-0.2987,-0.2296,6.8442,19.8616,-44.591,,adl
13.963617,1.1815,-0.8676,-0.5319,0.1993,-0.4197,0.2172,6.8442,19.8616,-44.591,,adl
13.976856,0.7661,-2.9088,-0.512,0.1993,-0.4197,0.2172,6.8442,19.8616,-44.591,,adl
13.978814,0.7661,-2.9088,-0.512,0.1993,-0.4197,0.2172,6.8442,19.8616,-44.591,,adl
13.979804,0.7661,-2.9088,-0.512,0.1993,-0.4197,0.2172,6.8442,19.8616,-44.591,,adl
13.980813,0.7661,-2.9088,-0.512,0.1993,-0.4197,0.2172,6.8442,19.8616,-44.591,,adl
13.981855,0.7661,-2.9088,-0.512,0.1993,-0.4197,0.2172,6.8442,19.8616,-44.591,,adl
14.012324,0.7661,-2.9088,-0.512,0.1993,-0.4197,0.2172,5.1972,20.0202,-44.7984,,adl
14.032229,0.7661,-2.9088,-0.512,-0.4013,-0.6916,0.5619,5.1972,20.0202,-44.7984,,adl
14.04404,0.7661,-2.9088,-0.512,-0.4013,-0.6916,0.5619,5.1972,20.0202,-44.7984,,adl
14.046546,0.7661,-2.9088,-0.512,-0.4013,-0.6916,0.5619,5.1972,20.0202,-44.7984,,adl
14.048087,0.7661,-2.9088,-0.512,-0.4013,-0.6916,0.5619,5.1972,20.0202,-44.7984,,adl
14.049796,-0.6853,2.0195,-0.5834,-0.4013,-0.6916,0.5619,5.1972,20.0202,-44.7984,,adl
14.07341,-0.6853,2.0195,-0.5834,-0.4013,-0.6916,0.5619,3.6112,20.374,-44.9448,,adl
14.103225,-0.6853,2.0195,-0.5834,-0.0025,-0.1238,0.0866,3.6112,20.374,-44.9448,,adl
14.106639,-0.6853,2.0195,-0.5834,-0.0025,-0.1238,0.0866,3.6112,20.374,-44.9448,,adl
14.109138,-0.6853,2.0195,-0.5834,-0.0025,-0.1238,0.0866,3.6112,20.374,-44.9448,,adl
14.111869,-0.6853,2.0195,-0.5834,-0.0025,-0.1238,0.0866,3.6112,20.374,-44.9448,,adl
14.114558,-1.1379,0.8453,-1.223,-0.0025,-0.1238,0.0866,3.6112,20.374,-44.9448,,adl
14.132292,-1.1379,0.8453,-1.223,-0.0025,-0.1238,0.0866,2.257,20.6668,-44.9692,,adl
14.174136,-1.1379,0.8453,-1.223,0.3053,-0.277,0.3694,2.257,20.6668,-44.9692,,adl
14.177534,-1.1379,0.8453,-1.223,0.3053,-0.277,0.3694,2.257,20.6668,-44.9692,,adl
14.179787,-1.1379,0.8453,-1.223,0.3053,-0.277,0.3694,2.257,20.6668,-44.9692,,adl
14.182187,-1.1379,0.8453,-1.223,0.3053,-0.277,0.3694,2.257,20.6668,-44.9692,,adl
14.184294,-1.1379,0.8453,-1.223,0.3053,-0.277,0.3694,2.257,20.6668,-44.9692,,adl
14.18759,-0.15,-1.1581,-0.2033,0.3053,-0.277,0.3694,2.257,20.6668,-44.9692,,adl
14.202278,-0.15,-1.1581,-0.2033,0.3053,-0.277,0.3694,1.1712,20.7766,-44.957,,adl
14.242189,-0.15,-1.1581,-0.2033,0.1345,-0.2463,0.132,1.1712,20.7766,-44.957,,adl
14.245245,-0.15,-1.1581,-0.2033,0.1345,-0.2463,0.132,1.1712,20.7766,-44.957,,adl
14.247381,-0.15,-1.1581,-0.2033,0.1345,-0.2463,0.132,1.1712,20.7766,-44.957,,adl
14.249383,-0.15,-1.1581,-0.2033,0.1345,-0.2463,0.132,1.1712,20.7766,-44.957,,adl
14.251709,-0.6995,0.6164,0.0522,0.1345,-0.2463,0.132,1.1712,20.7766,-44.957,,adl
14.260972,-0.6995,0.6164,0.0522,0.1345,-0.2463,0.132,0.2684,20.862,-44.9814,,adl
14.308813,-0.6995,0.6164,0.0522,0.1345,-0.2463,0.132,0.2684,20.862,-44.9814,,adl
14.31187,-0.6995,0.6164,0.0522,0.1345,-0.2463,0.132,0.2684,20.862,-44.9814,,adl
14.314331,-0.6995,0.6164,0.0522,0.1345,-0.2463,0.132,0.2684,20.862,-44.9814,,adl
14.31647,-0.6995,0.6164,0.0522,-0.0258,-0.2101,0.1838,0.2684,20.862,-44.9814,,adl
14.32473,-0.6995,0.6164,0.0522,-0.0258,-0.2101,0.1838,-0.4758,20.8498,-44.9082,,adl
14.326743,-0.4772,0.5565,0.2008,-0.0258,-0.2101,0.1838,-0.4758,20.8498,-44.9082,,adl
14.375534,-0.4772,0.5565,0.2008,-0.0258,-0.2101,0.1838,-0.4758,20.8498,-44.9082,,adl
14.377906,-0.4772,0.5565,0.2008,-0.0258,-0.2101,0.1838,-0.4758,20.8498,-44.9082,,adl
14.379324,-0.4772,0.5565,0.2008,-0.0258,-0.2101,0.1838,-0.4758,20.8498,-44.9082,,adl
14.380841,-0.4772,0.5565,0.2008,-0.0258,-0.2101,0.1838,-0.4758,20.8498,-44.9082,,adl
14.382692,-0.4772,0.5565,0.2008,-0.0258,-0.2101,0.1838,-1.159,20.7766,-44.8838,,adl
14.384933,-0.4772,0.5565,0.2008,-0.0064,-0.3065,0.1511,-1.159,20.7766,-44.8838,,adl
14.391812,-0.4984,0.0911,-0.13,-0.0064,-0.3065,0.1511,-1.159,20.7766,-44.8838,,adl
14.442595,-0.4984,0.0911,-0.13,-0.0064,-0.3065,0.1511,-1.8422,20.74,-44.8106,,adl
14.446449,-0.4984,0.0911,-0.13,-0.0064,-0.3065,0.1511,-1.8422,20.74,-44.8106,,adl
14.448873,-0.4984,0.0911,-0.13,-0.0064,-0.3065,0.1511,-1.8422,20.74,-44.8106,,adl
14.452095,-0.4984,0.0911,-0.13,-0.0064,-0.3065,0.1511,-1.8422,20.74,-44.8106,,adl
14.454464,-0.4984,0.0911,-0.13,-0.0723,-0.4015,0.0711,-1.8422,20.74,-44.8106,,adl
14.462929,-0.8223,0.2509,0.1693,-0.0723,-0.4015,0.0711,-1.8422,20.74,-44.8106,,adl
14.502341,-0.8223,0.2509,0.1693,-0.0723,-0.4015,0.0711,-2.5498,20.7766,-44.774,,adl
14.50878,-0.8223,0.2509,0.1693,-0.0723,-0.4015,0.0711,-2.5498,20.7766,-44.774,,adl
14.51205,-0.8223,0.2509,0.1693,-0.0723,-0.4015,0.0711,-2.5498,20.7766,-44.774,,adl
14.514314,-0.8223,0.2509,0.1693,-0.0723,-0.4015,0.0711,-2.5498,20.7766,-44.774,,adl
14.521333,-0.8223,0.2509,0.1693,-0.0979,-0.392,0.0414,-2.5498,20.7766,-44.774,,adl
14.530883,-0.1145,0.2698,0.2725,-0.0979,-0.392,0.0414,-2.5498,20.7766,-44.774,,adl
14.561899,-0.1145,0.2698,0.2725,-0.0979,-0.392,0.0414,-3.2086,20.6912,-44.7008,,adl
14.575616,-0.1145,0.2698,0.2725,-0.0979,-0.392,0.0414,-3.2086,20.6912,-44.7008,,adl
14.579126,-0.1145,0.2698,0.2725,-0.0979,-0.392,0.0414,-3.2086,20.6912,-44.7008,,adl
14.58197,-0.1145,0.2698,0.2725,-0.0979,-0.392,0.0414,-3.2086,20.6912,-44.7008,,adl
14.584442,-0.1145,0.2698,0.2725,-0.0979,-0.392,0.0414,-3.2086,20.6912,-44.7008,,adl
14.590997,-0.1145,0.2698,0.2725,-0.0642,-0.3053,-0.1005,-3.2086,20.6912,-44.7008,,adl
14.600559,-0.3516,0.0979,0.6405,-0.0642,-0.3053,-0.1005,-3.2086,20.6912,-44.7008,,adl
14.62065,-0.3516,0.0979,0.6405,-0.0642,-0.3053,-0.1005,-3.904,20.618,-44.5788,,adl
14.642074,-0.3516,0.0979,0.6405,-0.0642,-0.3053,-0.1005,-3.904,20.618,-44.5788,,adl
14.645506,-0.3516,0.0979,0.6405,-0.0642,-0.3053,-0.1005,-3.904,20.618,-44.5788,,adl
14.64855,-0.3516,0.0979,0.6405,-0.0642,-0.3053,-0.1005,-3.904,20.618,-44.5788,,adl
14.662191,-0.3516,0.0979,0.6405,-0.1758,-0.1186,-0.2931,-3.904,20.618,-44.5788,,adl
14.671348,0.085,0.1007,0.5095,-0.1758,-0.1186,-0.2931,-3.904,20.618,-44.5788,,adl
14.680786,0.085,0.1007,0.5095,-0.1758,-0.1186,-0.2931,-4.6604,20.6546,-44.3836,,adl
14.708655,0.085,0.1007,0.5095,-0.1758,-0.1186,-0.2931,-4.6604,20.6546,-44.3836,,adl
14.712366,0.085,0.1007,0.5095,-0.1758,-0.1186,-0.2931,-4.6604,20.6546,-44.3836,,adl
14.715224,0.085,0.1007,0.5095,-0.1758,-0.1186,-0.2931,-4.6604,20.6546,-44.3836,,adl
14.731169,0.085,0.1007,0.5095,-0.1292,-0.1354,-0.3509,-4.6604,20.6546,-44.3836,,adl
14.741971,0.085,0.1007,0.5095,-0.1292,-0.1354,-0.3509,-5.5266,20.8132,-44.1274,,adl
14.746604,0.0342,-0.1887,0.8455,-0.1292,-0.1354,-0.3509,-5.5266,20.8132,-44.1274,,adl
14.775078,0.0342,-0.1887,0.8455,-0.1292,-0.1354,-0.3509,-5.5266,20.8132,-44.1274,,adl
14.778924,0.0342,-0.1887,0.8455,-0.1292,-0.1354,-0.3509,-5.5266,20.8132,-44.1274,,adl
14.781776,0.0342,-0.1887,0.8455,-0.1292,-0.1354,-0.3509,-5.5266,20.8132,-44.1274,,adl
14.784658,0.0342,-0.1887,0.8455,-0.1292,-0.1354,-0.3509,-5.5266,20.8132,-44.1274,,adl
14.801106,0.0342,-0.1887,0.8455,-0.2551,-0.1226,-0.3137,-5.5266,20.8132,-44.1274,,adl
14.805446,0.0342,-0.1887,0.8455,-0.2551,-0.1226,-0.3137,-6.4294,20.984,-43.9078,,adl
14.811206,-1.014,-0.6081,1.317,-0.2551,-0.1226,-0.3137,-6.4294,20.984,-43.9078,,adl
14.841715,-1.014,-0.6081,1.317,-0.2551,-0.1226,-0.3137,-6.4294,20.984,-43.9078,,adl
14.845015,-1.014,-0.6081,1.317,-0.2551,-0.1226,-0.3137,-6.4294,20.984,-43.9078,,adl
14.847826,-1.014,-0.6081,1.317,-0.2551,-0.1226,-0.3137,-6.4294,20.984,-43.9078,,adl
14.860592,-1.014,-0.6081,1.317,-0.2551,-0.1226,-0.3137,-7.3078,21.1548,-43.4808,,adl
14.870609,-1.014,-0.6081,1.317,0.2585,-0.7308,0.0361,-7.3078,21.1548,-43.4808,,adl
14.879917,-0.6561,-1.7443,-0.7562,0.2585,-0.7308,0.0361,-7.3078,21.1548,-43.4808,,adl
14.906886,-0.6561,-1.7443,-0.7562,0.2585,-0.7308,0.0361,-7.3078,21.1548,-43.4808,,adl
14.908485,-0.6561,-1.7443,-0.7562,0.2585,-0.7308,0.0361,-7.3078,21.1548,-43.4808,,adl
14.90969,-0.6561,-1.7443,-0.7562,0.2585,-0.7308,0.0361,-7.3078,21.1548,-43.4808,,adl
14.920615,-0.6561,-1.7443,-0.7562,0.2585,-0.7308,0.0361,-8.3204,21.1914,-43.0172,,adl
14.940147,-0.6561,-1.7443,-0.7562,-0.3447,-0.3956,-0.5712,-8.3204,21.1914,-43.0172,,adl
14.949478,-0.1912,-0.3778,-0.3182,-0.3447,-0.3956,-0.5712,-8.3204,21.1914,-43.0172,,adl
14.973744,-0.1912,-0.3778,-0.3182,-0.3447,-0.3956,-0.5712,-8.3204,21.1914,-43.0172,,adl
14.975932,-0.1912,-0.3778,-0.3182,-0.3447,-0.3956,-0.5712,-8.3204,21.1914,-43.0172,,adl
14.977728,-0.1912,-0.3778,-0.3182,-0.3447,-0.3956,-0.5712,-8.3204,21.1914,-43.0172,,adl
14.979433,-0.1912,-0.3778,-0.3182,-0.3447,-0.3956,-0.5712,-8.3204,21.1914,-43.0172,,adl
14.981207,-0.1912,-0.3778,-0.3182,-0.3447,-0.3956,-0.5712,-9.4794,21.228,-42.4804,,adl
15.00971,-0.1912,-0.3778,-0.3182,0.1413,-1.1378,-0.5011,-9.4794,21.228,-42.4804,,adl
15.024966,-0.0243,1.5357,-1.6181,0.1413,-1.1378,-0.5011,-9.4794,21.228,-42.4804,,adl
15.039801,-0.0243,1.5357,-1.6181,0.1413,-1.1378,-0.5011,-10.8946,21.1426,-41.9192,,adl
15.04236,-0.0243,1.5357,-1.6181,0.1413,-1.1378,-0.5011,-10.8946,21.1426,-41.9192,,adl
15.043802,-0.0243,1.5357,-1.6181,0.1413,-1.1378,-0.5011,-10.8946,21.1426,-41.9192,,adl
15.045277,-0.0243,1.5357,-1.6181,0.1413,-1.1378,-0.5011,-10.8946,21.1426,-41.9192,,adl
15.079735,-0.0243,1.5357,-1.6181,0.2818,-1.3197,-0.5641,-10.8946,21.1426,-41.9192,,adl
15.089517,-0.663,-0.735,-0.9189,0.2818,-1.3197,-0.5641,-10.8946,21.1426,-41.9192,,adl
15.099634,-0.663,-0.735,-0.9189,0.2818,-1.3197,-0.5641,-12.7612,20.862,-41.297,,adl
15.10795,-0.663,-0.735,-0.9189,0.2818,-1.3197,-0.5641,-12.7612,20.862,-41.297,,adl
15.110685,-0.663,-0.735,-0.9189,0.2818,-1.3197,-0.5641,-12.7612,20.862,-41.297,,adl
15.113391,-0.663,-0.735,-0.9189,0.2818,-1.3197,-0.5641,-12.7612,20.862,-41.297,,adl
15.116364,-0.663,-0.735,-0.9189,0.2818,-1.3197,-0.5641,-12.7612,20.862,-41.297,,adl
15.150199,-0.663,-0.735,-0.9189,0.0923,-1.1538,-0.4091,-12.7612,20.862,-41.297,,adl
15.15957,-0.663,-0.735,-0.9189,0.0923,-1.1538,-0.4091,-14.8596,20.4716,-40.443,,adl
15.162466,0.7104,1.3012,-0.5314,0.0923,-1.1538,-0.4091,-14.8596,20.4716,-40.443,,adl
15.175035,0.7104,1.3012,-0.5314,0.0923,-1.1538,-0.4091,-14.8596,20.4716,-40.443,,adl
15.176531,0.7104,1.3012,-0.5314,0.0923,-1.1538,-0.4091,-14.8596,20.4716,-40.443,,adl
15.177596,0.7104,1.3012,-0.5314,0.0923,-1.1538,-0.4091,-14.8596,20.4716,-40.443,,adl
15.219933,0.7104,1.3012,-0.5314,0.1241,-1.0827,-0.3716,-14.8596,20.4716,-40.443,,adl
15.224062,0.7104,1.3012,-0.5314,0.1241,-1.0827,-0.3716,-17.141,19.8616,-39.3694,,adl
15.229265,0.5942,0.0226,-0.5373,0.1241,-1.0827,-0.3716,-17.141,19.8616,-39.3694,,adl
15.24169,0.5942,0.0226,-0.5373,0.1241,-1.0827,-0.3716,-17.141,19.8616,-39.3694,,adl
15.245081,0.5942,0.0226,-0.5373,0.1241,-1.0827,-0.3716,-17.141,19.8616,-39.3694,,adl
15.247982,0.5942,0.0226,-0.5373,0.1241,-1.0827,-0.3716,-17.141,19.8616,-39.3694,,adl
15.278973,0.5942,0.0226,-0.5373,0.1241,-1.0827,-0.3716,-19.703,19.2028,-38.0396,,adl
15.289021,0.5942,0.0226,-0.5373,0.043,-1.2366,-0.3168,-19.703,19.2028,-38.0396,,adl
15.299604,0.0369,0.6196,-0.413,0.043,-1.2366,-0.3168,-19.703,19.2028,-38.0396,,adl
15.307597,0.0369,0.6196,-0.413,0.043,-1.2366,-0.3168,-19.703,19.2028,-38.0396,,adl
15.310655,0.0369,0.6196,-0.413,0.043,-1.2366,-0.3168,-19.703,19.2028,-38.0396,,adl
15.313351,0.0369,0.6196,-0.413,0.043,-1.2366,-0.3168,-19.703,19.2028,-38.0396,,adl
15.315963,0.0369,0.6196,-0.413,0.043,-1.2366,-0.3168,-19.703,19.2028,-38.0396,,adl
15.339134,0.0369,0.6196,-0.413,0.043,-1.2366,-0.3168,-22.5212,18.3976,-36.6,,adl
15.35878,0.0369,0.6196,-0.413,0.1784,-1.3318,-0.3095,-22.5212,18.3976,-36.6,,adl
15.368553,-0.322,-0.0776,-0.0092,0.1784,-1.3318,-0.3095,-22.5212,18.3976,-36.6,,adl
15.373717,-0.322,-0.0776,-0.0092,0.1784,-1.3318,-0.3095,-22.5212,18.3976,-36.6,,adl
15.376318,-0.322,-0.0776,-0.0092,0.1784,-1.3318,-0.3095,-22.5212,18.3976,-36.6,,adl
15.37926,-0.322,-0.0776,-0.0092,0.1784,-1.3318,-0.3095,-22.5212,18.3976,-36.6,,adl
