time,ax,ay,az,wx,wy,wz,Bx,By,Bz,Unnamed: 10,label
0.06442,0.0,0.0,0.0,-0.0048,-0.2618,0.0194,0.0,0.0,0.0,,adl
0.12254,0.0,0.0,0.0,-0.0048,-0.2618,0.0194,-30.45,-34.5375,-7.3688,,adl
0.143075,0.0,0.0,0.0,-0.0001,-0.0602,0.0017,-30.45,-34.5375,-7.3688,,adl
0.182414,0.0,0.0,0.0,-0.0001,-0.0602,0.0017,-30.8625,-34.425,-6.5063,,adl
0.205718,0.0,0.0,0.0,0.0005,0.031,-0.0032,-30.8625,-34.425,-6.5063,,adl
0.223554,0.0,0.0,0.0,0.0005,0.031,-0.0032,-30.8625,-34.425,-6.5063,,adl
0.242567,0.0,0.0,0.0,0.0005,0.031,-0.0032,-31.1438,-34.5375,-6.6938,,adl
0.265459,0.0,0.0,0.0,-0.0012,-0.0101,0.0017,-31.1438,-34.5375,-6.6938,,adl
0.284389,0.0,0.0,0.0,-0.0012,-0.0101,0.0017,-31.1438,-34.5375,-6.6938,,adl
0.30061,0.0,0.0,0.0,-0.0012,-0.0101,0.0017,-31.0313,-34.6688,-6.6938,,adl
0.326173,0.0,0.0,0.0,-0.0005,0.0041,0.0011,-31.0313,-34.6688,-6.6938,,adl
0.327311,0.0,0.0,0.0,-0.0005,0.0041,0.0011,-31.0313,-34.6688,-6.6938,,adl
0.346046,0.0,0.0,0.0,-0.0005,0.0041,0.0011,-31.0313,-34.6688,-6.6938,,adl
0.360624,0.0,0.0,0.0,-0.0005,0.0041,0.0011,-30.9188,-34.4062,-6.675,,adl
0.387531,0.0,0.0,0.0,-0.0019,0.0031,0.0007,-30.9188,-34.4062,-6.675,,adl
0.389167,0.0438,-0.0127,-0.0047,-0.0019,0.0031,0.0007,-30.9188,-34.4062,-6.675,,adl
0.406008,0.0438,-0.0127,-0.0047,-0.0019,0.0031,0.0007,-30.9188,-34.4062,-6.675,,adl
0.423328,0.0438,-0.0127,-0.0047,-0.0019,0.0031,0.0007,-30.975,-34.35,-6.6938,,adl
0.449764,-0.0028,0.0173,0.0075,-0.0019,0.0031,0.0007,-30.975,-34.35,-6.6938,,adl
0.452592,-0.0028,0.0173,0.0075,-0.0005,-0.0069,0.0011,-30.975,-34.35,-6.6938,,adl
0.466718,-0.0028,0.0173,0.0075,-0.0005,-0.0069,0.0011,-30.975,-34.35,-6.6938,,adl
0.480623,-0.0028,0.0173,0.0075,-0.0005,-0.0069,0.0011,-30.975,-34.3313,-6.6563,,adl
0.50793,-0.0028,0.0173,0.0075,-0.0016,0.0076,0.0013,-30.975,-34.3313,-6.6563,,adl
0.529903,0.0374,-0.0113,-0.0064,-0.0016,0.0076,0.0013,-30.975,-34.3313,-6.6563,,adl
0.531399,0.0374,-0.0113,-0.0064,-0.0016,0.0076,0.0013,-30.975,-34.3313,-6.6563,,adl
0.540316,0.0374,-0.0113,-0.0064,-0.0016,0.0076,0.0013,-30.9,-34.35,-6.675,,adl
0.57062,0.0374,-0.0113,-0.0064,-0.0016,-0.0268,0.0032,-30.9,-34.35,-6.675,,adl
0.588949,0.0374,-0.0113,-0.0064,-0.0016,-0.0268,0.0032,-30.9,-34.35,-6.675,,adl
0.590247,-0.0429,-0.0037,0.0191,-0.0016,-0.0268,0.0032,-30.9,-34.35,-6.675,,adl
0.600107,-0.0429,-0.0037,0.0191,-0.0016,-0.0268,0.0032,-31.0688,-34.3313,-6.5438,,adl
0.630653,-0.0429,-0.0037,0.0191,0.0003,0.0523,-0.0043,-31.0688,-34.3313,-6.5438,,adl
0.650737,-0.0429,-0.0037,0.0191,0.0003,0.0523,-0.0043,-31.0688,-34.3313,-6.5438,,adl
0.652312,0.0762,0.0147,-0.0476,0.0003,0.0523,-0.0043,-31.0688,-34.3313,-6.5438,,adl
0.660266,0.0762,0.0147,-0.0476,0.0003,0.0523,-0.0043,-31.05,-34.3875,-6.6563,,adl
0.690536,0.0762,0.0147,-0.0476,-0.0027,-0.073,0.0035,-31.05,-34.3875,-6.6563,,adl
0.710046,0.0762,0.0147,-0.0476,-0.0027,-0.073,0.0035,-31.05,-34.3875,-6.6563,,adl
0.719573,0.0762,0.0147,-0.0476,-0.0027,-0.073,0.0035,-30.825,-34.3125,-6.75,,adl
0.734241,-0.083,0.0032,0.0391,-0.0027,-0.073,0.0035,-30.825,-34.3125,-6.75,,adl
0.749567,-0.083,0.0032,0.0391,0.0013,0.0583,-0.0019,-30.825,-34.3125,-6.75,,adl
0.77267,-0.083,0.0032,0.0391,0.0013,0.0583,-0.0019,-30.825,-34.3125,-6.75,,adl
0.782423,-0.083,0.0032,0.0391,0.0013,0.0583,-0.0019,-30.75,-34.1063,-6.825,,adl
0.792192,0.0531,-0.0177,-0.0302,0.0013,0.0583,-0.0019,-30.75,-34.1063,-6.825,,adl
0.814677,0.0531,-0.0177,-0.0302,-0.0019,-0.0372,0.0039,-30.75,-34.1063,-6.825,,adl
0.832347,0.0531,-0.0177,-0.0302,-0.0019,-0.0372,0.0039,-30.75,-34.1063,-6.825,,adl
0.840255,0.0531,-0.0177,-0.0302,-0.0019,-0.0372,0.0039,-30.8063,-34.275,-6.75,,adl
0.852894,-0.0036,0.0192,0.0073,-0.0019,-0.0372,0.0039,-30.8063,-34.275,-6.75,,adl
0.875467,-0.0036,0.0192,0.0073,-0.0023,0.0137,0.0045,-30.8063,-34.275,-6.75,,adl
0.894808,-0.0036,0.0192,0.0073,-0.0023,0.0137,0.0045,-30.8063,-34.275,-6.75,,adl
0.898877,-0.0036,0.0192,0.0073,-0.0023,0.0137,0.0045,-30.7688,-34.2563,-6.675,,adl
0.913507,-0.0151,0.0018,-0.0001,-0.0023,0.0137,0.0045,-30.7688,-34.2563,-6.675,,adl
0.933754,-0.0151,0.0018,-0.0001,0.0003,-0.0031,0.0011,-30.7688,-34.2563,-6.675,,adl
0.955273,-0.0151,0.0018,-0.0001,0.0003,-0.0031,0.0011,-30.7688,-34.2563,-6.675,,adl
0.961085,-0.0151,0.0018,-0.0001,0.0003,-0.0031,0.0011,-30.7313,-34.2563,-6.6375,,adl
0.997605,-0.0151,0.0018,-0.0001,-0.0008,-0.0055,-0.0008,-30.7313,-34.2563,-6.6375,,adl
0.999877,0.0071,-0.0106,-0.0034,-0.0008,-0.0055,-0.0008,-30.7313,-34.2563,-6.6375,,adl
1.015752,0.0071,-0.0106,-0.0034,-0.0008,-0.0055,-0.0008,-30.7313,-34.2563,-6.6375,,adl
1.019616,0.0071,-0.0106,-0.0034,-0.0008,-0.0055,-0.0008,-30.8438,-34.2,-6.7125,,adl
1.056323,0.0071,-0.0106,-0.0034,-0.0005,-0.0052,-0.0,-30.8438,-34.2,-6.7125,,adl
1.05853,0.0051,-0.0091,0.0074,-0.0005,-0.0052,-0.0,-30.8438,-34.2,-6.7125,,adl
1.076378,0.0051,-0.0091,0.0074,-0.0005,-0.0052,-0.0,-30.8438,-34.2,-6.7125,,adl
1.080827,0.0051,-0.0091,0.0074,-0.0005,-0.0052,-0.0,-30.7125,-34.1625,-6.7688,,adl
1.119017,0.0051,-0.0091,0.0074,-0.0001,0.0037,-0.0021,-30.7125,-34.1625,-6.7688,,adl
1.120539,0.0071,0.0073,0.0009,-0.0001,0.0037,-0.0021,-30.7125,-34.1625,-6.7688,,adl
1.137416,0.0071,0.0073,0.0009,-0.0001,0.0037,-0.0021,-30.7125,-34.1625,-6.7688,,adl
1.140356,0.0071,0.0073,0.0009,-0.0001,0.0037,-0.0021,-30.6563,-34.1063,-6.6938,,adl
1.180675,0.0071,0.0073,0.0009,-0.0005,-0.0044,0.0011,-30.6563,-34.1063,-6.6938,,adl
1.198493,0.0071,0.0073,0.0009,-0.0005,-0.0044,0.0011,-30.6563,-34.1063,-6.6938,,adl
1.19954,0.0058,-0.0067,-0.0039,-0.0005,-0.0044,0.0011,-30.6563,-34.1063,-6.6938,,adl
1.200091,0.0058,-0.0067,-0.0039,-0.0005,-0.0044,0.0011,-30.7875,-34.1438,-6.4313,,adl
1.239347,0.0058,-0.0067,-0.0039,-0.0008,-0.0009,0.0013,-30.7875,-34.1438,-6.4313,,adl
1.259525,0.0058,-0.0067,-0.0039,-0.0008,-0.0009,0.0013,-30.7875,-34.1438,-6.4313,,adl
1.26105,-0.0043,0.0036,0.0039,-0.0008,-0.0009,0.0013,-30.7875,-34.1438,-6.4313,,adl
1.26236,-0.0043,0.0036,0.0039,-0.0008,-0.0009,0.0013,-30.9188,-34.2188,-6.3938,,adl
1.302274,-0.0043,0.0036,0.0039,-0.0005,0.0065,-0.0011,-30.9188,-34.2188,-6.3938,,adl
1.32253,-0.0043,0.0036,0.0039,-0.0005,0.0065,-0.0011,-30.9188,-34.2188,-6.3938,,adl
1.324991,0.0173,0.0058,-0.0085,-0.0005,0.0065,-0.0011,-30.9188,-34.2188,-6.3938,,adl
1.326612,0.0173,0.0058,-0.0085,-0.0005,0.0065,-0.0011,-30.8813,-34.1438,-6.4125,,adl
1.363255,0.0173,0.0058,-0.0085,-0.0005,-0.019,0.0003,-30.8813,-34.1438,-6.4125,,adl
1.380029,0.0173,0.0058,-0.0085,-0.0005,-0.019,0.0003,-31.0313,-34.2188,-6.4688,,adl
1.381621,0.0173,0.0058,-0.0085,-0.0005,-0.019,0.0003,-31.0313,-34.2188,-6.4688,,adl
1.382416,-0.0368,0.0008,0.0045,-0.0005,-0.019,0.0003,-31.0313,-34.2188,-6.4688,,adl
1.42209,-0.0368,0.0008,0.0045,0.0003,0.0222,-0.0015,-31.0313,-34.2188,-6.4688,,adl
1.443432,-0.0368,0.0008,0.0045,0.0003,0.0222,-0.0015,-31.05,-34.2,-6.6563,,adl
1.445752,-0.0368,0.0008,0.0045,0.0003,0.0222,-0.0015,-31.05,-34.2,-6.6563,,adl
1.461485,0.03,0.0007,-0.0089,0.0003,0.0222,-0.0015,-31.05,-34.2,-6.6563,,adl
1.483187,0.03,0.0007,-0.0089,-0.0008,-0.0176,0.0011,-31.05,-34.2,-6.6563,,adl
1.501803,0.03,0.0007,-0.0089,-0.0008,-0.0176,0.0011,-31.1063,-34.2,-6.75,,adl
1.503724,0.03,0.0007,-0.0089,-0.0008,-0.0176,0.0011,-31.1063,-34.2,-6.75,,adl
1.522597,-0.0109,0.0084,0.01,-0.0008,-0.0176,0.0011,-31.1063,-34.2,-6.75,,adl
1.545529,-0.0109,0.0084,0.01,0.0009,0.0129,-0.0036,-31.1063,-34.2,-6.75,,adl
1.561848,-0.0109,0.0084,0.01,0.0009,0.0129,-0.0036,-31.125,-34.2,-6.7875,,adl
1.563642,-0.0109,0.0084,0.01,0.0009,0.0129,-0.0036,-31.125,-34.2,-6.7875,,adl
1.583539,0.0174,-0.0117,-0.0021,0.0009,0.0129,-0.0036,-31.125,-34.2,-6.7875,,adl
1.603747,0.0174,-0.0117,-0.0021,-0.0019,-0.0169,0.0045,-31.125,-34.2,-6.7875,,adl
1.622059,0.0174,-0.0117,-0.0021,-0.0019,-0.0169,0.0045,-31.1063,-34.2188,-6.8438,,adl
1.624361,0.0174,-0.0117,-0.0021,-0.0019,-0.0169,0.0045,-31.1063,-34.2188,-6.8438,,adl
1.645615,-0.0324,0.019,0.0065,-0.0019,-0.0169,0.0045,-31.1063,-34.2188,-6.8438,,adl
1.665725,-0.0324,0.019,0.0065,-0.0023,0.014,-0.0,-31.1063,-34.2188,-6.8438,,adl
1.680438,-0.0324,0.019,0.0065,-0.0023,0.014,-0.0,-31.1625,-34.2,-6.9,,adl
1.687607,-0.0324,0.019,0.0065,-0.0023,0.014,-0.0,-31.1625,-34.2,-6.9,,adl
1.725168,0.0335,0.0094,-0.018,-0.0023,0.014,-0.0,-31.1625,-34.2,-6.9,,adl
1.726758,0.0335,0.0094,-0.018,-0.0012,-0.014,0.0024,-31.1625,-34.2,-6.9,,adl
1.741666,0.0335,0.0094,-0.018,-0.0012,-0.014,0.0024,-31.1625,-34.1625,-6.8813,,adl
1.745988,0.0335,0.0094,-0.018,-0.0012,-0.014,0.0024,-31.1625,-34.1625,-6.8813,,adl
1.786794,0.0335,0.0094,-0.018,0.0005,0.0112,-0.0004,-31.1625,-34.1625,-6.8813,,adl
1.788496,-0.0318,-0.0149,0.0019,0.0005,0.0112,-0.0004,-31.1625,-34.1625,-6.8813,,adl
1.801118,-0.0318,-0.0149,0.0019,0.0005,0.0112,-0.0004,-31.1813,-34.2375,-6.9,,adl
1.806714,-0.0318,-0.0149,0.0019,0.0005,0.0112,-0.0004,-31.1813,-34.2375,-6.9,,adl
1.84981,-0.0318,-0.0149,0.0019,0.0003,-0.0112,-0.0011,-31.1813,-34.2375,-6.9,,adl
1.851456,0.0075,0.0016,-0.0071,0.0003,-0.0112,-0.0011,-31.1813,-34.2375,-6.9,,adl
1.860427,0.0075,0.0016,-0.0071,0.0003,-0.0112,-0.0011,-31.0875,-34.2563,-6.9188,,adl
1.867717,0.0075,0.0016,-0.0071,0.0003,-0.0112,-0.0011,-31.0875,-34.2563,-6.9188,,adl
1.911708,0.0075,0.0016,-0.0071,-0.0008,0.0069,-0.0008,-31.0875,-34.2563,-6.9188,,adl
1.920899,0.0075,0.0016,-0.0071,-0.0008,0.0069,-0.0008,-31.0875,-34.2188,-6.7313,,adl
1.927872,0.0075,0.0016,-0.0071,-0.0008,0.0069,-0.0008,-31.0875,-34.2188,-6.7313,,adl
1.928791,-0.0085,0.008,0.0037,-0.0008,0.0069,-0.0008,-31.0875,-34.2188,-6.7313,,adl
1.969736,-0.0085,0.008,0.0037,-0.0016,0.0005,0.0011,-31.0875,-34.2188,-6.7313,,adl
1.981531,-0.0085,0.008,0.0037,-0.0016,0.0005,0.0011,-30.9563,-34.3125,-6.6188,,adl
1.990172,-0.0085,0.008,0.0037,-0.0016,0.0005,0.0011,-30.9563,-34.3125,-6.6188,,adl
1.991541,0.0103,0.0123,0.0007,-0.0016,0.0005,0.0011,-30.9563,-34.3125,-6.6188,,adl
2.030184,0.0103,0.0123,0.0007,-0.0012,-0.0041,-0.0008,-30.9563,-34.3125,-6.6188,,adl
2.039803,0.0103,0.0123,0.0007,-0.0012,-0.0041,-0.0008,-31.0313,-34.4438,-6.5438,,adl
2.05201,-0.0033,0.002,0.0084,-0.0012,-0.0041,-0.0008,-31.0313,-34.4438,-6.5438,,adl
2.053725,-0.0033,0.002,0.0084,-0.0012,-0.0041,-0.0008,-31.0313,-34.4438,-6.5438,,adl
2.092022,-0.0033,0.002,0.0084,-0.0012,-0.0087,0.0043,-31.0313,-34.4438,-6.5438,,adl
2.102562,-0.0033,0.002,0.0084,-0.0012,-0.0087,0.0043,-31.0875,-34.425,-6.5438,,adl
2.110745,-0.0033,0.002,0.0084,-0.0012,-0.0087,0.0043,-31.0875,-34.425,-6.5438,,adl
2.11168,-0.0169,0.0021,0.0016,-0.0012,-0.0087,0.0043,-31.0875,-34.425,-6.5438,,adl
2.151468,-0.0169,0.0021,0.0016,-0.0012,0.0052,0.0011,-31.0875,-34.425,-6.5438,,adl
2.160388,-0.0169,0.0021,0.0016,-0.0012,0.0052,0.0011,-31.0688,-34.3313,-6.5438,,adl
2.171352,-0.0169,0.0021,0.0016,-0.0012,0.0052,0.0011,-31.0688,-34.3313,-6.5438,,adl
2.193766,0.0255,-0.0049,-0.0138,-0.0012,0.0052,0.0011,-31.0688,-34.3313,-6.5438,,adl
2.212892,0.0255,-0.0049,-0.0138,0.0003,0.0059,-0.004,-31.0688,-34.3313,-6.5438,,adl
2.219652,0.0255,-0.0049,-0.0138,0.0003,0.0059,-0.004,-31.0125,-34.3875,-6.4688,,adl
2.233723,0.0255,-0.0049,-0.0138,0.0003,0.0059,-0.004,-31.0125,-34.3875,-6.4688,,adl
2.253395,-0.0091,-0.0012,0.0062,0.0003,0.0059,-0.004,-31.0125,-34.3875,-6.4688,,adl
2.274496,-0.0091,-0.0012,0.0062,-0.0005,-0.014,-0.0015,-31.0125,-34.3875,-6.4688,,adl
2.280138,-0.0091,-0.0012,0.0062,-0.0005,-0.014,-0.0015,-30.9563,-34.3313,-6.5813,,adl
2.294555,-0.0091,-0.0012,0.0062,-0.0005,-0.014,-0.0015,-30.9563,-34.3313,-6.5813,,adl
2.316593,-0.0185,0.005,0.0035,-0.0005,-0.014,-0.0015,-30.9563,-34.3313,-6.5813,,adl
2.334751,-0.0185,0.005,0.0035,-0.0005,0.0033,-0.0057,-30.9563,-34.3313,-6.5813,,adl
2.34115,-0.0185,0.005,0.0035,-0.0005,0.0033,-0.0057,-30.75,-34.1813,-6.5063,,adl
2.358045,-0.0185,0.005,0.0035,-0.0005,0.0033,-0.0057,-30.75,-34.1813,-6.5063,,adl
2.396993,-0.0185,0.005,0.0035,-0.0008,-0.0161,0.0035,-30.75,-34.1813,-6.5063,,adl
2.399085,0.0007,-0.0071,0.0035,-0.0008,-0.0161,0.0035,-30.75,-34.1813,-6.5063,,adl
2.400111,0.0007,-0.0071,0.0035,-0.0008,-0.0161,0.0035,-30.7125,-34.1813,-6.5813,,adl
2.415907,0.0007,-0.0071,0.0035,-0.0008,-0.0161,0.0035,-30.7125,-34.1813,-6.5813,,adl
2.455827,0.0007,-0.0071,0.0035,-0.0027,-0.0037,0.0092,-30.7125,-34.1813,-6.5813,,adl
2.45711,-0.0233,0.0244,0.0052,-0.0027,-0.0037,0.0092,-30.7125,-34.1813,-6.5813,,adl
2.459768,-0.0233,0.0244,0.0052,-0.0027,-0.0037,0.0092,-30.8063,-33.9938,-6.75,,adl
2.475756,-0.0233,0.0244,0.0052,-0.0027,-0.0037,0.0092,-30.8063,-33.9938,-6.75,,adl
2.519669,0.0432,0.0024,-0.0214,-0.0027,-0.0037,0.0092,-30.8063,-33.9938,-6.75,,adl
2.521945,0.0432,0.0024,-0.0214,-0.0027,-0.0037,0.0092,-30.8625,-33.9188,-6.8063,,adl
2.524418,0.0432,0.0024,-0.0214,-0.0023,0.0268,-0.0029,-30.8625,-33.9188,-6.8063,,adl
2.538186,0.0432,0.0024,-0.0214,-0.0023,0.0268,-0.0029,-30.8625,-33.9188,-6.8063,,adl
2.580459,-0.0333,-0.0,-0.0036,-0.0023,0.0268,-0.0029,-30.8625,-33.9188,-6.8063,,adl
2.582802,-0.0333,-0.0,-0.0036,-0.0023,0.0268,-0.0029,-30.825,-33.975,-6.8063,,adl
2.583748,-0.0333,-0.0,-0.0036,-0.0019,-0.0201,-0.0051,-30.825,-33.975,-6.8063,,adl
2.600075,-0.0333,-0.0,-0.0036,-0.0019,-0.0201,-0.0051,-30.825,-33.975,-6.8063,,adl
2.640485,-0.0333,-0.0,-0.0036,-0.0016,-0.0069,-0.0061,-30.825,-33.975,-6.8063,,adl
2.642139,-0.0333,-0.0,-0.0036,-0.0016,-0.0069,-0.0061,-30.8813,-34.0688,-6.9563,,adl
2.660176,-0.0333,-0.0,-0.0036,-0.0016,-0.0069,-0.0061,-30.8813,-34.0688,-6.9563,,adl
2.660831,-0.0297,0.0175,0.0033,-0.0016,-0.0069,-0.0061,-30.8813,-34.0688,-6.9563,,adl
2.700755,-0.0297,0.0175,0.0033,-0.0016,-0.0069,-0.0061,-30.825,-34.0312,-7.0688,,adl
2.702246,-0.0297,0.0175,0.0033,-0.0005,-0.0129,-0.0004,-30.825,-34.0312,-7.0688,,adl
2.720713,-0.0075,-0.0155,-0.0042,-0.0005,-0.0129,-0.0004,-30.825,-34.0312,-7.0688,,adl
2.722288,-0.0075,-0.0155,-0.0042,-0.0005,-0.0129,-0.0004,-30.825,-34.0312,-7.0688,,adl
2.760697,-0.0075,-0.0155,-0.0042,-0.0012,0.0165,0.0075,-30.825,-34.0312,-7.0688,,adl
2.761886,-0.0075,-0.0155,-0.0042,-0.0012,0.0165,0.0075,-30.8625,-33.9188,-7.0875,,adl
2.780592,-0.0075,-0.0155,-0.0042,-0.0012,0.0165,0.0075,-30.8625,-33.9188,-7.0875,,adl
2.782047,0.0333,0.013,-0.0061,-0.0012,0.0165,0.0075,-30.8625,-33.9188,-7.0875,,adl
2.819462,0.0333,0.013,-0.0061,-0.0012,0.0165,0.0075,-31.0688,-33.9188,-7.275,,adl
2.820905,0.0333,0.013,-0.0061,-0.0029,0.0095,0.0043,-31.0688,-33.9188,-7.275,,adl
2.841757,0.0333,0.013,-0.0061,-0.0029,0.0095,0.0043,-31.0688,-33.9188,-7.275,,adl
2.861597,0.0188,0.0234,-0.0019,-0.0029,0.0095,0.0043,-31.0688,-33.9188,-7.275,,adl
2.879962,0.0188,0.0234,-0.0019,-0.0029,0.0095,0.0043,-31.125,-33.975,-7.35,,adl
2.881702,0.0188,0.0234,-0.0019,-0.0019,-0.0027,0.0007,-31.125,-33.975,-7.35,,adl
2.903933,0.0188,0.0234,-0.0019,-0.0019,-0.0027,0.0007,-31.125,-33.975,-7.35,,adl
2.922543,-0.0488,-0.0122,0.0029,-0.0019,-0.0027,0.0007,-31.125,-33.975,-7.35,,adl
2.941633,-0.0488,-0.0122,0.0029,-0.0019,-0.0027,0.0007,-31.0313,-34.0125,-7.2938,,adl
2.943611,-0.0488,-0.0122,0.0029,0.0005,-0.0144,-0.0025,-31.0313,-34.0125,-7.2938,,adl
2.964303,-0.0488,-0.0122,0.0029,0.0005,-0.0144,-0.0025,-31.0313,-34.0125,-7.2938,,adl
2.983329,-0.0045,-0.0035,0.0124,0.0005,-0.0144,-0.0025,-31.0313,-34.0125,-7.2938,,adl
2.999741,-0.0045,-0.0035,0.0124,0.0005,-0.0144,-0.0025,-31.0313,-33.975,-7.2938,,adl
3.003249,-0.0045,-0.0035,0.0124,-0.0001,0.0041,0.0011,-31.0313,-33.975,-7.2938,,adl
3.025103,-0.0045,-0.0035,0.0124,-0.0001,0.0041,0.0011,-31.0313,-33.975,-7.2938,,adl
3.046596,0.012,0.0134,-0.0036,-0.0001,0.0041,0.0011,-31.0313,-33.975,-7.2938,,adl
3.061973,0.012,0.0134,-0.0036,-0.0001,0.0041,0.0011,-31.1438,-34.0875,-7.5,,adl
3.063981,0.012,0.0134,-0.0036,-0.0008,0.0055,0.0028,-31.1438,-34.0875,-7.5,,adl
3.085932,0.012,0.0134,-0.0036,-0.0008,0.0055,0.0028,-31.1438,-34.0875,-7.5,,adl
3.120826,0.012,0.0134,-0.0036,-0.0008,0.0055,0.0028,-30.975,-34.1625,-7.3125,,adl
3.126628,0.012,0.0134,-0.0036,-0.0016,0.0055,0.0028,-30.975,-34.1625,-7.3125,,adl
3.128158,0.0284,-0.0117,-0.0095,-0.0016,0.0055,0.0028,-30.975,-34.1625,-7.3125,,adl
3.146938,0.0284,-0.0117,-0.0095,-0.0016,0.0055,0.0028,-30.975,-34.1625,-7.3125,,adl
3.182286,0.0284,-0.0117,-0.0095,-0.0016,0.0055,0.0028,-31.0688,-34.2,-7.2938,,adl
3.18751,0.0284,-0.0117,-0.0095,-0.0037,-0.024,0.0081,-31.0688,-34.2,-7.2938,,adl
3.189491,-0.0718,0.0353,0.001,-0.0037,-0.024,0.0081,-31.0688,-34.2,-7.2938,,adl
3.20844,-0.0718,0.0353,0.001,-0.0037,-0.024,0.0081,-31.0688,-34.2,-7.2938,,adl
3.243432,-0.0718,0.0353,0.001,-0.0037,-0.024,0.0081,-31.0313,-34.2563,-7.3125,,adl
3.2495,-0.0718,0.0353,0.001,-0.0008,0.0186,-0.0021,-31.0313,-34.2563,-7.3125,,adl
3.250958,0.0389,-0.0116,-0.0078,-0.0008,0.0186,-0.0021,-31.0313,-34.2563,-7.3125,,adl
3.268325,0.0389,-0.0116,-0.0078,-0.0008,0.0186,-0.0021,-31.0313,-34.2563,-7.3125,,adl
3.302046,0.0389,-0.0116,-0.0078,-0.0008,0.0186,-0.0021,-31.0313,-34.275,-7.1813,,adl
3.310491,0.0389,-0.0116,-0.0078,-0.0001,-0.0165,-0.0004,-31.0313,-34.275,-7.1813,,adl
3.332341,0.0389,-0.0116,-0.0078,-0.0001,-0.0165,-0.0004,-31.0313,-34.275,-7.1813,,adl
3.333666,-0.0227,0.0,0.0097,-0.0001,-0.0165,-0.0004,-31.0313,-34.275,-7.1813,,adl
3.361827,-0.0227,0.0,0.0097,-0.0001,-0.0165,-0.0004,-31.0875,-34.3125,-7.1063,,adl
3.369425,-0.0227,0.0,0.0097,0.0003,-0.0031,-0.0,-31.0875,-34.3125,-7.1063,,adl
3.392224,-0.0227,0.0,0.0097,0.0003,-0.0031,-0.0,-31.0875,-34.3125,-7.1063,,adl
3.395064,0.0017,-0.001,-0.0103,0.0003,-0.0031,-0.0,-31.0875,-34.3125,-7.1063,,adl
3.42169,0.0017,-0.001,-0.0103,0.0003,-0.0031,-0.0,-31.125,-34.425,-6.7688,,adl
3.435363,0.0017,-0.001,-0.0103,-0.0001,0.0069,0.0017,-31.125,-34.425,-6.7688,,adl
3.451096,0.0017,-0.001,-0.0103,-0.0001,0.0069,0.0017,-31.125,-34.425,-6.7688,,adl
3.452544,0.0075,0.0087,-0.0004,-0.0001,0.0069,0.0017,-31.125,-34.425,-6.7688,,adl
3.483394,0.0075,0.0087,-0.0004,-0.0001,0.0069,0.0017,-30.9375,-34.3125,-6.7313,,adl
3.490979,0.0075,0.0087,-0.0004,-0.0001,0.0148,-0.0004,-30.9375,-34.3125,-6.7313,,adl
3.513606,0.0075,0.0087,-0.0004,-0.0001,0.0148,-0.0004,-30.9375,-34.3125,-6.7313,,adl
3.515265,0.0215,-0.0074,-0.0074,-0.0001,0.0148,-0.0004,-30.9375,-34.3125,-6.7313,,adl
3.542774,0.0215,-0.0074,-0.0074,-0.0001,0.0148,-0.0004,-30.9,-34.3125,-6.6,,adl
3.553023,0.0215,-0.0074,-0.0074,-0.0023,-0.0186,0.0021,-30.9,-34.3125,-6.6,,adl
3.572794,0.0215,-0.0074,-0.0074,-0.0023,-0.0186,0.0021,-30.9,-34.3125,-6.6,,adl
3.593175,-0.035,0.0033,0.0176,-0.0023,-0.0186,0.0021,-30.9,-34.3125,-6.6,,adl
3.600121,-0.035,0.0033,0.0176,-0.0023,-0.0186,0.0021,-30.9938,-34.2563,-6.7875,,adl
3.613519,-0.035,0.0033,0.0176,0.0003,0.0137,-0.0032,-30.9938,-34.2563,-6.7875,,adl
3.635583,-0.035,0.0033,0.0176,0.0003,0.0137,-0.0032,-30.9938,-34.2563,-6.7875,,adl
3.654137,0.0234,-0.007,-0.0063,0.0003,0.0137,-0.0032,-30.9938,-34.2563,-6.7875,,adl
3.66023,0.0234,-0.007,-0.0063,0.0003,0.0137,-0.0032,-31.0688,-34.3125,-6.7875,,adl
3.677536,0.0234,-0.007,-0.0063,-0.0001,-0.0105,0.0007,-31.0688,-34.3125,-6.7875,,adl
3.697969,0.0234,-0.007,-0.0063,-0.0001,-0.0105,0.0007,-31.0688,-34.3125,-6.7875,,adl
3.715042,-0.0236,0.0111,-0.0001,-0.0001,-0.0105,0.0007,-31.0688,-34.3125,-6.7875,,adl
3.719811,-0.0236,0.0111,-0.0001,-0.0001,-0.0105,0.0007,-31.0688,-34.425,-6.6563,,adl
3.73648,-0.0236,0.0111,-0.0001,-0.0005,0.0154,0.0003,-31.0688,-34.425,-6.6563,,adl
3.755529,-0.0236,0.0111,-0.0001,-0.0005,0.0154,0.0003,-31.0688,-34.425,-6.6563,,adl
3.782929,-0.0236,0.0111,-0.0001,-0.0005,0.0154,0.0003,-30.9563,-34.6125,-6.5625,,adl
3.798413,-0.0236,0.0111,-0.0001,-0.0001,-0.0127,0.0003,-30.9563,-34.6125,-6.5625,,adl
3.799717,0.01,0.0039,0.0003,-0.0001,-0.0127,0.0003,-30.9563,-34.6125,-6.5625,,adl
3.816537,0.01,0.0039,0.0003,-0.0001,-0.0127,0.0003,-30.9563,-34.6125,-6.5625,,adl
3.842356,0.01,0.0039,0.0003,-0.0001,-0.0127,0.0003,-30.8813,-34.575,-6.5438,,adl
3.857482,0.01,0.0039,0.0003,-0.0029,0.0246,0.0035,-30.8813,-34.575,-6.5438,,adl
3.858754,0.0142,-0.0128,-0.0022,-0.0029,0.0246,0.0035,-30.8813,-34.575,-6.5438,,adl
3.879086,0.0142,-0.0128,-0.0022,-0.0029,0.0246,0.0035,-30.8813,-34.575,-6.5438,,adl
3.900305,0.0142,-0.0128,-0.0022,-0.0029,0.0246,0.0035,-30.9,-34.5938,-6.75,,adl
3.917879,0.0142,-0.0128,-0.0022,-0.0037,0.0016,0.0039,-30.9,-34.5938,-6.75,,adl
3.919473,0.0012,0.0357,-0.0005,-0.0037,0.0016,0.0039,-30.9,-34.5938,-6.75,,adl
3.940926,0.0012,0.0357,-0.0005,-0.0037,0.0016,0.0039,-30.9,-34.5938,-6.75,,adl
3.964088,0.0012,0.0357,-0.0005,-0.0037,0.0016,0.0039,-30.9563,-34.6875,-6.6563,,adl
3.97865,0.0012,0.0357,-0.0005,-0.0019,0.0016,0.0021,-30.9563,-34.6875,-6.6563,,adl
3.97988,0.0025,0.0167,-0.0027,-0.0019,0.0016,0.0021,-30.9563,-34.6875,-6.6563,,adl
4.003155,0.0025,0.0167,-0.0027,-0.0019,0.0016,0.0021,-30.9563,-34.6875,-6.6563,,adl
4.021597,0.0025,0.0167,-0.0027,-0.0019,0.0016,0.0021,-30.825,-34.4625,-6.5813,,adl
4.041509,0.0025,0.0167,-0.0027,0.0016,-0.0027,-0.0004,-30.825,-34.4625,-6.5813,,adl
4.06226,0.0025,0.0167,-0.0027,0.0016,-0.0027,-0.0004,-30.825,-34.4625,-6.5813,,adl
4.063716,-0.0135,-0.0209,0.0071,0.0016,-0.0027,-0.0004,-30.825,-34.4625,-6.5813,,adl
4.084622,-0.0135,-0.0209,0.0071,0.0016,-0.0027,-0.0004,-30.7875,-34.4813,-6.4125,,adl
4.103547,-0.0135,-0.0209,0.0071,0.0013,-0.0063,0.0007,-30.7875,-34.4813,-6.4125,,adl
4.120896,-0.0135,-0.0209,0.0071,0.0013,-0.0063,0.0007,-30.7875,-34.4813,-6.4125,,adl
4.122651,-0.0263,-0.0176,0.0008,0.0013,-0.0063,0.0007,-30.7875,-34.4813,-6.4125,,adl
4.141001,-0.0263,-0.0176,0.0008,0.0013,-0.0063,0.0007,-30.7125,-34.4438,-6.3,,adl
4.162214,-0.0263,-0.0176,0.0008,-0.0012,0.0119,-0.0011,-30.7125,-34.4438,-6.3,,adl
4.1839,-0.0263,-0.0176,0.0008,-0.0012,0.0119,-0.0011,-30.7125,-34.4438,-6.3,,adl
4.185919,0.0245,0.0199,-0.0128,-0.0012,0.0119,-0.0011,-30.7125,-34.4438,-6.3,,adl
4.202233,0.0245,0.0199,-0.0128,-0.0012,0.0119,-0.0011,-30.7688,-34.425,-6.225,,adl
4.223643,0.0245,0.0199,-0.0128,-0.0012,-0.0023,-0.0,-30.7688,-34.425,-6.225,,adl
4.244586,0.0245,0.0199,-0.0128,-0.0012,-0.0023,-0.0,-30.7688,-34.425,-6.225,,adl
4.262898,0.0245,0.0199,-0.0128,-0.0012,-0.0023,-0.0,-30.825,-34.2938,-6.225,,adl
4.264989,-0.0188,0.0182,-0.0019,-0.0012,-0.0023,-0.0,-30.825,-34.2938,-6.225,,adl
4.283402,-0.0188,0.0182,-0.0019,0.0003,-0.0041,-0.0,-30.825,-34.2938,-6.225,,adl
4.305503,-0.0188,0.0182,-0.0019,0.0003,-0.0041,-0.0,-30.825,-34.2938,-6.225,,adl
4.320011,-0.0188,0.0182,-0.0019,0.0003,-0.0041,-0.0,-30.7688,-34.3313,-6.2063,,adl
4.323187,-0.0227,-0.0174,0.0049,0.0003,-0.0041,-0.0,-30.7688,-34.3313,-6.2063,,adl
4.344505,-0.0227,-0.0174,0.0049,-0.0005,-0.0069,0.0003,-30.7688,-34.3313,-6.2063,,adl
4.365738,-0.0227,-0.0174,0.0049,-0.0005,-0.0069,0.0003,-30.7688,-34.3313,-6.2063,,adl
4.380559,-0.0227,-0.0174,0.0049,-0.0005,-0.0069,0.0003,-30.6563,-34.3313,-6.1313,,adl
4.38557,-0.0026,-0.0057,0.0043,-0.0005,-0.0069,0.0003,-30.6563,-34.3313,-6.1313,,adl
4.407237,-0.0026,-0.0057,0.0043,0.0003,0.0116,-0.0,-30.6563,-34.3313,-6.1313,,adl
4.425418,-0.0026,-0.0057,0.0043,0.0003,0.0116,-0.0,-30.6563,-34.3313,-6.1313,,adl
4.442551,-0.0026,-0.0057,0.0043,0.0003,0.0116,-0.0,-30.6375,-34.3688,-6.1688,,adl
4.445973,0.007,0.007,-0.011,0.0003,0.0116,-0.0,-30.6375,-34.3688,-6.1688,,adl
4.466475,0.007,0.007,-0.011,-0.0012,-0.0041,0.0017,-30.6375,-34.3688,-6.1688,,adl
4.488429,0.007,0.007,-0.011,-0.0012,-0.0041,0.0017,-30.6375,-34.3688,-6.1688,,adl
4.501608,0.007,0.007,-0.011,-0.0012,-0.0041,0.0017,-30.675,-34.3688,-6.1313,,adl
4.528648,0.007,0.007,-0.011,0.0013,0.0063,-0.0019,-30.675,-34.3688,-6.1313,,adl
4.530791,-0.0016,0.0042,0.0054,0.0013,0.0063,-0.0019,-30.675,-34.3688,-6.1313,,adl
4.547306,-0.0016,0.0042,0.0054,0.0013,0.0063,-0.0019,-30.675,-34.3688,-6.1313,,adl
4.561693,-0.0016,0.0042,0.0054,0.0013,0.0063,-0.0019,-30.6563,-34.5188,-6.0938,,adl
4.588403,-0.0016,0.0042,0.0054,-0.0016,-0.0048,0.0011,-30.6563,-34.5188,-6.0938,,adl
4.590511,-0.0024,-0.0108,0.0109,-0.0016,-0.0048,0.0011,-30.6563,-34.5188,-6.0938,,adl
4.607983,-0.0024,-0.0108,0.0109,-0.0016,-0.0048,0.0011,-30.6563,-34.5188,-6.0938,,adl
4.619817,-0.0024,-0.0108,0.0109,-0.0016,-0.0048,0.0011,-30.6938,-34.4813,-6.1875,,adl
4.648734,-0.0024,-0.0108,0.0109,-0.0016,-0.0069,0.0035,-30.6938,-34.4813,-6.1875,,adl
4.651359,-0.0088,0.0322,0.0028,-0.0016,-0.0069,0.0035,-30.6938,-34.4813,-6.1875,,adl
4.669364,-0.0088,0.0322,0.0028,-0.0016,-0.0069,0.0035,-30.6938,-34.4813,-6.1875,,adl
4.679651,-0.0088,0.0322,0.0028,-0.0016,-0.0069,0.0035,-30.7125,-34.4625,-6.4688,,adl
4.710549,-0.0088,0.0322,0.0028,-0.0005,0.0052,0.0017,-30.7125,-34.4625,-6.4688,,adl
4.732483,-0.0088,0.0322,0.0028,-0.0005,0.0052,0.0017,-30.7125,-34.4625,-6.4688,,adl
4.734297,-0.0051,0.0066,0.0039,-0.0005,0.0052,0.0017,-30.7125,-34.4625,-6.4688,,adl
4.74031,-0.0051,0.0066,0.0039,-0.0005,0.0052,0.0017,-30.75,-34.4438,-6.675,,adl
4.771349,-0.0051,0.0066,0.0039,0.0009,-0.0048,-0.0,-30.75,-34.4438,-6.675,,adl
4.793066,-0.0051,0.0066,0.0039,0.0009,-0.0048,-0.0,-30.75,-34.4438,-6.675,,adl
4.7954,-0.0019,-0.0068,0.003,0.0009,-0.0048,-0.0,-30.75,-34.4438,-6.675,,adl
4.799962,-0.0019,-0.0068,0.003,0.0009,-0.0048,-0.0,-30.75,-34.4062,-6.75,,adl
4.832065,-0.0019,-0.0068,0.003,0.0005,-0.0005,-0.0021,-30.75,-34.4062,-6.75,,adl
4.85247,-0.0019,-0.0068,0.003,0.0005,-0.0005,-0.0021,-30.75,-34.4062,-6.75,,adl
4.854442,-0.0093,-0.0109,0.0031,0.0005,-0.0005,-0.0021,-30.75,-34.4062,-6.75,,adl
4.861315,-0.0093,-0.0109,0.0031,0.0005,-0.0005,-0.0021,-30.8063,-34.4813,-6.8063,,adl
4.894355,-0.0093,-0.0109,0.0031,-0.0005,0.0033,-0.0011,-30.8063,-34.4813,-6.8063,,adl
4.914565,-0.0093,-0.0109,0.0031,-0.0005,0.0033,-0.0011,-30.8063,-34.4813,-6.8063,,adl
4.916219,0.0026,0.0092,-0.0036,-0.0005,0.0033,-0.0011,-30.8063,-34.4813,-6.8063,,adl
4.919714,0.0026,0.0092,-0.0036,-0.0005,0.0033,-0.0011,-30.8063,-34.5,-6.9375,,adl
4.955605,0.0026,0.0092,-0.0036,-0.0016,-0.0031,0.0007,-30.8063,-34.5,-6.9375,,adl
4.973476,0.0026,0.0092,-0.0036,-0.0016,-0.0031,0.0007,-30.8063,-34.5,-6.9375,,adl
4.980038,0.0026,0.0092,-0.0036,-0.0016,-0.0031,0.0007,-30.7313,-34.6313,-6.8813,,adl
4.993697,0.0079,0.0082,0.0005,-0.0016,-0.0031,0.0007,-30.7313,-34.6313,-6.8813,,adl
5.01348,0.0079,0.0082,0.0005,-0.0019,-0.0023,0.0021,-30.7313,-34.6313,-6.8813,,adl
5.03524,0.0079,0.0082,0.0005,-0.0019,-0.0023,0.0021,-30.7313,-34.6313,-6.8813,,adl
5.041738,0.0079,0.0082,0.0005,-0.0019,-0.0023,0.0021,-30.8625,-34.4062,-6.975,,adl
5.05451,-0.0088,-0.0031,0.0013,-0.0019,-0.0023,0.0021,-30.8625,-34.4062,-6.975,,adl
5.07685,-0.0088,-0.0031,0.0013,0.0003,0.0065,-0.0015,-30.8625,-34.4062,-6.975,,adl
5.097871,-0.0088,-0.0031,0.0013,0.0003,0.0065,-0.0015,-30.8625,-34.4062,-6.975,,adl
5.103573,-0.0088,-0.0031,0.0013,0.0003,0.0065,-0.0015,-30.825,-34.4813,-6.9,,adl
5.116435,0.001,-0.0083,-0.0012,0.0003,0.0065,-0.0015,-30.825,-34.4813,-6.9,,adl
5.135882,0.001,-0.0083,-0.0012,0.0003,-0.0108,-0.0011,-30.825,-34.4813,-6.9,,adl
5.15871,0.001,-0.0083,-0.0012,0.0003,-0.0108,-0.0011,-30.825,-34.4813,-6.9,,adl
5.162802,0.001,-0.0083,-0.0012,0.0003,-0.0108,-0.0011,-30.825,-34.5,-6.7125,,adl
5.199523,0.001,-0.0083,-0.0012,-0.0005,0.002,0.0003,-30.825,-34.5,-6.7125,,adl
5.203116,-0.0218,0.0127,0.0086,-0.0005,0.002,0.0003,-30.825,-34.5,-6.7125,,adl
5.218032,-0.0218,0.0127,0.0086,-0.0005,0.002,0.0003,-30.825,-34.5,-6.7125,,adl
5.219689,-0.0218,0.0127,0.0086,-0.0005,0.002,0.0003,-30.8438,-34.575,-6.5625,,adl
5.259404,-0.0218,0.0127,0.0086,-0.0005,0.0037,-0.0019,-30.8438,-34.575,-6.5625,,adl
5.262574,-0.0048,0.002,0.0004,-0.0005,0.0037,-0.0019,-30.8438,-34.575,-6.5625,,adl
5.278218,-0.0048,0.002,0.0004,-0.0005,0.0037,-0.0019,-30.8438,-34.575,-6.5625,,adl
5.279769,-0.0048,0.002,0.0004,-0.0005,0.0037,-0.0019,-30.9,-34.5188,-6.45,,adl
5.320637,-0.0048,0.002,0.0004,-0.0019,-0.0101,0.0032,-30.9,-34.5188,-6.45,,adl
5.324246,0.0146,0.0061,-0.0044,-0.0019,-0.0101,0.0032,-30.9,-34.5188,-6.45,,adl
5.341006,0.0146,0.0061,-0.0044,-0.0019,-0.0101,0.0032,-30.9,-34.5188,-6.45,,adl
5.343669,0.0146,0.0061,-0.0044,-0.0019,-0.0101,0.0032,-30.8063,-34.5,-6.3188,,adl
5.383691,0.0146,0.0061,-0.0044,-0.0016,-0.0001,0.0013,-30.8063,-34.5,-6.3188,,adl
5.387043,-0.0392,0.0292,0.0134,-0.0016,-0.0001,0.0013,-30.8063,-34.5,-6.3188,,adl
5.402716,-0.0392,0.0292,0.0134,-0.0016,-0.0001,0.0013,-30.8438,-34.4813,-6.1688,,adl
5.404696,-0.0392,0.0292,0.0134,-0.0016,-0.0001,0.0013,-30.8438,-34.4813,-6.1688,,adl
5.443114,-0.0392,0.0292,0.0134,0.0003,-0.0041,-0.0008,-30.8438,-34.4813,-6.1688,,adl
5.461427,-0.0392,0.0292,0.0134,0.0003,-0.0041,-0.0008,-30.8813,-34.5,-6.1313,,adl
5.463699,-0.0392,0.0292,0.0134,0.0003,-0.0041,-0.0008,-30.8813,-34.5,-6.1313,,adl
5.465581,0.0184,-0.0073,-0.001,0.0003,-0.0041,-0.0008,-30.8813,-34.5,-6.1313,,adl
5.503701,0.0184,-0.0073,-0.001,0.0003,0.0031,-0.0004,-30.8813,-34.5,-6.1313,,adl
5.522235,0.0184,-0.0073,-0.001,0.0003,0.0031,-0.0004,-30.8813,-34.5,-6.1313,,adl
5.524547,0.0184,-0.0073,-0.001,0.0003,0.0031,-0.0004,-30.7313,-34.5563,-6.1875,,adl
5.525765,-0.0073,0.0,0.0071,0.0003,0.0031,-0.0004,-30.7313,-34.5563,-6.1875,,adl
5.563668,-0.0073,0.0,0.0071,0.0005,-0.0084,-0.0021,-30.7313,-34.5563,-6.1875,,adl
5.583449,-0.0073,0.0,0.0071,0.0005,-0.0084,-0.0021,-30.6938,-34.5188,-6.2813,,adl
5.58648,-0.0066,-0.0007,0.0007,0.0005,-0.0084,-0.0021,-30.6938,-34.5188,-6.2813,,adl
5.587424,-0.0066,-0.0007,0.0007,0.0005,-0.0084,-0.0021,-30.6938,-34.5188,-6.2813,,adl
5.623158,-0.0066,-0.0007,0.0007,-0.0008,0.0009,-0.0008,-30.6938,-34.5188,-6.2813,,adl
5.642915,-0.0066,-0.0007,0.0007,-0.0008,0.0009,-0.0008,-30.6938,-34.5,-6.1688,,adl
5.644714,-0.0066,-0.0007,0.0007,-0.0008,0.0009,-0.0008,-30.6938,-34.5,-6.1688,,adl
5.663604,-0.0044,0.0089,-0.004,-0.0008,0.0009,-0.0008,-30.6938,-34.5,-6.1688,,adl
5.683414,-0.0044,0.0089,-0.004,-0.0012,0.0076,0.0017,-30.6938,-34.5,-6.1688,,adl
5.700177,-0.0044,0.0089,-0.004,-0.0012,0.0076,0.0017,-30.7313,-34.425,-6.3563,,adl
5.704747,-0.0044,0.0089,-0.004,-0.0012,0.0076,0.0017,-30.7313,-34.425,-6.3563,,adl
5.72532,0.0104,0.013,-0.0036,-0.0012,0.0076,0.0017,-30.7313,-34.425,-6.3563,,adl
5.744922,0.0104,0.013,-0.0036,-0.0005,-0.0101,-0.0,-30.7313,-34.425,-6.3563,,adl
5.761431,0.0104,0.013,-0.0036,-0.0005,-0.0101,-0.0,-30.7688,-34.5563,-6.3,,adl
5.76492,0.0104,0.013,-0.0036,-0.0005,-0.0101,-0.0,-30.7688,-34.5563,-6.3,,adl
5.785461,-0.0146,-0.0193,0.0013,-0.0005,-0.0101,-0.0,-30.7688,-34.5563,-6.3,,adl
5.806121,-0.0146,-0.0193,0.0013,0.0016,0.0059,-0.0047,-30.7688,-34.5563,-6.3,,adl
5.821039,-0.0146,-0.0193,0.0013,0.0016,0.0059,-0.0047,-31.0313,-34.5563,-6.4688,,adl
5.826198,-0.0146,-0.0193,0.0013,0.0016,0.0059,-0.0047,-31.0313,-34.5563,-6.4688,,adl
5.846242,-0.0028,-0.0004,0.0031,0.0016,0.0059,-0.0047,-31.0313,-34.5563,-6.4688,,adl
5.866464,-0.0028,-0.0004,0.0031,-0.0012,-0.0144,0.0007,-31.0313,-34.5563,-6.4688,,adl
5.880824,-0.0028,-0.0004,0.0031,-0.0012,-0.0144,0.0007,-31.125,-34.65,-6.6,,adl
5.887342,-0.0028,-0.0004,0.0031,-0.0012,-0.0144,0.0007,-31.125,-34.65,-6.6,,adl
5.938451,-0.0028,-0.0004,0.0031,0.0003,0.0005,0.0017,-31.125,-34.65,-6.6,,adl
5.940681,-0.0045,0.025,-0.0084,0.0003,0.0005,0.0017,-31.125,-34.65,-6.6,,adl
5.941621,-0.0045,0.025,-0.0084,0.0003,0.0005,0.0017,-31.125,-34.4625,-6.9188,,adl
5.947751,-0.0045,0.025,-0.0084,0.0003,0.0005,0.0017,-31.125,-34.4625,-6.9188,,adl
5.990324,0.0045,-0.0169,0.0026,0.0003,0.0005,0.0017,-31.125,-34.4625,-6.9188,,adl
5.992088,0.0045,-0.0169,0.0026,0.0009,0.0001,-0.0036,-31.125,-34.4625,-6.9188,,adl
6.000362,0.0045,-0.0169,0.0026,0.0009,0.0001,-0.0036,-31.1813,-34.5,-6.8438,,adl
6.009562,0.0045,-0.0169,0.0026,0.0009,0.0001,-0.0036,-31.1813,-34.5,-6.8438,,adl
6.049552,0.0045,-0.0169,0.0026,-0.0016,-0.008,-0.0011,-31.1813,-34.5,-6.8438,,adl
6.051082,-0.0099,-0.0001,-0.0014,-0.0016,-0.008,-0.0011,-31.1813,-34.5,-6.8438,,adl
6.059989,-0.0099,-0.0001,-0.0014,-0.0016,-0.008,-0.0011,-31.2563,-34.5,-6.7688,,adl
6.069441,-0.0099,-0.0001,-0.0014,-0.0016,-0.008,-0.0011,-31.2563,-34.5,-6.7688,,adl
6.111114,-0.0099,-0.0001,-0.0014,-0.0016,-0.0218,0.0045,-31.2563,-34.5,-6.7688,,adl
6.120203,-0.0099,-0.0001,-0.0014,-0.0016,-0.0218,0.0045,-31.05,-34.3875,-6.7688,,adl
6.130076,-0.0099,-0.0001,-0.0014,-0.0016,-0.0218,0.0045,-31.05,-34.3875,-6.7688,,adl
6.130781,-0.034,0.023,-0.0017,-0.0016,-0.0218,0.0045,-31.05,-34.3875,-6.7688,,adl
6.171109,-0.034,0.023,-0.0017,-0.0005,0.0268,0.0011,-31.05,-34.3875,-6.7688,,adl
6.180532,-0.034,0.023,-0.0017,-0.0005,0.0268,0.0011,-30.9188,-34.425,-6.675,,adl
6.19164,-0.034,0.023,-0.0017,-0.0005,0.0268,0.0011,-30.9188,-34.425,-6.675,,adl
6.193024,0.0596,0.0096,-0.0065,-0.0005,0.0268,0.0011,-30.9188,-34.425,-6.675,,adl
6.231902,0.0596,0.0096,-0.0065,-0.0001,-0.0204,0.0053,-30.9188,-34.425,-6.675,,adl
6.240536,0.0596,0.0096,-0.0065,-0.0001,-0.0204,0.0053,-30.8813,-34.35,-6.75,,adl
6.253273,0.0596,0.0096,-0.0065,-0.0001,-0.0204,0.0053,-30.8813,-34.35,-6.75,,adl
6.254533,-0.0482,-0.0132,0.0105,-0.0001,-0.0204,0.0053,-30.8813,-34.35,-6.75,,adl
6.292996,-0.0482,-0.0132,0.0105,0.0009,0.0204,-0.004,-30.8813,-34.35,-6.75,,adl
6.300074,-0.0482,-0.0132,0.0105,0.0009,0.0204,-0.004,-30.8063,-34.2,-6.7313,,adl
6.31286,-0.0482,-0.0132,0.0105,0.0009,0.0204,-0.004,-30.8063,-34.2,-6.7313,,adl
6.313979,0.022,-0.0159,-0.007,0.0009,0.0204,-0.004,-30.8063,-34.2,-6.7313,,adl
6.354012,0.022,-0.0159,-0.007,-0.0012,-0.0144,-0.0057,-30.8063,-34.2,-6.7313,,adl
6.360685,0.022,-0.0159,-0.007,-0.0012,-0.0144,-0.0057,-30.75,-33.9375,-6.7875,,adl
6.374199,0.022,-0.0159,-0.007,-0.0012,-0.0144,-0.0057,-30.75,-33.9375,-6.7875,,adl
6.394644,-0.0238,0.0168,0.01,-0.0012,-0.0144,-0.0057,-30.75,-33.9375,-6.7875,,adl
6.414358,-0.0238,0.0168,0.01,-0.0012,-0.0033,-0.0,-30.75,-33.9375,-6.7875,,adl
6.419883,-0.0238,0.0168,0.01,-0.0012,-0.0033,-0.0,-30.7688,-34.0125,-6.6,,adl
6.434752,-0.0238,0.0168,0.01,-0.0012,-0.0033,-0.0,-30.7688,-34.0125,-6.6,,adl
6.455383,-0.0127,0.0225,-0.0024,-0.0012,-0.0033,-0.0,-30.7688,-34.0125,-6.6,,adl
6.47583,-0.0127,0.0225,-0.0024,-0.0005,-0.0012,0.0039,-30.7688,-34.0125,-6.6,,adl
6.479111,-0.0127,0.0225,-0.0024,-0.0005,-0.0012,0.0039,-30.7125,-33.9563,-6.5063,,adl
6.495632,-0.0127,0.0225,-0.0024,-0.0005,-0.0012,0.0039,-30.7125,-33.9563,-6.5063,,adl
6.516343,0.0102,-0.0071,-0.0009,-0.0005,-0.0012,0.0039,-30.7125,-33.9563,-6.5063,,adl
6.536284,0.0102,-0.0071,-0.0009,0.0016,0.0052,0.0017,-30.7125,-33.9563,-6.5063,,adl
6.540374,0.0102,-0.0071,-0.0009,0.0016,0.0052,0.0017,-30.7125,-34.05,-6.5438,,adl
6.556748,0.0102,-0.0071,-0.0009,0.0016,0.0052,0.0017,-30.7125,-34.05,-6.5438,,adl
6.598097,0.0102,-0.0071,-0.0009,-0.0001,0.0119,-0.0053,-30.7125,-34.05,-6.5438,,adl
6.599933,0.006,-0.0103,-0.0021,-0.0001,0.0119,-0.0053,-30.7125,-34.05,-6.5438,,adl
6.602127,0.006,-0.0103,-0.0021,-0.0001,0.0119,-0.0053,-30.8813,-34.1063,-6.7313,,adl
6.617353,0.006,-0.0103,-0.0021,-0.0001,0.0119,-0.0053,-30.8813,-34.1063,-6.7313,,adl
6.658466,0.006,-0.0103,-0.0021,-0.0023,-0.03,-0.0019,-30.8813,-34.1063,-6.7313,,adl
6.660073,-0.0023,0.0111,-0.0062,-0.0023,-0.03,-0.0019,-30.8813,-34.1063,-6.7313,,adl
6.661652,-0.0023,0.0111,-0.0062,-0.0023,-0.03,-0.0019,-30.9188,-34.2,-6.7125,,adl
6.679244,-0.0023,0.0111,-0.0062,-0.0023,-0.03,-0.0019,-30.9188,-34.2,-6.7125,,adl
6.719612,-0.0023,0.0111,-0.0062,-0.0005,0.0031,0.0017,-30.9188,-34.2,-6.7125,,adl
6.722002,-0.0542,0.0215,0.008,-0.0005,0.0031,0.0017,-30.9188,-34.2,-6.7125,,adl
6.722754,-0.0542,0.0215,0.008,-0.0005,0.0031,0.0017,-30.9188,-34.125,-6.6938,,adl
6.740624,-0.0542,0.0215,0.008,-0.0005,0.0031,0.0017,-30.9188,-34.125,-6.6938,,adl
6.782157,-0.0542,0.0215,0.008,0.0009,0.0073,0.0011,-30.9188,-34.125,-6.6938,,adl
6.783929,-0.0542,0.0215,0.008,0.0009,0.0073,0.0011,-30.8438,-34.2375,-6.7125,,adl
6.784746,0.0483,-0.0158,-0.0173,0.0009,0.0073,0.0011,-30.8438,-34.2375,-6.7125,,adl
6.801776,0.0483,-0.0158,-0.0173,0.0009,0.0073,0.0011,-30.8438,-34.2375,-6.7125,,adl
6.841591,0.0483,-0.0158,-0.0173,-0.0027,0.0033,0.006,-30.8438,-34.2375,-6.7125,,adl
6.844053,0.0483,-0.0158,-0.0173,-0.0027,0.0033,0.006,-30.8438,-34.3688,-6.5625,,adl
6.861331,0.0483,-0.0158,-0.0173,-0.0027,0.0033,0.006,-30.8438,-34.3688,-6.5625,,adl
6.863412,-0.0021,0.0082,-0.0035,-0.0027,0.0033,0.006,-30.8438,-34.3688,-6.5625,,adl
6.901648,-0.0021,0.0082,-0.0035,-0.0027,0.0033,0.006,-30.7125,-34.35,-6.6,,adl
6.903791,-0.0021,0.0082,-0.0035,-0.0016,-0.0041,-0.0011,-30.7125,-34.35,-6.6,,adl
6.923093,-0.0021,0.0082,-0.0035,-0.0016,-0.0041,-0.0011,-30.7125,-34.35,-6.6,,adl
6.925483,-0.0204,0.0426,0.0113,-0.0016,-0.0041,-0.0011,-30.7125,-34.35,-6.6,,adl
6.960294,-0.0204,0.0426,0.0113,-0.0016,-0.0041,-0.0011,-30.7688,-34.2563,-6.7313,,adl
6.962071,-0.0204,0.0426,0.0113,-0.0005,-0.031,0.0024,-30.7688,-34.2563,-6.7313,,adl
6.982962,-0.0204,0.0426,0.0113,-0.0005,-0.031,0.0024,-30.7688,-34.2563,-6.7313,,adl
6.984365,-0.0426,-0.0164,0.0113,-0.0005,-0.031,0.0024,-30.7688,-34.2563,-6.7313,,adl
7.020798,-0.0426,-0.0164,0.0113,-0.0005,-0.031,0.0024,-30.7875,-34.1625,-6.7688,,adl
7.023609,-0.0426,-0.0164,0.0113,0.0009,0.0204,-0.0032,-30.7875,-34.1625,-6.7688,,adl
7.044351,-0.0426,-0.0164,0.0113,0.0009,0.0204,-0.0032,-30.7875,-34.1625,-6.7688,,adl
7.063851,0.0678,-0.0179,-0.0088,0.0009,0.0204,-0.0032,-30.7875,-34.1625,-6.7688,,adl
7.080425,0.0678,-0.0179,-0.0088,0.0009,0.0204,-0.0032,-30.9563,-34.125,-6.9375,,adl
7.084239,0.0678,-0.0179,-0.0088,0.0005,-0.018,0.0013,-30.9563,-34.125,-6.9375,,adl
7.10513,0.0678,-0.0179,-0.0088,0.0005,-0.018,0.0013,-30.9563,-34.125,-6.9375,,adl
7.125407,-0.046,0.0008,0.0069,0.0005,-0.018,0.0013,-30.9563,-34.125,-6.9375,,adl
7.140106,-0.046,0.0008,0.0069,0.0005,-0.018,0.0013,-30.9188,-34.0875,-6.9563,,adl
7.146392,-0.046,0.0008,0.0069,-0.0001,0.0176,-0.0021,-30.9188,-34.0875,-6.9563,,adl
7.167197,-0.046,0.0008,0.0069,-0.0001,0.0176,-0.0021,-30.9188,-34.0875,-6.9563,,adl
7.187191,0.0295,0.0233,-0.008,-0.0001,0.0176,-0.0021,-30.9188,-34.0875,-6.9563,,adl
7.20088,0.0295,0.0233,-0.008,-0.0001,0.0176,-0.0021,-31.0125,-34.3313,-6.8813,,adl
7.207192,0.0295,0.0233,-0.008,0.0005,-0.024,-0.0019,-31.0125,-34.3313,-6.8813,,adl
7.226819,0.0295,0.0233,-0.008,0.0005,-0.024,-0.0019,-31.0125,-34.3313,-6.8813,,adl
7.247405,-0.0367,-0.0148,0.0058,0.0005,-0.024,-0.0019,-31.0125,-34.3313,-6.8813,,adl
7.259981,-0.0367,-0.0148,0.0058,0.0005,-0.024,-0.0019,-31.125,-34.4438,-6.9,,adl
7.269073,-0.0367,-0.0148,0.0058,-0.0005,0.0005,-0.0008,-31.125,-34.4438,-6.9,,adl
7.287458,-0.0367,-0.0148,0.0058,-0.0005,0.0005,-0.0008,-31.125,-34.4438,-6.9,,adl
7.320742,-0.0367,-0.0148,0.0058,-0.0005,0.0005,-0.0008,-31.0688,-34.4813,-6.8813,,adl
7.329489,-0.0367,-0.0148,0.0058,0.0005,0.0005,-0.0011,-31.0688,-34.4813,-6.8813,,adl
7.330936,0.0218,-0.0073,-0.0086,0.0005,0.0005,-0.0011,-31.0688,-34.4813,-6.8813,,adl
7.348675,0.0218,-0.0073,-0.0086,0.0005,0.0005,-0.0011,-31.0688,-34.4813,-6.8813,,adl
7.38092,0.0218,-0.0073,-0.0086,0.0005,0.0005,-0.0011,-31.1813,-34.4438,-6.9375,,adl
7.389448,0.0218,-0.0073,-0.0086,-0.0001,-0.0055,0.0011,-31.1813,-34.4438,-6.9375,,adl
7.390752,-0.0205,0.0137,0.0016,-0.0001,-0.0055,0.0011,-31.1813,-34.4438,-6.9375,,adl
7.411219,-0.0205,0.0137,0.0016,-0.0001,-0.0055,0.0011,-31.1813,-34.4438,-6.9375,,adl
7.44074,-0.0205,0.0137,0.0016,-0.0001,-0.0055,0.0011,-31.0875,-34.5563,-6.9188,,adl
7.451821,-0.0205,0.0137,0.0016,-0.0019,0.0059,0.0013,-31.0875,-34.5563,-6.9188,,adl
7.453072,0.0076,0.0063,-0.0059,-0.0019,0.0059,0.0013,-31.0875,-34.5563,-6.9188,,adl
7.470442,0.0076,0.0063,-0.0059,-0.0019,0.0059,0.0013,-31.0875,-34.5563,-6.9188,,adl
7.500319,0.0076,0.0063,-0.0059,-0.0019,0.0059,0.0013,-31.1813,-34.575,-6.8813,,adl
7.511616,0.0076,0.0063,-0.0059,-0.0001,-0.0069,-0.0,-31.1813,-34.575,-6.8813,,adl
7.513005,-0.0116,0.0029,-0.0019,-0.0001,-0.0069,-0.0,-31.1813,-34.575,-6.8813,,adl
7.531315,-0.0116,0.0029,-0.0019,-0.0001,-0.0069,-0.0,-31.1813,-34.575,-6.8813,,adl
7.56029,-0.0116,0.0029,-0.0019,-0.0001,-0.0069,-0.0,-30.975,-34.5938,-6.75,,adl
7.571792,-0.0116,0.0029,-0.0019,-0.0001,0.0091,-0.0019,-30.975,-34.5938,-6.75,,adl
7.591698,-0.0116,0.0029,-0.0019,-0.0001,0.0091,-0.0019,-30.975,-34.5938,-6.75,,adl
7.592646,0.0049,-0.0279,-0.0125,-0.0001,0.0091,-0.0019,-30.975,-34.5938,-6.75,,adl
7.620562,0.0049,-0.0279,-0.0125,-0.0001,0.0091,-0.0019,-31.0313,-34.5563,-6.6375,,adl
7.632578,0.0049,-0.0279,-0.0125,-0.0019,-0.0154,0.0032,-31.0313,-34.5563,-6.6375,,adl
7.653117,0.0049,-0.0279,-0.0125,-0.0019,-0.0154,0.0032,-31.0313,-34.5563,-6.6375,,adl
7.654745,-0.0272,0.0311,0.0146,-0.0019,-0.0154,0.0032,-31.0313,-34.5563,-6.6375,,adl
7.680529,-0.0272,0.0311,0.0146,-0.0019,-0.0154,0.0032,-31.0125,-34.4438,-6.7313,,adl
7.694084,-0.0272,0.0311,0.0146,-0.0008,0.0123,-0.0025,-31.0125,-34.4438,-6.7313,,adl
7.714802,-0.0272,0.0311,0.0146,-0.0008,0.0123,-0.0025,-31.0125,-34.4438,-6.7313,,adl
7.716365,0.0333,-0.0014,-0.0143,-0.0008,0.0123,-0.0025,-31.0125,-34.4438,-6.7313,,adl
7.741564,0.0333,-0.0014,-0.0143,-0.0008,0.0123,-0.0025,-30.9188,-34.275,-6.6563,,adl
7.755119,0.0333,-0.0014,-0.0143,-0.0005,-0.0116,-0.0224,-30.9188,-34.275,-6.6563,,adl
7.775921,0.0333,-0.0014,-0.0143,-0.0005,-0.0116,-0.0224,-30.9188,-34.275,-6.6563,,adl
7.796196,-0.0182,-0.076,0.0084,-0.0005,-0.0116,-0.0224,-30.9188,-34.275,-6.6563,,adl
7.803518,-0.0182,-0.076,0.0084,-0.0005,-0.0116,-0.0224,-30.8625,-34.2563,-6.7688,,adl
7.815783,-0.0182,-0.076,0.0084,-0.0037,-0.0246,-0.0061,-30.8625,-34.2563,-6.7688,,adl
7.835999,-0.0182,-0.076,0.0084,-0.0037,-0.0246,-0.0061,-30.8625,-34.2563,-6.7688,,adl
7.856292,-0.1043,0.1981,0.0399,-0.0037,-0.0246,-0.0061,-30.8625,-34.2563,-6.7688,,adl
7.860832,-0.1043,0.1981,0.0399,-0.0037,-0.0246,-0.0061,-30.9938,-34.3313,-6.6563,,adl
7.876852,-0.1043,0.1981,0.0399,0.0063,-0.1529,0.0003,-30.9938,-34.3313,-6.6563,,adl
7.897396,-0.1043,0.1981,0.0399,0.0063,-0.1529,0.0003,-30.9938,-34.3313,-6.6563,,adl
7.916887,-0.0172,-0.1174,0.0134,0.0063,-0.1529,0.0003,-30.9938,-34.3313,-6.6563,,adl
7.92038,-0.0172,-0.1174,0.0134,0.0063,-0.1529,0.0003,-31.0688,-34.1625,-6.5625,,adl
7.944947,-0.0172,-0.1174,0.0134,0.0069,0.1009,-0.0085,-31.0688,-34.1625,-6.5625,,adl
7.959306,-0.0172,-0.1174,0.0134,0.0069,0.1009,-0.0085,-31.0688,-34.1625,-6.5625,,adl
7.978838,0.143,0.0114,-0.0253,0.0069,0.1009,-0.0085,-31.0688,-34.1625,-6.5625,,adl
7.980697,0.143,0.0114,-0.0253,0.0069,0.1009,-0.0085,-30.9,-34.125,-6.4125,,adl
7.998812,0.143,0.0114,-0.0253,-0.0004,-0.0439,0.0127,-30.9,-34.125,-6.4125,,adl
8.018537,0.143,0.0114,-0.0253,-0.0004,-0.0439,0.0127,-30.9,-34.125,-6.4125,,adl
8.039544,0.143,0.0114,-0.0253,-0.0004,-0.0439,0.0127,-31.0125,-34.275,-6.225,,adl
8.059138,0.143,0.0114,-0.0253,-0.0036,0.0395,-0.0033,-31.0125,-34.275,-6.225,,adl
8.060869,-0.0948,0.0624,-0.0281,-0.0036,0.0395,-0.0033,-31.0125,-34.275,-6.225,,adl
8.079458,-0.0948,0.0624,-0.0281,-0.0036,0.0395,-0.0033,-31.0125,-34.275,-6.225,,adl
8.102187,-0.0948,0.0624,-0.0281,-0.0036,0.0395,-0.0033,-31.0688,-34.35,-6.2625,,adl
8.120957,0.0713,-0.0049,0.0191,-0.0036,0.0395,-0.0033,-31.0688,-34.35,-6.2625,,adl
8.122865,0.0713,-0.0049,0.0191,-0.0025,-0.0378,0.0028,-31.0688,-34.35,-6.2625,,adl
8.142232,0.0713,-0.0049,0.0191,-0.0025,-0.0378,0.0028,-31.0688,-34.35,-6.2625,,adl
8.160766,0.0713,-0.0049,0.0191,-0.0025,-0.0378,0.0028,-30.975,-34.275,-6.15,,adl
8.181539,0.0713,-0.0049,0.0191,-0.0011,0.0302,-0.0025,-30.975,-34.275,-6.15,,adl
8.183898,-0.0589,-0.0066,0.006,-0.0011,0.0302,-0.0025,-30.975,-34.275,-6.15,,adl
8.202673,-0.0589,-0.0066,0.006,-0.0011,0.0302,-0.0025,-30.975,-34.275,-6.15,,adl
8.223681,-0.0589,-0.0066,0.006,-0.0011,0.0302,-0.0025,-30.8813,-34.275,-6.2438,,adl
8.24281,-0.0589,-0.0066,0.006,-0.0004,-0.0103,-0.0047,-30.8813,-34.275,-6.2438,,adl
8.261988,-0.0589,-0.0066,0.006,-0.0004,-0.0103,-0.0047,-30.8813,-34.275,-6.2438,,adl
8.263448,0.0747,-0.0471,-0.0075,-0.0004,-0.0103,-0.0047,-30.8813,-34.275,-6.2438,,adl
8.280235,0.0747,-0.0471,-0.0075,-0.0004,-0.0103,-0.0047,-30.9188,-34.2938,-6.15,,adl
8.302557,0.0747,-0.0471,-0.0075,0.0024,-0.0237,0.0045,-30.9188,-34.2938,-6.15,,adl
8.323845,0.0747,-0.0471,-0.0075,0.0024,-0.0237,0.0045,-30.9188,-34.2938,-6.15,,adl
8.326057,-0.1136,0.045,0.0198,0.0024,-0.0237,0.0045,-30.9188,-34.2938,-6.15,,adl
8.34137,-0.1136,0.045,0.0198,0.0024,-0.0237,0.0045,-30.9,-34.2938,-6.3188,,adl
8.363734,-0.1136,0.045,0.0198,-0.0043,0.01,0.0166,-30.9,-34.2938,-6.3188,,adl
8.384197,0.0696,0.0347,-0.0183,-0.0043,0.01,0.0166,-30.9,-34.2938,-6.3188,,adl
8.386407,0.0696,0.0347,-0.0183,-0.0043,0.01,0.0166,-30.9,-34.2938,-6.3188,,adl
8.402105,0.0696,0.0347,-0.0183,-0.0043,0.01,0.0166,-30.9938,-34.4062,-6.3188,,adl
8.424801,0.0696,0.0347,-0.0183,-0.0025,-0.045,0.0201,-30.9938,-34.4062,-6.3188,,adl
8.445331,0.0696,0.0347,-0.0183,-0.0025,-0.045,0.0201,-30.9938,-34.4062,-6.3188,,adl
8.447543,-0.0638,0.0257,0.0091,-0.0025,-0.045,0.0201,-30.9938,-34.4062,-6.3188,,adl
8.460121,-0.0638,0.0257,0.0091,-0.0025,-0.045,0.0201,-30.975,-34.3875,-6.5063,,adl
8.485641,-0.0638,0.0257,0.0091,0.0003,0.0477,0.0035,-30.975,-34.3875,-6.5063,,adl
8.504229,-0.0638,0.0257,0.0091,0.0003,0.0477,0.0035,-30.975,-34.3875,-6.5063,,adl
8.520271,-0.0638,0.0257,0.0091,0.0003,0.0477,0.0035,-30.9938,-34.2938,-6.4688,,adl
8.526773,0.1133,-0.0553,-0.0102,0.0003,0.0477,0.0035,-30.9938,-34.2938,-6.4688,,adl
8.546484,0.1133,-0.0553,-0.0102,0.0007,-0.0141,-0.0068,-30.9938,-34.2938,-6.4688,,adl
8.570003,0.1133,-0.0553,-0.0102,0.0007,-0.0141,-0.0068,-30.9938,-34.2938,-6.4688,,adl
8.580381,0.1133,-0.0553,-0.0102,0.0007,-0.0141,-0.0068,-30.975,-34.2188,-6.4313,,adl
8.586623,-0.051,-0.0125,0.0034,0.0007,-0.0141,-0.0068,-30.975,-34.2188,-6.4313,,adl
8.606816,-0.051,-0.0125,0.0034,-0.0008,-0.0109,-0.0025,-30.975,-34.2188,-6.4313,,adl
8.627806,-0.051,-0.0125,0.0034,-0.0008,-0.0109,-0.0025,-30.975,-34.2188,-6.4313,,adl
8.640631,-0.051,-0.0125,0.0034,-0.0008,-0.0109,-0.0025,-31.0313,-34.1438,-6.6,,adl
8.647717,-0.0527,0.022,-0.0024,-0.0008,-0.0109,-0.0025,-31.0313,-34.1438,-6.6,,adl
8.668046,-0.0527,0.022,-0.0024,-0.0021,-0.0049,0.002,-31.0313,-34.1438,-6.6,,adl
8.689622,-0.0527,0.022,-0.0024,-0.0021,-0.0049,0.002,-31.0313,-34.1438,-6.6,,adl
8.701417,-0.0527,0.022,-0.0024,-0.0021,-0.0049,0.002,-31.125,-34.2188,-6.4125,,adl
8.728803,-0.0527,0.022,-0.0024,-0.0004,0.0174,0.0063,-31.125,-34.2188,-6.4125,,adl
8.730614,0.0687,0.0053,-0.0102,-0.0004,0.0174,0.0063,-31.125,-34.2188,-6.4125,,adl
8.749606,0.0687,0.0053,-0.0102,-0.0004,0.0174,0.0063,-31.125,-34.2188,-6.4125,,adl
8.760162,0.0687,0.0053,-0.0102,-0.0004,0.0174,0.0063,-31.2188,-34.1813,-6.375,,adl
8.789982,0.0111,-0.0108,0.0079,-0.0004,0.0174,0.0063,-31.2188,-34.1813,-6.375,,adl
8.791601,0.0111,-0.0108,0.0079,-0.0011,0.0206,0.0045,-31.2188,-34.1813,-6.375,,adl
8.810508,0.0111,-0.0108,0.0079,-0.0011,0.0206,0.0045,-31.2188,-34.1813,-6.375,,adl
8.820526,0.0111,-0.0108,0.0079,-0.0011,0.0206,0.0045,-31.1063,-34.2188,-6.2813,,adl
8.850919,0.0111,-0.0108,0.0079,-0.0021,-0.0095,-0.0004,-31.1063,-34.2188,-6.2813,,adl
8.852629,0.0113,-0.0032,-0.0009,-0.0021,-0.0095,-0.0004,-31.1063,-34.2188,-6.2813,,adl
8.870698,0.0113,-0.0032,-0.0009,-0.0021,-0.0095,-0.0004,-31.1063,-34.2188,-6.2813,,adl
8.8802,0.0113,-0.0032,-0.0009,-0.0021,-0.0095,-0.0004,-31.0688,-34.2188,-6.4688,,adl
8.911701,0.0113,-0.0032,-0.0009,-0.0008,-0.0073,-0.0036,-31.0688,-34.2188,-6.4688,,adl
8.913477,-0.0553,0.008,0.0062,-0.0008,-0.0073,-0.0036,-31.0688,-34.2188,-6.4688,,adl
8.934324,-0.0553,0.008,0.0062,-0.0008,-0.0073,-0.0036,-31.0688,-34.2188,-6.4688,,adl
8.942542,-0.0553,0.008,0.0062,-0.0008,-0.0073,-0.0036,-31.1063,-34.2188,-6.2625,,adl
8.975027,-0.0553,0.008,0.0062,0.0013,0.0104,-0.0029,-31.1063,-34.2188,-6.2625,,adl
8.996372,-0.0553,0.008,0.0062,0.0013,0.0104,-0.0029,-31.1063,-34.2188,-6.2625,,adl
8.999449,0.0443,-0.0247,-0.0112,0.0013,0.0104,-0.0029,-31.1063,-34.2188,-6.2625,,adl
9.001587,0.0443,-0.0247,-0.0112,0.0013,0.0104,-0.0029,-31.05,-34.3125,-6.3,,adl
9.034538,0.0443,-0.0247,-0.0112,0.0003,-0.0141,0.0063,-31.05,-34.3125,-6.3,,adl
9.054274,-0.043,-0.0027,0.0091,0.0003,-0.0141,0.0063,-31.05,-34.3125,-6.3,,adl
9.055847,-0.043,-0.0027,0.0091,0.0003,-0.0141,0.0063,-31.05,-34.3125,-6.3,,adl
9.059322,-0.043,-0.0027,0.0091,0.0003,-0.0141,0.0063,-31.05,-34.4062,-6.4125,,adl
9.095412,-0.043,-0.0027,0.0091,-0.0008,0.0526,-0.0036,-31.05,-34.4062,-6.4125,,adl
9.114957,-0.043,-0.0027,0.0091,-0.0008,0.0526,-0.0036,-31.05,-34.4062,-6.4125,,adl
9.116383,0.0896,0.0383,-0.0229,-0.0008,0.0526,-0.0036,-31.05,-34.4062,-6.4125,,adl
9.119092,0.0896,0.0383,-0.0229,-0.0008,0.0526,-0.0036,-30.975,-34.4625,-6.3188,,adl
9.15438,0.0896,0.0383,-0.0229,-0.0008,-0.0463,0.0035,-30.975,-34.4625,-6.3188,,adl
9.175507,0.0896,0.0383,-0.0229,-0.0008,-0.0463,0.0035,-30.975,-34.4625,-6.3188,,adl
9.179943,0.0896,0.0383,-0.0229,-0.0008,-0.0463,0.0035,-30.9375,-34.3688,-6.4313,,adl
9.196002,-0.1129,-0.0024,0.0262,-0.0008,-0.0463,0.0035,-30.9375,-34.3688,-6.4313,,adl
9.217101,-0.1129,-0.0024,0.0262,-0.0015,0.0136,-0.0029,-30.9375,-34.3688,-6.4313,,adl
9.241571,-0.1129,-0.0024,0.0262,-0.0015,0.0136,-0.0029,-30.9375,-34.3688,-6.4313,,adl
9.243531,-0.1129,-0.0024,0.0262,-0.0015,0.0136,-0.0029,-30.9375,-34.3125,-6.6563,,adl
9.257498,0.0597,0.0,-0.0184,-0.0015,0.0136,-0.0029,-30.9375,-34.3125,-6.6563,,adl
9.2773,0.0597,0.0,-0.0184,-0.0008,-0.0009,0.002,-30.9375,-34.3125,-6.6563,,adl
9.298686,0.0597,0.0,-0.0184,-0.0008,-0.0009,0.002,-30.9375,-34.3125,-6.6563,,adl
9.301638,0.0597,0.0,-0.0184,-0.0008,-0.0009,0.002,-30.975,-34.2563,-6.6375,,adl
9.318577,-0.0167,-0.0018,0.0069,-0.0008,-0.0009,0.002,-30.975,-34.2563,-6.6375,,adl
9.338291,-0.0167,-0.0018,0.0069,0.0003,0.0015,0.0039,-30.975,-34.2563,-6.6375,,adl
9.358355,-0.0167,-0.0018,0.0069,0.0003,0.0015,0.0039,-30.975,-34.2563,-6.6375,,adl
9.359353,-0.0167,-0.0018,0.0069,0.0003,0.0015,0.0039,-30.9938,-34.3313,-6.6,,adl
9.378682,-0.0059,-0.0133,-0.008,0.0003,0.0015,0.0039,-30.9938,-34.3313,-6.6,,adl
9.399292,-0.0059,-0.0133,-0.008,-0.0021,0.0214,0.0017,-30.9938,-34.3313,-6.6,,adl
9.419773,-0.0059,-0.0133,-0.008,-0.0021,0.0214,0.0017,-30.9938,-34.3313,-6.6,,adl
9.421545,-0.0059,-0.0133,-0.008,-0.0021,0.0214,0.0017,-31.0125,-34.3313,-6.8063,,adl
9.462386,-0.0059,-0.0133,-0.008,-0.0025,0.0121,0.0009,-31.0125,-34.3313,-6.8063,,adl
9.467239,0.0194,0.0126,-0.0152,-0.0025,0.0121,0.0009,-31.0125,-34.3313,-6.8063,,adl
9.482037,0.0194,0.0126,-0.0152,-0.0025,0.0121,0.0009,-31.0125,-34.3313,-6.8063,,adl
9.483343,0.0194,0.0126,-0.0152,-0.0025,0.0121,0.0009,-30.825,-34.2188,-6.75,,adl
9.523557,0.0194,0.0126,-0.0152,-0.0008,-0.0049,0.002,-30.825,-34.2188,-6.75,,adl
9.525436,0.017,0.0161,0.0037,-0.0008,-0.0049,0.002,-30.825,-34.2188,-6.75,,adl
9.54107,0.017,0.0161,0.0037,-0.0008,-0.0049,0.002,-30.8063,-34.1813,-6.7313,,adl
9.542625,0.017,0.0161,0.0037,-0.0008,-0.0049,0.002,-30.8063,-34.1813,-6.7313,,adl
9.584311,0.017,0.0161,0.0037,-0.0,-0.0017,-0.0004,-30.8063,-34.1813,-6.7313,,adl
9.587111,-0.0694,-0.0048,0.0204,-0.0,-0.0017,-0.0004,-30.8063,-34.1813,-6.7313,,adl
9.602186,-0.0694,-0.0048,0.0204,-0.0,-0.0017,-0.0004,-30.8438,-34.3125,-6.75,,adl
9.604127,-0.0694,-0.0048,0.0204,-0.0,-0.0017,-0.0004,-30.8438,-34.3125,-6.75,,adl
9.645129,-0.0694,-0.0048,0.0204,-0.0004,0.0004,0.0007,-30.8438,-34.3125,-6.75,,adl
9.660708,-0.0694,-0.0048,0.0204,-0.0004,0.0004,0.0007,-30.8625,-34.3875,-6.7125,,adl
9.665541,-0.0694,-0.0048,0.0204,-0.0004,0.0004,0.0007,-30.8625,-34.3875,-6.7125,,adl
9.666177,0.0359,-0.0026,-0.006,-0.0004,0.0004,0.0007,-30.8625,-34.3875,-6.7125,,adl
9.703798,0.0359,-0.0026,-0.006,-0.0019,0.0012,0.0009,-30.8625,-34.3875,-6.7125,,adl
9.72086,0.0359,-0.0026,-0.006,-0.0019,0.0012,0.0009,-30.75,-34.425,-6.3938,,adl
9.722632,0.0359,-0.0026,-0.006,-0.0019,0.0012,0.0009,-30.75,-34.425,-6.3938,,adl
9.723038,-0.0422,-0.0032,0.0047,-0.0019,0.0012,0.0009,-30.75,-34.425,-6.3938,,adl
9.765411,-0.0422,-0.0032,0.0047,-0.0008,0.0129,-0.0036,-30.75,-34.425,-6.3938,,adl
9.780153,-0.0422,-0.0032,0.0047,-0.0008,0.0129,-0.0036,-30.6375,-34.3688,-6.3188,,adl
9.784398,0.0379,-0.0038,0.0005,-0.0008,0.0129,-0.0036,-30.6375,-34.3688,-6.3188,,adl
9.784805,0.0379,-0.0038,0.0005,-0.0008,0.0129,-0.0036,-30.6375,-34.3688,-6.3188,,adl
9.82545,0.0379,-0.0038,0.0005,0.0003,-0.0269,0.0039,-30.6375,-34.3688,-6.3188,,adl
9.840885,0.0379,-0.0038,0.0005,0.0003,-0.0269,0.0039,-30.5813,-34.3688,-6.1688,,adl
9.84484,0.0379,-0.0038,0.0005,0.0003,-0.0269,0.0039,-30.5813,-34.3688,-6.1688,,adl
9.846252,-0.0712,0.0022,0.01,0.0003,-0.0269,0.0039,-30.5813,-34.3688,-6.1688,,adl
9.88742,-0.0712,0.0022,0.01,0.0007,0.0342,-0.0036,-30.5813,-34.3688,-6.1688,,adl
9.899379,-0.0712,0.0022,0.01,0.0007,0.0342,-0.0036,-30.5625,-34.425,-6.15,,adl
9.905603,-0.0712,0.0022,0.01,0.0007,0.0342,-0.0036,-30.5625,-34.425,-6.15,,adl
9.925852,0.0714,-0.0155,-0.0197,0.0007,0.0342,-0.0036,-30.5625,-34.425,-6.15,,adl
9.946004,0.0714,-0.0155,-0.0197,-0.0025,-0.0308,0.0049,-30.5625,-34.425,-6.15,,adl
9.959508,0.0714,-0.0155,-0.0197,-0.0025,-0.0308,0.0049,-30.675,-34.425,-6.4875,,adl
9.96622,0.0714,-0.0155,-0.0197,-0.0025,-0.0308,0.0049,-30.675,-34.425,-6.4875,,adl
9.986459,-0.0694,0.0304,0.0214,-0.0025,-0.0308,0.0049,-30.675,-34.425,-6.4875,,adl
10.006833,-0.0694,0.0304,0.0214,-0.0032,0.0182,0.0013,-30.675,-34.425,-6.4875,,adl
10.020522,-0.0694,0.0304,0.0214,-0.0032,0.0182,0.0013,-30.7688,-34.2938,-6.7875,,adl
10.027069,-0.0694,0.0304,0.0214,-0.0032,0.0182,0.0013,-30.7688,-34.2938,-6.7875,,adl
10.048264,0.0435,-0.0009,-0.0111,-0.0032,0.0182,0.0013,-30.7688,-34.2938,-6.7875,,adl
10.06794,0.0435,-0.0009,-0.0111,-0.0004,-0.012,0.0009,-30.7688,-34.2938,-6.7875,,adl
10.079338,0.0435,-0.0009,-0.0111,-0.0004,-0.012,0.0009,-30.8813,-34.2188,-6.9188,,adl
10.088067,0.0435,-0.0009,-0.0111,-0.0004,-0.012,0.0009,-30.8813,-34.2188,-6.9188,,adl
10.129571,0.0435,-0.0009,-0.0111,0.0013,0.0044,0.0003,-30.8813,-34.2188,-6.9188,,adl
10.132098,-0.0368,-0.0149,0.0101,0.0013,0.0044,0.0003,-30.8813,-34.2188,-6.9188,,adl
10.142376,-0.0368,-0.0149,0.0101,0.0013,0.0044,0.0003,-30.9563,-34.05,-6.9563,,adl
10.149842,-0.0368,-0.0149,0.0101,0.0013,0.0044,0.0003,-30.9563,-34.05,-6.9563,,adl
10.190686,-0.0368,-0.0149,0.0101,-0.0004,-0.006,-0.0001,-30.9563,-34.05,-6.9563,,adl
10.192379,0.0097,-0.005,-0.0089,-0.0004,-0.006,-0.0001,-30.9563,-34.05,-6.9563,,adl
10.198982,0.0097,-0.005,-0.0089,-0.0004,-0.006,-0.0001,-30.975,-34.0312,-7.2188,,adl
10.210262,0.0097,-0.005,-0.0089,-0.0004,-0.006,-0.0001,-30.975,-34.0312,-7.2188,,adl
10.250745,0.0097,-0.005,-0.0089,-0.0015,0.0033,0.0007,-30.975,-34.0312,-7.2188,,adl
10.252363,-0.0034,0.0179,-0.0077,-0.0015,0.0033,0.0007,-30.975,-34.0312,-7.2188,,adl
10.259505,-0.0034,0.0179,-0.0077,-0.0015,0.0033,0.0007,-31.2375,-34.1063,-7.4813,,adl
10.2711,-0.0034,0.0179,-0.0077,-0.0015,0.0033,0.0007,-31.2375,-34.1063,-7.4813,,adl
10.312022,-0.0034,0.0179,-0.0077,-0.0021,0.0015,0.0013,-31.2375,-34.1063,-7.4813,,adl
10.314177,-0.0065,0.0076,0.0078,-0.0021,0.0015,0.0013,-31.2375,-34.1063,-7.4813,,adl
10.321631,-0.0065,0.0076,0.0078,-0.0021,0.0015,0.0013,-31.3688,-33.9938,-7.6875,,adl
10.332345,-0.0065,0.0076,0.0078,-0.0021,0.0015,0.0013,-31.3688,-33.9938,-7.6875,,adl
10.377388,-0.0065,0.0076,0.0078,0.0003,-0.0084,0.0009,-31.3688,-33.9938,-7.6875,,adl
10.381176,-0.0065,0.0076,0.0078,0.0003,-0.0084,0.0009,-31.3688,-33.9,-7.725,,adl
10.394665,-0.0065,0.0076,0.0078,0.0003,-0.0084,0.0009,-31.3688,-33.9,-7.725,,adl
10.39578,-0.0082,-0.0075,0.0007,0.0003,-0.0084,0.0009,-31.3688,-33.9,-7.725,,adl
10.434661,-0.0082,-0.0075,0.0007,-0.0004,0.0025,-0.0004,-31.3688,-33.9,-7.725,,adl
10.441318,-0.0082,-0.0075,0.0007,-0.0004,0.0025,-0.0004,-31.3313,-33.9,-7.5,,adl
10.455489,-0.0082,-0.0075,0.0007,-0.0004,0.0025,-0.0004,-31.3313,-33.9,-7.5,,adl
10.456999,-0.0058,0.0004,-0.003,-0.0004,0.0025,-0.0004,-31.3313,-33.9,-7.5,,adl
10.495637,-0.0058,0.0004,-0.003,-0.0015,-0.0041,0.0007,-31.3313,-33.9,-7.5,,adl
10.49885,-0.0058,0.0004,-0.003,-0.0015,-0.0041,0.0007,-31.2563,-33.9563,-7.125,,adl
10.517327,-0.0058,0.0004,-0.003,-0.0015,-0.0041,0.0007,-31.2563,-33.9563,-7.125,,adl
10.519431,0.0022,0.0056,-0.0,-0.0015,-0.0041,0.0007,-31.2563,-33.9563,-7.125,,adl
10.557762,0.0022,0.0056,-0.0,-0.0008,0.0001,-0.0001,-31.2563,-33.9563,-7.125,,adl
10.560944,0.0022,0.0056,-0.0,-0.0008,0.0001,-0.0001,-31.2375,-34.0125,-6.9375,,adl
10.577372,0.0022,0.0056,-0.0,-0.0008,0.0001,-0.0001,-31.2375,-34.0125,-6.9375,,adl
10.597122,0.0036,0.0125,-0.0017,-0.0008,0.0001,-0.0001,-31.2375,-34.0125,-6.9375,,adl
10.61758,0.0036,0.0125,-0.0017,-0.0008,-0.0017,0.0013,-31.2375,-34.0125,-6.9375,,adl
10.619846,0.0036,0.0125,-0.0017,-0.0008,-0.0017,0.0013,-31.3125,-34.1625,-6.9563,,adl
10.637674,0.0036,0.0125,-0.0017,-0.0008,-0.0017,0.0013,-31.3125,-34.1625,-6.9563,,adl
10.657905,-0.0033,-0.0005,-0.0062,-0.0008,-0.0017,0.0013,-31.3125,-34.1625,-6.9563,,adl
10.678107,-0.0033,-0.0005,-0.0062,-0.0,0.0055,-0.0019,-31.3125,-34.1625,-6.9563,,adl
10.679503,-0.0033,-0.0005,-0.0062,-0.0,0.0055,-0.0019,-31.2938,-34.35,-6.9563,,adl
10.698639,-0.0033,-0.0005,-0.0062,-0.0,0.0055,-0.0019,-31.2938,-34.35,-6.9563,,adl
10.719201,0.0101,-0.002,0.0022,-0.0,0.0055,-0.0019,-31.2938,-34.35,-6.9563,,adl
10.741121,0.0101,-0.002,0.0022,-0.0019,-0.0134,0.0041,-31.2938,-34.35,-6.9563,,adl
10.743452,0.0101,-0.002,0.0022,-0.0019,-0.0134,0.0041,-31.1438,-34.3313,-6.825,,adl
10.764045,0.0101,-0.002,0.0022,-0.0019,-0.0134,0.0041,-31.1438,-34.3313,-6.825,,adl
10.781349,-0.0254,0.025,0.0056,-0.0019,-0.0134,0.0041,-31.1438,-34.3313,-6.825,,adl
10.800687,-0.0254,0.025,0.0056,-0.0019,-0.0134,0.0041,-30.9563,-34.2938,-6.75,,adl
10.802433,-0.0254,0.025,0.0056,-0.0021,0.0097,0.0017,-30.9563,-34.2938,-6.75,,adl
10.821771,-0.0254,0.025,0.0056,-0.0021,0.0097,0.0017,-30.9563,-34.2938,-6.75,,adl
10.864616,-0.0254,0.025,0.0056,-0.0004,-0.0124,0.0031,-30.9563,-34.2938,-6.75,,adl
10.868178,0.0395,-0.0029,-0.0125,-0.0004,-0.0124,0.0031,-30.9563,-34.2938,-6.75,,adl
10.870368,0.0395,-0.0029,-0.0125,-0.0004,-0.0124,0.0031,-30.8438,-34.3688,-6.6938,,adl
10.882029,0.0395,-0.0029,-0.0125,-0.0004,-0.0124,0.0031,-30.8438,-34.3688,-6.6938,,adl
10.926072,0.0395,-0.0029,-0.0125,-0.0004,-0.0124,0.0031,-30.8063,-34.4438,-6.525,,adl
10.928116,0.0395,-0.0029,-0.0125,0.0003,0.0089,-0.0001,-30.8063,-34.4438,-6.525,,adl
10.929017,-0.0316,-0.0051,0.0137,0.0003,0.0089,-0.0001,-30.8063,-34.4438,-6.525,,adl
10.944506,-0.0316,-0.0051,0.0137,0.0003,0.0089,-0.0001,-30.8063,-34.4438,-6.525,,adl
10.983962,-0.0316,-0.0051,0.0137,0.0007,-0.0073,-0.0019,-30.8063,-34.4438,-6.525,,adl
10.987195,-0.0003,-0.002,-0.0044,0.0007,-0.0073,-0.0019,-30.8063,-34.4438,-6.525,,adl
10.988965,-0.0003,-0.002,-0.0044,0.0007,-0.0073,-0.0019,-30.7688,-34.5188,-6.5813,,adl
11.003252,-0.0003,-0.002,-0.0044,0.0007,-0.0073,-0.0019,-30.7688,-34.5188,-6.5813,,adl
11.045038,-0.0003,-0.002,-0.0044,0.0007,-0.0073,-0.0019,-30.75,-34.4625,-6.4875,,adl
11.048063,-0.0003,-0.002,-0.0044,-0.0,0.0025,-0.0001,-30.75,-34.4625,-6.4875,,adl
11.065846,-0.0003,-0.002,-0.0044,-0.0,0.0025,-0.0001,-30.75,-34.4625,-6.4875,,adl
11.068121,-0.0041,-0.0015,0.0053,-0.0,0.0025,-0.0001,-30.75,-34.4625,-6.4875,,adl
11.103986,-0.0041,-0.0015,0.0053,-0.0,0.0025,-0.0001,-30.45,-34.4813,-6.375,,adl
11.107212,-0.0041,-0.0015,0.0053,-0.0011,0.0057,0.0007,-30.45,-34.4813,-6.375,,adl
11.126647,-0.0041,-0.0015,0.0053,-0.0011,0.0057,0.0007,-30.45,-34.4813,-6.375,,adl
11.128876,0.016,0.0112,-0.0003,-0.0011,0.0057,0.0007,-30.45,-34.4813,-6.375,,adl
11.161524,0.016,0.0112,-0.0003,-0.0011,0.0057,0.0007,-30.525,-34.4062,-6.2625,,adl
11.16593,0.016,0.0112,-0.0003,0.0003,-0.0063,0.0003,-30.525,-34.4062,-6.2625,,adl
11.187677,0.016,0.0112,-0.0003,0.0003,-0.0063,0.0003,-30.525,-34.4062,-6.2625,,adl
11.190827,-0.0197,0.0023,0.0078,0.0003,-0.0063,0.0003,-30.525,-34.4062,-6.2625,,adl
11.22286,-0.0197,0.0023,0.0078,0.0003,-0.0063,0.0003,-30.5625,-34.425,-6.1875,,adl
11.228205,-0.0197,0.0023,0.0078,-0.0,0.0029,-0.0004,-30.5625,-34.425,-6.1875,,adl
11.248648,-0.0197,0.0023,0.0078,-0.0,0.0029,-0.0004,-30.5625,-34.425,-6.1875,,adl
11.25132,0.0001,-0.0076,0.0044,-0.0,0.0029,-0.0004,-30.5625,-34.425,-6.1875,,adl
11.283205,0.0001,-0.0076,0.0044,-0.0,0.0029,-0.0004,-30.6375,-34.5375,-6.0938,,adl
11.288611,0.0001,-0.0076,0.0044,0.0007,0.0015,-0.0008,-30.6375,-34.5375,-6.0938,,adl
11.307326,0.0001,-0.0076,0.0044,0.0007,0.0015,-0.0008,-30.6375,-34.5375,-6.0938,,adl
11.328446,0.0017,-0.0009,-0.007,0.0007,0.0015,-0.0008,-30.6375,-34.5375,-6.0938,,adl
11.342808,0.0017,-0.0009,-0.007,0.0007,0.0015,-0.0008,-30.7688,-34.4813,-5.9438,,adl
11.346973,0.0017,-0.0009,-0.007,-0.0004,0.0029,-0.0004,-30.7688,-34.4813,-5.9438,,adl
11.371421,0.0017,-0.0009,-0.007,-0.0004,0.0029,-0.0004,-30.7688,-34.4813,-5.9438,,adl
11.389705,0.0122,0.0161,0.0039,-0.0004,0.0029,-0.0004,-30.7688,-34.4813,-5.9438,,adl
11.403555,0.0122,0.0161,0.0039,-0.0004,0.0029,-0.0004,-30.7688,-34.425,-5.9438,,adl
11.413389,0.0122,0.0161,0.0039,0.0013,-0.0041,-0.0004,-30.7688,-34.425,-5.9438,,adl
11.430073,0.0122,0.0161,0.0039,0.0013,-0.0041,-0.0004,-30.7688,-34.425,-5.9438,,adl
11.44964,-0.0292,-0.0196,-0.0,0.0013,-0.0041,-0.0004,-30.7688,-34.425,-5.9438,,adl
11.462305,-0.0292,-0.0196,-0.0,0.0013,-0.0041,-0.0004,-30.8813,-34.425,-5.925,,adl
11.468997,-0.0292,-0.0196,-0.0,-0.0,0.0044,-0.0012,-30.8813,-34.425,-5.925,,adl
11.49235,-0.0292,-0.0196,-0.0,-0.0,0.0044,-0.0012,-30.8813,-34.425,-5.925,,adl
11.520949,-0.0292,-0.0196,-0.0,-0.0,0.0044,-0.0012,-30.8813,-34.4438,-6.075,,adl
11.531214,-0.0292,-0.0196,-0.0,-0.0029,-0.0031,0.002,-30.8813,-34.4438,-6.075,,adl
11.532563,0.0088,0.0144,-0.0049,-0.0029,-0.0031,0.002,-30.8813,-34.4438,-6.075,,adl
11.550807,0.0088,0.0144,-0.0049,-0.0029,-0.0031,0.002,-30.8813,-34.4438,-6.075,,adl
11.582668,0.0088,0.0144,-0.0049,-0.0029,-0.0031,0.002,-31.0125,-34.35,-6.0938,,adl
11.593701,0.0088,0.0144,-0.0049,-0.0004,0.0136,-0.0023,-31.0125,-34.35,-6.0938,,adl
11.595281,-0.0,0.0099,0.0038,-0.0004,0.0136,-0.0023,-31.0125,-34.35,-6.0938,,adl
11.613605,-0.0,0.0099,0.0038,-0.0004,0.0136,-0.0023,-31.0125,-34.35,-6.0938,,adl
11.644139,-0.0,0.0099,0.0038,-0.0004,0.0136,-0.0023,-30.9563,-34.2,-6.1313,,adl
11.654488,-0.0303,-0.0007,0.0017,-0.0004,0.0136,-0.0023,-30.9563,-34.2,-6.1313,,adl
11.657667,-0.0303,-0.0007,0.0017,-0.0,-0.0308,0.0035,-30.9563,-34.2,-6.1313,,adl
11.673383,-0.0303,-0.0007,0.0017,-0.0,-0.0308,0.0035,-30.9563,-34.2,-6.1313,,adl
11.700415,-0.0303,-0.0007,0.0017,-0.0,-0.0308,0.0035,-30.975,-34.3313,-6.0188,,adl
11.716445,-0.0303,-0.0007,0.0017,0.0011,0.0182,-0.0001,-30.975,-34.3313,-6.0188,,adl
11.718029,0.0046,-0.0096,-0.0064,0.0011,0.0182,-0.0001,-30.975,-34.3313,-6.0188,,adl
11.733932,0.0046,-0.0096,-0.0064,0.0011,0.0182,-0.0001,-30.975,-34.3313,-6.0188,,adl
11.763311,0.0046,-0.0096,-0.0064,0.0011,0.0182,-0.0001,-30.8625,-34.3313,-6.0188,,adl
11.776033,0.0046,-0.0096,-0.0064,0.0007,-0.002,0.0007,-30.8625,-34.3313,-6.0188,,adl
11.79677,0.0046,-0.0096,-0.0064,0.0007,-0.002,0.0007,-30.8625,-34.3313,-6.0188,,adl
11.799147,0.0042,0.0012,-0.0103,0.0007,-0.002,0.0007,-30.8625,-34.3313,-6.0188,,adl
11.824132,0.0042,0.0012,-0.0103,0.0007,-0.002,0.0007,-30.8438,-34.35,-6.0938,,adl
11.836721,0.0042,0.0012,-0.0103,-0.0004,0.0033,-0.0019,-30.8438,-34.35,-6.0938,,adl
11.855392,0.0023,0.0167,0.0018,-0.0004,0.0033,-0.0019,-30.8438,-34.35,-6.0938,,adl
11.858245,0.0023,0.0167,0.0018,-0.0004,0.0033,-0.0019,-30.8438,-34.35,-6.0938,,adl
11.880781,0.0023,0.0167,0.0018,-0.0004,0.0033,-0.0019,-30.8813,-34.425,-6.2063,,adl
11.897844,0.0023,0.0167,0.0018,-0.0004,-0.0177,-0.0004,-30.8813,-34.425,-6.2063,,adl
11.917949,0.0023,0.0167,0.0018,-0.0004,-0.0177,-0.0004,-30.8813,-34.425,-6.2063,,adl
11.920415,-0.023,0.0089,-0.0022,-0.0004,-0.0177,-0.0004,-30.8813,-34.425,-6.2063,,adl
11.944459,-0.023,0.0089,-0.0022,-0.0004,-0.0177,-0.0004,-30.7688,-34.4062,-6.225,,adl
11.959307,-0.023,0.0089,-0.0022,-0.0,0.0104,0.0009,-30.7688,-34.4062,-6.225,,adl
11.978111,-0.023,0.0089,-0.0022,-0.0,0.0104,0.0009,-30.7688,-34.4062,-6.225,,adl
11.997966,0.0221,-0.0034,-0.0076,-0.0,0.0104,0.0009,-30.7688,-34.4062,-6.225,,adl
12.001139,0.0221,-0.0034,-0.0076,-0.0,0.0104,0.0009,-30.8063,-34.4062,-6.1875,,adl
12.019372,0.0221,-0.0034,-0.0076,-0.0,0.0061,0.0017,-30.8063,-34.4062,-6.1875,,adl
12.03944,0.0221,-0.0034,-0.0076,-0.0,0.0061,0.0017,-30.8063,-34.4062,-6.1875,,adl
12.061486,-0.004,0.0012,-0.0031,-0.0,0.0061,0.0017,-30.8063,-34.4062,-6.1875,,adl
12.063564,-0.004,0.0012,-0.0031,-0.0,0.0061,0.0017,-30.8813,-34.5,-6.075,,adl
12.079076,-0.004,0.0012,-0.0031,-0.0008,-0.0258,0.0052,-30.8813,-34.5,-6.075,,adl
12.099627,-0.004,0.0012,-0.0031,-0.0008,-0.0258,0.0052,-30.8813,-34.5,-6.075,,adl
12.121554,-0.0277,0.0038,0.0103,-0.0008,-0.0258,0.0052,-30.8813,-34.5,-6.075,,adl
12.124378,-0.0277,0.0038,0.0103,-0.0008,-0.0258,0.0052,-30.9,-34.5938,-5.9813,,adl
12.142951,-0.0277,0.0038,0.0103,0.0003,0.0423,-0.0057,-30.9,-34.5938,-5.9813,,adl
12.162105,-0.0277,0.0038,0.0103,0.0003,0.0423,-0.0057,-30.9,-34.5938,-5.9813,,adl
12.181933,-0.0277,0.0038,0.0103,0.0003,0.0423,-0.0057,-30.9,-34.575,-5.9813,,adl
12.183335,0.0089,0.025,-0.0107,0.0003,0.0423,-0.0057,-30.9,-34.575,-5.9813,,adl
12.202219,0.0089,0.025,-0.0107,-0.0021,-0.0634,0.0049,-30.9,-34.575,-5.9813,,adl
12.222298,0.0089,0.025,-0.0107,-0.0021,-0.0634,0.0049,-30.9,-34.575,-5.9813,,adl
12.243541,0.0089,0.025,-0.0107,-0.0021,-0.0634,0.0049,-30.9938,-34.6313,-6.0938,,adl
12.264724,0.0089,0.025,-0.0107,0.0011,0.0633,-0.004,-30.9938,-34.6313,-6.0938,,adl
12.268194,0.0404,-0.0164,-0.0005,0.0011,0.0633,-0.004,-30.9938,-34.6313,-6.0938,,adl
12.28369,0.0404,-0.0164,-0.0005,0.0011,0.0633,-0.004,-30.9938,-34.6313,-6.0938,,adl
12.30236,0.0404,-0.0164,-0.0005,0.0011,0.0633,-0.004,-31.0875,-34.6125,-6.1313,,adl
12.324434,0.0404,-0.0164,-0.0005,-0.0043,-0.0563,0.0067,-31.0875,-34.6125,-6.1313,,adl
12.327256,-0.0717,0.0078,0.0239,-0.0043,-0.0563,0.0067,-31.0875,-34.6125,-6.1313,,adl
12.344645,-0.0717,0.0078,0.0239,-0.0043,-0.0563,0.0067,-31.0875,-34.6125,-6.1313,,adl
12.364138,-0.0717,0.0078,0.0239,-0.0043,-0.0563,0.0067,-31.2,-34.6125,-6.1688,,adl
12.384617,-0.0717,0.0078,0.0239,-0.0004,0.0374,0.0013,-31.2,-34.6125,-6.1688,,adl
12.387242,0.0802,0.0167,-0.0284,-0.0004,0.0374,0.0013,-31.2,-34.6125,-6.1688,,adl
12.403996,0.0802,0.0167,-0.0284,-0.0004,0.0374,0.0013,-31.2,-34.6125,-6.1688,,adl
12.42291,0.0802,0.0167,-0.0284,-0.0004,0.0374,0.0013,-31.1625,-34.5375,-6.0375,,adl
12.444346,0.0802,0.0167,-0.0284,-0.0011,-0.0205,0.0009,-31.1625,-34.5375,-6.0375,,adl
12.467511,0.0802,0.0167,-0.0284,-0.0011,-0.0205,0.0009,-31.1625,-34.5375,-6.0375,,adl
12.470868,-0.0813,-0.0155,0.0208,-0.0011,-0.0205,0.0009,-31.1625,-34.5375,-6.0375,,adl
12.480701,-0.0813,-0.0155,0.0208,-0.0011,-0.0205,0.0009,-31.0688,-34.5,-5.9438,,adl
12.506282,-0.0813,-0.0155,0.0208,-0.0011,-0.006,-0.0015,-31.0688,-34.5,-5.9438,,adl
12.525663,-0.0813,-0.0155,0.0208,-0.0011,-0.006,-0.0015,-31.0688,-34.5,-5.9438,,adl
12.527061,0.0347,0.0023,-0.0098,-0.0011,-0.006,-0.0015,-31.0688,-34.5,-5.9438,,adl
12.542536,0.0347,0.0023,-0.0098,-0.0011,-0.006,-0.0015,-30.9563,-34.4813,-6.1875,,adl
12.566709,0.0347,0.0023,-0.0098,0.029,0.9281,-0.0289,-30.9563,-34.4813,-6.1875,,adl
