time,ax,ay,az,wx,wy,wz,Bx,By,Bz,Unnamed: 10,label
0.074592,0.0,0.0,0.0,0.0,0.0,0.0,0.0,0.0,0.0,,adl
0.123146,0.0,0.0,0.0,0.0,0.0,0.0,-29.0438,-31.9875,-18.75,,adl
0.137985,0.0,0.0,0.0,-0.0001,-0.0264,-0.021,-29.0438,-31.9875,-18.75,,adl
0.138984,0.0,0.0,0.0,-0.0001,-0.0264,-0.021,-29.0438,-31.9875,-18.75,,adl
0.177291,0.0,0.0,0.0,-0.0001,-0.0264,-0.021,-29.0438,-31.9875,-18.75,,adl
0.183798,0.0,0.0,0.0,-0.0001,-0.0264,-0.021,-28.7625,-31.8188,-18.5625,,adl
0.196773,0.0,0.0,0.0,-0.0001,-0.0264,-0.021,-28.7625,-31.8188,-18.5625,,adl
0.197328,0.0,0.0,0.0,-0.0008,-0.0048,-0.0005,-28.7625,-31.8188,-18.5625,,adl
0.238506,0.1522,-0.0148,-0.0032,-0.0008,-0.0048,-0.0005,-28.7625,-31.8188,-18.5625,,adl
0.243168,0.1522,-0.0148,-0.0032,-0.0008,-0.0048,-0.0005,-28.9125,-31.9313,-18.4125,,adl
0.258077,0.1522,-0.0148,-0.0032,-0.0008,-0.0048,-0.0005,-28.9125,-31.9313,-18.4125,,adl
0.259139,0.1522,-0.0148,-0.0032,0.0024,0.018,-0.0019,-28.9125,-31.9313,-18.4125,,adl
0.301547,0.1522,-0.0148,-0.0032,0.0024,0.018,-0.0019,-29.2125,-31.8938,-18.45,,adl
0.317919,0.1522,-0.0148,-0.0032,0.0024,0.018,-0.0019,-29.2125,-31.8938,-18.45,,adl
0.319262,0.0378,-0.026,0.0141,0.0024,0.018,-0.0019,-29.2125,-31.8938,-18.45,,adl
0.3203,0.0378,-0.026,0.0141,-0.0019,-0.0069,0.0016,-29.2125,-31.8938,-18.45,,adl
0.363017,0.0378,-0.026,0.0141,-0.0019,-0.0069,0.0016,-29.1938,-31.9875,-18.225,,adl
0.380838,-0.0021,0.0078,0.0011,-0.0019,-0.0069,0.0016,-29.1938,-31.9875,-18.225,,adl
0.381899,-0.0021,0.0078,0.0011,0.0009,0.0052,-0.0008,-29.1938,-31.9875,-18.225,,adl
0.382869,-0.0021,0.0078,0.0011,0.0009,0.0052,-0.0008,-29.1938,-31.9875,-18.225,,adl
0.422572,-0.0021,0.0078,0.0011,0.0009,0.0052,-0.0008,-29.25,-31.95,-18.2625,,adl
0.441804,-0.0021,0.0078,0.0011,0.0009,-0.0005,-0.0012,-29.25,-31.95,-18.2625,,adl
0.442574,-0.0021,0.0078,0.0011,0.0009,-0.0005,-0.0012,-29.25,-31.95,-18.2625,,adl
0.442871,0.0479,-0.0255,0.0125,0.0009,-0.0005,-0.0012,-29.25,-31.95,-18.2625,,adl
0.482928,0.0479,-0.0255,0.0125,0.0009,-0.0005,-0.0012,-29.2313,-31.8938,-18.3375,,adl
0.502073,0.0479,-0.0255,0.0125,0.002,-0.0001,-0.0001,-29.2313,-31.8938,-18.3375,,adl
0.503554,0.0479,-0.0255,0.0125,0.002,-0.0001,-0.0001,-29.2313,-31.8938,-18.3375,,adl
0.504849,0.0081,-0.0034,-0.0056,0.002,-0.0001,-0.0001,-29.2313,-31.8938,-18.3375,,adl
0.544766,0.0081,-0.0034,-0.0056,0.002,-0.0001,-0.0001,-29.3438,-31.95,-18.2438,,adl
0.564358,0.0081,-0.0034,-0.0056,0.0009,0.0009,0.0005,-29.3438,-31.95,-18.2438,,adl
0.567516,0.0081,-0.0034,-0.0056,0.0009,0.0009,0.0005,-29.3438,-31.95,-18.2438,,adl
0.583251,0.0098,-0.0109,-0.0023,0.0009,0.0009,0.0005,-29.3438,-31.95,-18.2438,,adl
0.603304,0.0098,-0.0109,-0.0023,0.0009,0.0009,0.0005,-29.5688,-32.0438,-17.9813,,adl
0.623602,0.0098,-0.0109,-0.0023,0.0009,0.0037,0.0009,-29.5688,-32.0438,-17.9813,,adl
0.624725,0.0098,-0.0109,-0.0023,0.0009,0.0037,0.0009,-29.5688,-32.0438,-17.9813,,adl
0.645509,0.0335,-0.0012,-0.0007,0.0009,0.0037,0.0009,-29.5688,-32.0438,-17.9813,,adl
0.663615,0.0335,-0.0012,-0.0007,0.0009,0.0037,0.0009,-29.6813,-32.1188,-17.9062,,adl
0.684362,0.0335,-0.0012,-0.0007,0.0009,0.0037,0.0009,-29.6813,-32.1188,-17.9062,,adl
0.685112,0.0335,-0.0012,-0.0007,-0.0001,0.0016,0.0013,-29.6813,-32.1188,-17.9062,,adl
0.704283,0.0059,-0.0032,-0.0006,-0.0001,0.0016,0.0013,-29.6813,-32.1188,-17.9062,,adl
0.722503,0.0059,-0.0032,-0.0006,-0.0001,0.0016,0.0013,-29.6438,-32.175,-17.8313,,adl
0.744247,0.0059,-0.0032,-0.0006,-0.0193,0.0237,0.0052,-29.6438,-32.175,-17.8313,,adl
0.745681,0.0059,-0.0032,-0.0006,-0.0193,0.0237,0.0052,-29.6438,-32.175,-17.8313,,adl
0.781817,0.0059,-0.0032,-0.0006,-0.0193,0.0237,0.0052,-29.625,-32.0813,-18.075,,adl
0.786313,0.0498,0.084,-0.0362,-0.0193,0.0237,0.0052,-29.625,-32.0813,-18.075,,adl
0.804946,0.0498,0.084,-0.0362,-0.0157,0.0173,-0.0005,-29.625,-32.0813,-18.075,,adl
0.806069,0.0498,0.084,-0.0362,-0.0157,0.0173,-0.0005,-29.625,-32.0813,-18.075,,adl
0.843879,0.0498,0.084,-0.0362,-0.0157,0.0173,-0.0005,-29.85,-31.8563,-18.3,,adl
0.845112,0.011,-0.0383,-0.0488,-0.0157,0.0173,-0.0005,-29.85,-31.8563,-18.3,,adl
0.86627,0.011,-0.0383,-0.0488,-0.0044,-0.0091,-0.0005,-29.85,-31.8563,-18.3,,adl
0.867833,0.011,-0.0383,-0.0488,-0.0044,-0.0091,-0.0005,-29.85,-31.8563,-18.3,,adl
0.90189,0.011,-0.0383,-0.0488,-0.0044,-0.0091,-0.0005,-29.9813,-31.875,-18.3,,adl
0.906573,-0.0427,-0.0574,0.1109,-0.0044,-0.0091,-0.0005,-29.9813,-31.875,-18.3,,adl
0.927306,-0.0427,-0.0574,0.1109,-0.0044,-0.0091,-0.0005,-29.9813,-31.875,-18.3,,adl
0.928537,-0.0427,-0.0574,0.1109,-0.0023,-0.0059,-0.0027,-29.9813,-31.875,-18.3,,adl
0.962015,-0.0427,-0.0574,0.1109,-0.0023,-0.0059,-0.0027,-30.0938,-31.8188,-18.3938,,adl
0.967219,0.0197,-0.0121,-0.0301,-0.0023,-0.0059,-0.0027,-30.0938,-31.8188,-18.3938,,adl
0.98952,0.0197,-0.0121,-0.0301,0.0059,0.0056,-0.0051,-30.0938,-31.8188,-18.3938,,adl
0.990976,0.0197,-0.0121,-0.0301,0.0059,0.0056,-0.0051,-30.0938,-31.8188,-18.3938,,adl
1.021671,0.0197,-0.0121,-0.0301,0.0059,0.0056,-0.0051,-30.0375,-31.6125,-18.675,,adl
1.048985,0.0197,-0.0121,-0.0301,-0.0016,-0.0059,0.0005,-30.0375,-31.6125,-18.675,,adl
1.050038,0.0197,-0.0121,-0.0301,-0.0016,-0.0059,0.0005,-30.0375,-31.6125,-18.675,,adl
1.050999,0.0067,-0.0184,0.0205,-0.0016,-0.0059,0.0005,-30.0375,-31.6125,-18.675,,adl
1.082262,0.0067,-0.0184,0.0205,-0.0016,-0.0059,0.0005,-29.7563,-31.4063,-19.0688,,adl
1.110003,0.0067,-0.0184,0.0205,0.0027,0.008,-0.0023,-29.7563,-31.4063,-19.0688,,adl
1.111529,-0.0066,0.0245,-0.0128,0.0027,0.008,-0.0023,-29.7563,-31.4063,-19.0688,,adl
1.112732,-0.0066,0.0245,-0.0128,0.0027,0.008,-0.0023,-29.7563,-31.4063,-19.0688,,adl
1.143263,-0.0066,0.0245,-0.0128,0.0027,0.008,-0.0023,-29.8125,-31.3313,-19.2,,adl
1.172669,-0.0066,0.0245,-0.0128,0.0027,-0.0048,0.0045,-29.8125,-31.3313,-19.2,,adl
1.174705,-0.0066,0.0245,-0.0128,0.0027,-0.0048,0.0045,-29.8125,-31.3313,-19.2,,adl
1.175841,0.0191,-0.0362,0.0031,0.0027,-0.0048,0.0045,-29.8125,-31.3313,-19.2,,adl
1.202367,0.0191,-0.0362,0.0031,0.0027,-0.0048,0.0045,-29.8125,-31.2,-19.3875,,adl
1.232798,0.0191,-0.0362,0.0031,-0.0037,0.0045,0.0005,-29.8125,-31.2,-19.3875,,adl
1.234571,0.0191,-0.0362,0.0031,-0.0037,0.0045,0.0005,-29.8125,-31.2,-19.3875,,adl
1.254091,-0.0112,0.0439,0.0011,-0.0037,0.0045,0.0005,-29.8125,-31.2,-19.3875,,adl
1.263405,-0.0112,0.0439,0.0011,-0.0037,0.0045,0.0005,-29.7375,-31.3125,-19.1625,,adl
1.293514,-0.0112,0.0439,0.0011,-0.0005,0.008,-0.0023,-29.7375,-31.3125,-19.1625,,adl
1.295143,-0.0112,0.0439,0.0011,-0.0005,0.008,-0.0023,-29.7375,-31.3125,-19.1625,,adl
1.314156,0.0395,-0.013,-0.0044,-0.0005,0.008,-0.0023,-29.7375,-31.3125,-19.1625,,adl
1.322974,0.0395,-0.013,-0.0044,-0.0005,0.008,-0.0023,-29.5688,-31.5,-19.05,,adl
1.35317,0.0395,-0.013,-0.0044,-0.0008,-0.0104,0.0009,-29.5688,-31.5,-19.05,,adl
1.353814,0.0395,-0.013,-0.0044,-0.0008,-0.0104,0.0009,-29.5688,-31.5,-19.05,,adl
1.376001,-0.0487,-0.0026,-0.0065,-0.0008,-0.0104,0.0009,-29.5688,-31.5,-19.05,,adl
1.382876,-0.0487,-0.0026,-0.0065,-0.0008,-0.0104,0.0009,-29.3063,-31.4813,-18.9563,,adl
1.415178,-0.0487,-0.0026,-0.0065,0.0013,-0.0012,0.0009,-29.3063,-31.4813,-18.9563,,adl
1.416096,-0.0487,-0.0026,-0.0065,0.0013,-0.0012,0.0009,-29.3063,-31.4813,-18.9563,,adl
1.435412,0.0234,-0.0119,0.0103,0.0013,-0.0012,0.0009,-29.3063,-31.4813,-18.9563,,adl
1.443202,0.0234,-0.0119,0.0103,0.0013,-0.0012,0.0009,-29.1563,-31.425,-18.9563,,adl
1.476587,0.0234,-0.0119,0.0103,0.0013,-0.0012,0.0009,-29.1563,-31.425,-18.9563,,adl
1.477652,0.0234,-0.0119,0.0103,0.0031,0.0099,-0.0005,-29.1563,-31.425,-18.9563,,adl
1.502567,0.0234,-0.0119,0.0103,0.0031,0.0099,-0.0005,-29.2125,-31.65,-18.7313,,adl
1.516998,0.0334,-0.0047,0.0099,0.0031,0.0099,-0.0005,-29.2125,-31.65,-18.7313,,adl
1.536892,0.0334,-0.0047,0.0099,-0.0016,-0.0065,0.0013,-29.2125,-31.65,-18.7313,,adl
1.537506,0.0334,-0.0047,0.0099,-0.0016,-0.0065,0.0013,-29.2125,-31.65,-18.7313,,adl
1.56242,0.0334,-0.0047,0.0099,-0.0016,-0.0065,0.0013,-29.3063,-31.65,-18.675,,adl
1.576772,-0.0449,0.0137,-0.0061,-0.0016,-0.0065,0.0013,-29.3063,-31.65,-18.675,,adl
1.597758,-0.0449,0.0137,-0.0061,-0.0008,-0.0019,0.0005,-29.3063,-31.65,-18.675,,adl
1.599136,-0.0449,0.0137,-0.0061,-0.0008,-0.0019,0.0005,-29.3063,-31.65,-18.675,,adl
1.622451,-0.0449,0.0137,-0.0061,-0.0008,-0.0019,0.0005,-29.2688,-31.6125,-18.7313,,adl
1.638902,0.0244,-0.0029,-0.0114,-0.0008,-0.0019,0.0005,-29.2688,-31.6125,-18.7313,,adl
1.658739,0.0244,-0.0029,-0.0114,-0.0008,-0.0019,0.0005,-29.2688,-31.6125,-18.7313,,adl
1.660754,0.0244,-0.0029,-0.0114,0.002,0.0095,-0.0001,-29.2688,-31.6125,-18.7313,,adl
1.682082,0.0244,-0.0029,-0.0114,0.002,0.0095,-0.0001,-29.4188,-31.4625,-18.8438,,adl
1.720591,0.0244,-0.0029,-0.0114,0.002,0.0095,-0.0001,-29.4188,-31.4625,-18.8438,,adl
1.722742,0.0196,-0.0102,0.0112,0.002,0.0095,-0.0001,-29.4188,-31.4625,-18.8438,,adl
1.724175,0.0196,-0.0102,0.0112,-0.0008,0.0003,0.0005,-29.4188,-31.4625,-18.8438,,adl
1.744335,0.0196,-0.0102,0.0112,-0.0008,0.0003,0.0005,-29.4188,-31.4063,-18.7125,,adl
1.78072,0.0196,-0.0102,0.0112,-0.0008,0.0003,0.0005,-29.4188,-31.4063,-18.7125,,adl
1.782132,-0.0182,0.0062,-0.0044,-0.0008,0.0003,0.0005,-29.4188,-31.4063,-18.7125,,adl
1.783169,-0.0182,0.0062,-0.0044,-0.0001,0.0031,-0.0008,-29.4188,-31.4063,-18.7125,,adl
1.802686,-0.0182,0.0062,-0.0044,-0.0001,0.0031,-0.0008,-29.4938,-31.35,-18.7875,,adl
1.842254,-0.0182,0.0062,-0.0044,-0.0001,0.0031,-0.0008,-29.4938,-31.35,-18.7875,,adl
1.843422,0.0021,-0.0136,-0.0082,-0.0001,0.0031,-0.0008,-29.4938,-31.35,-18.7875,,adl
1.844238,0.0021,-0.0136,-0.0082,0.002,-0.0023,0.0005,-29.4938,-31.35,-18.7875,,adl
1.863482,0.0021,-0.0136,-0.0082,0.002,-0.0023,0.0005,-29.6063,-31.4063,-18.9563,,adl
1.90438,0.0021,-0.0136,-0.0082,0.0031,0.002,-0.0016,-29.6063,-31.4063,-18.9563,,adl
1.905572,0.0021,-0.0136,-0.0082,0.0031,0.002,-0.0016,-29.6063,-31.4063,-18.9563,,adl
1.906461,-0.0057,-0.0122,-0.0028,0.0031,0.002,-0.0016,-29.6063,-31.4063,-18.9563,,adl
1.924512,-0.0057,-0.0122,-0.0028,0.0031,0.002,-0.0016,-29.7563,-31.6313,-18.75,,adl
1.962996,-0.0057,-0.0122,-0.0028,0.0027,0.002,-0.0001,-29.7563,-31.6313,-18.75,,adl
1.964051,-0.0057,-0.0122,-0.0028,0.0027,0.002,-0.0001,-29.7563,-31.6313,-18.75,,adl
1.98296,-0.0057,-0.0122,-0.0028,0.0027,0.002,-0.0001,-29.775,-31.35,-19.0312,,adl
1.984318,0.0165,-0.0161,0.0037,0.0027,0.002,-0.0001,-29.775,-31.35,-19.0312,,adl
2.024394,0.0165,-0.0161,0.0037,0.0027,0.002,-0.0001,-29.775,-31.35,-19.0312,,adl
2.026108,0.0165,-0.0161,0.0037,0.0003,-0.0033,0.0005,-29.775,-31.35,-19.0312,,adl
2.043489,0.0165,-0.0161,0.0037,0.0003,-0.0033,0.0005,-29.7375,-31.4625,-18.7688,,adl
2.044849,-0.0107,0.0275,-0.0055,0.0003,-0.0033,0.0005,-29.7375,-31.4625,-18.7688,,adl
2.085403,-0.0107,0.0275,-0.0055,0.0003,-0.0033,0.0005,-29.7375,-31.4625,-18.7688,,adl
2.086755,-0.0107,0.0275,-0.0055,0.0005,-0.0005,-0.0008,-29.7375,-31.4625,-18.7688,,adl
2.105731,-0.0107,0.0275,-0.0055,0.0005,-0.0005,-0.0008,-29.7,-31.575,-18.675,,adl
2.107061,-0.0008,-0.0106,0.0048,0.0005,-0.0005,-0.0008,-29.7,-31.575,-18.675,,adl
2.146434,-0.0008,-0.0106,0.0048,0.0005,-0.0005,-0.0008,-29.7,-31.575,-18.675,,adl
2.147975,-0.0008,-0.0106,0.0048,-0.0001,-0.0048,0.0013,-29.7,-31.575,-18.675,,adl
2.163062,-0.0008,-0.0106,0.0048,-0.0001,-0.0048,0.0013,-29.5688,-31.8188,-18.3563,,adl
2.186812,-0.007,0.0008,-0.001,-0.0001,-0.0048,0.0013,-29.5688,-31.8188,-18.3563,,adl
2.20728,-0.007,0.0008,-0.001,-0.0001,-0.0048,0.0013,-29.5688,-31.8188,-18.3563,,adl
2.208168,-0.007,0.0008,-0.001,0.0005,0.0027,0.0003,-29.5688,-31.8188,-18.3563,,adl
2.223962,-0.007,0.0008,-0.001,0.0005,0.0027,0.0003,-29.4938,-31.7625,-18.4125,,adl
2.24673,0.0229,-0.0079,-0.0035,0.0005,0.0027,0.0003,-29.4938,-31.7625,-18.4125,,adl
2.267295,0.0229,-0.0079,-0.0035,0.0009,0.002,0.0003,-29.4938,-31.7625,-18.4125,,adl
2.267927,0.0229,-0.0079,-0.0035,0.0009,0.002,0.0003,-29.4938,-31.7625,-18.4125,,adl
2.281958,0.0229,-0.0079,-0.0035,0.0009,0.002,0.0003,-29.475,-31.8188,-18.4125,,adl
2.307378,0.0044,-0.0054,-0.0059,0.0009,0.002,0.0003,-29.475,-31.8188,-18.4125,,adl
2.327778,0.0044,-0.0054,-0.0059,0.0024,-0.0059,0.0009,-29.475,-31.8188,-18.4125,,adl
2.329039,0.0044,-0.0054,-0.0059,0.0024,-0.0059,0.0009,-29.475,-31.8188,-18.4125,,adl
2.341849,0.0044,-0.0054,-0.0059,0.0024,-0.0059,0.0009,-29.4938,-31.65,-18.45,,adl
2.36866,-0.0113,-0.001,0.0034,0.0024,-0.0059,0.0009,-29.4938,-31.65,-18.45,,adl
2.390472,-0.0113,-0.001,0.0034,0.0005,0.0056,-0.0016,-29.4938,-31.65,-18.45,,adl
2.39126,-0.0113,-0.001,0.0034,0.0005,0.0056,-0.0016,-29.4938,-31.65,-18.45,,adl
2.402676,-0.0113,-0.001,0.0034,0.0005,0.0056,-0.0016,-29.5125,-31.65,-18.5438,,adl
2.451722,-0.0113,-0.001,0.0034,0.0005,0.0056,-0.0016,-29.5125,-31.65,-18.5438,,adl
2.452858,-0.0113,-0.001,0.0034,-0.0012,-0.0044,0.002,-29.5125,-31.65,-18.5438,,adl
2.456696,0.0273,-0.0019,-0.0044,-0.0012,-0.0044,0.002,-29.5125,-31.65,-18.5438,,adl
2.462515,0.0273,-0.0019,-0.0044,-0.0012,-0.0044,0.002,-29.3813,-31.875,-18.2625,,adl
2.511602,0.0273,-0.0019,-0.0044,-0.0012,-0.0044,0.002,-29.3813,-31.875,-18.2625,,adl
2.512714,-0.0257,0.0093,0.0025,-0.0012,-0.0044,0.002,-29.3813,-31.875,-18.2625,,adl
2.51366,-0.0257,0.0093,0.0025,-0.0016,0.0041,-0.0001,-29.3813,-31.875,-18.2625,,adl
2.523341,-0.0257,0.0093,0.0025,-0.0016,0.0041,-0.0001,-29.4375,-31.8563,-18.4125,,adl
2.57283,-0.0257,0.0093,0.0025,-0.0016,0.0041,-0.0001,-29.4375,-31.8563,-18.4125,,adl
2.57433,-0.0257,0.0093,0.0025,0.0016,-0.0008,-0.0001,-29.4375,-31.8563,-18.4125,,adl
2.575232,0.0269,-0.0047,-0.0032,0.0016,-0.0008,-0.0001,-29.4375,-31.8563,-18.4125,,adl
2.583232,0.0269,-0.0047,-0.0032,0.0016,-0.0008,-0.0001,-29.3625,-31.7813,-18.3188,,adl
2.634705,0.0269,-0.0047,-0.0032,0.0016,-0.0008,-0.0001,-29.3625,-31.7813,-18.3188,,adl
2.636441,0.0269,-0.0047,-0.0032,0.0013,-0.0059,-0.0001,-29.3625,-31.7813,-18.3188,,adl
2.641736,0.0269,-0.0047,-0.0032,0.0013,-0.0059,-0.0001,-29.3625,-31.6875,-18.3563,,adl
2.65399,-0.0212,-0.0206,0.0018,0.0013,-0.0059,-0.0001,-29.3625,-31.6875,-18.3563,,adl
2.695295,-0.0212,-0.0206,0.0018,-0.0008,-0.0076,0.0016,-29.3625,-31.6875,-18.3563,,adl
2.69677,-0.0212,-0.0206,0.0018,-0.0008,-0.0076,0.0016,-29.3625,-31.6875,-18.3563,,adl
2.703918,-0.0212,-0.0206,0.0018,-0.0008,-0.0076,0.0016,-29.4938,-31.9313,-18.3188,,adl
2.715416,-0.0013,0.01,0.001,-0.0008,-0.0076,0.0016,-29.4938,-31.9313,-18.3188,,adl
2.755777,-0.0013,0.01,0.001,0.0003,0.0099,-0.0023,-29.4938,-31.9313,-18.3188,,adl
2.756872,-0.0013,0.01,0.001,0.0003,0.0099,-0.0023,-29.4938,-31.9313,-18.3188,,adl
2.764678,-0.0013,0.01,0.001,0.0003,0.0099,-0.0023,-29.4563,-31.95,-18.225,,adl
2.776394,0.0347,0.0046,-0.0165,0.0003,0.0099,-0.0023,-29.4563,-31.95,-18.225,,adl
2.816484,0.0347,0.0046,-0.0165,0.0005,-0.0008,0.002,-29.4563,-31.95,-18.225,,adl
2.817602,0.0347,0.0046,-0.0165,0.0005,-0.0008,0.002,-29.4563,-31.95,-18.225,,adl
2.823665,0.0347,0.0046,-0.0165,0.0005,-0.0008,0.002,-29.5313,-32.0063,-18.1688,,adl
2.83904,-0.0094,-0.0149,0.0075,0.0005,-0.0008,0.002,-29.5313,-32.0063,-18.1688,,adl
2.878136,-0.0094,-0.0149,0.0075,0.002,0.0013,0.0013,-29.5313,-32.0063,-18.1688,,adl
2.87989,-0.0094,-0.0149,0.0075,0.002,0.0013,0.0013,-29.5313,-32.0063,-18.1688,,adl
2.883424,-0.0094,-0.0149,0.0075,0.002,0.0013,0.0013,-29.4563,-31.8375,-18.075,,adl
2.91754,0.0065,-0.0134,-0.0051,0.002,0.0013,0.0013,-29.4563,-31.8375,-18.075,,adl
2.938574,0.0065,-0.0134,-0.0051,-0.0019,-0.0016,0.0005,-29.4563,-31.8375,-18.075,,adl
2.939268,0.0065,-0.0134,-0.0051,-0.0019,-0.0016,0.0005,-29.4563,-31.8375,-18.075,,adl
2.942573,0.0065,-0.0134,-0.0051,-0.0019,-0.0016,0.0005,-29.5688,-31.9313,-18.0938,,adl
2.979537,-0.0066,0.0287,-0.0053,-0.0019,-0.0016,0.0005,-29.5688,-31.9313,-18.0938,,adl
2.99905,-0.0066,0.0287,-0.0053,-0.0033,-0.0161,0.0063,-29.5688,-31.9313,-18.0938,,adl
2.999692,-0.0066,0.0287,-0.0053,-0.0033,-0.0161,0.0063,-29.5688,-31.9313,-18.0938,,adl
3.002515,-0.0066,0.0287,-0.0053,-0.0033,-0.0161,0.0063,-29.3625,-31.9313,-18.075,,adl
3.040211,-0.0343,-0.0091,0.011,-0.0033,-0.0161,0.0063,-29.3625,-31.9313,-18.075,,adl
3.061609,-0.0343,-0.0091,0.011,-0.0027,-0.0055,0.0116,-29.3625,-31.9313,-18.075,,adl
3.063021,-0.0343,-0.0091,0.011,-0.0027,-0.0055,0.0116,-29.3625,-31.9313,-18.075,,adl
3.06338,-0.0343,-0.0091,0.011,-0.0027,-0.0055,0.0116,-29.4188,-31.8938,-18.0938,,adl
3.121723,-0.0343,-0.0091,0.011,0.0105,0.0261,-0.0101,-29.4188,-31.8938,-18.0938,,adl
3.124117,-0.0343,-0.0091,0.011,0.0105,0.0261,-0.0101,-29.4188,-31.8938,-18.0938,,adl
3.12565,0.0205,-0.0248,-0.0066,0.0105,0.0261,-0.0101,-29.4188,-31.8938,-18.0938,,adl
3.127133,0.0205,-0.0248,-0.0066,0.0105,0.0261,-0.0101,-29.4375,-31.9688,-18.0563,,adl
3.18402,0.0205,-0.0248,-0.0066,0.002,0.0041,-0.0176,-29.4375,-31.9688,-18.0563,,adl
3.184992,0.0205,-0.0248,-0.0066,0.002,0.0041,-0.0176,-29.4375,-31.9688,-18.0563,,adl
3.18569,0.107,-0.0483,-0.0026,0.002,0.0041,-0.0176,-29.4375,-31.9688,-18.0563,,adl
3.187123,0.107,-0.0483,-0.0026,0.002,0.0041,-0.0176,-29.3625,-31.9125,-18.1875,,adl
3.248088,0.107,-0.0483,-0.0026,0.002,0.0041,-0.0176,-29.3063,-31.9313,-18.1313,,adl
3.250429,0.107,-0.0483,-0.0026,0.0009,-0.0313,-0.0023,-29.3063,-31.9313,-18.1313,,adl
3.251569,0.107,-0.0483,-0.0026,0.0009,-0.0313,-0.0023,-29.3063,-31.9313,-18.1313,,adl
3.255577,-0.1483,0.0412,0.0172,0.0009,-0.0313,-0.0023,-29.3063,-31.9313,-18.1313,,adl
3.304014,-0.1483,0.0412,0.0172,0.0009,-0.0313,-0.0023,-29.175,-31.95,-17.9813,,adl
3.305033,-0.1483,0.0412,0.0172,-0.0037,0.0258,0.0137,-29.175,-31.95,-17.9813,,adl
3.305654,-0.1483,0.0412,0.0172,-0.0037,0.0258,0.0137,-29.175,-31.95,-17.9813,,adl
3.306328,0.0385,0.0533,-0.0369,-0.0037,0.0258,0.0137,-29.175,-31.95,-17.9813,,adl
3.366938,0.0385,0.0533,-0.0369,-0.0037,0.0258,0.0137,-29.1375,-32.1188,-18.0,,adl
3.368338,0.0385,0.0533,-0.0369,0.0016,0.0589,0.0099,-29.1375,-32.1188,-18.0,,adl
3.368856,0.0385,0.0533,-0.0369,0.0016,0.0589,0.0099,-29.1375,-32.1188,-18.0,,adl
3.385159,0.157,-0.0645,0.0262,0.0016,0.0589,0.0099,-29.1375,-32.1188,-18.0,,adl
3.425576,0.157,-0.0645,0.0262,0.0016,0.0589,0.0099,-29.025,-32.0063,-17.9438,,adl
3.42765,0.157,-0.0645,0.0262,0.0024,-0.0061,-0.004,-29.025,-32.0063,-17.9438,,adl
3.428524,0.157,-0.0645,0.0262,0.0024,-0.0061,-0.004,-29.025,-32.0063,-17.9438,,adl
3.4455,-0.0764,-0.0316,-0.0074,0.0024,-0.0061,-0.004,-29.025,-32.0063,-17.9438,,adl
3.483411,-0.0764,-0.0316,-0.0074,0.0024,-0.0061,-0.004,-29.25,-32.0063,-18.0,,adl
3.485252,-0.0764,-0.0316,-0.0074,0.0016,-0.053,-0.0104,-29.25,-32.0063,-18.0,,adl
3.486145,-0.0764,-0.0316,-0.0074,0.0016,-0.053,-0.0104,-29.25,-32.0063,-18.0,,adl
3.507562,-0.1302,0.0069,0.0066,0.0016,-0.053,-0.0104,-29.25,-32.0063,-18.0,,adl
3.543963,-0.1302,0.0069,0.0066,0.0016,-0.053,-0.0104,-29.1563,-32.1562,-17.925,,adl
3.547605,-0.1302,0.0069,0.0066,0.0016,-0.053,-0.0104,-29.1563,-32.1562,-17.925,,adl
3.549334,-0.1302,0.0069,0.0066,0.0024,-0.0174,-0.0104,-29.1563,-32.1562,-17.925,,adl
3.588512,0.0606,-0.0065,0.009,0.0024,-0.0174,-0.0104,-29.1563,-32.1562,-17.925,,adl
3.602847,0.0606,-0.0065,0.009,0.0024,-0.0174,-0.0104,-29.1375,-32.1938,-17.9062,,adl
3.607791,0.0606,-0.0065,0.009,0.0027,0.0127,0.0013,-29.1375,-32.1938,-17.9062,,adl
3.608753,0.0606,-0.0065,0.009,0.0027,0.0127,0.0013,-29.1375,-32.1938,-17.9062,,adl
3.651127,0.0584,0.0104,-0.0177,0.0027,0.0127,0.0013,-29.1375,-32.1938,-17.9062,,adl
3.664779,0.0584,0.0104,-0.0177,0.0027,0.0127,0.0013,-29.0625,-32.175,-17.7188,,adl
3.670129,0.0584,0.0104,-0.0177,0.002,0.0386,0.0045,-29.0625,-32.175,-17.7188,,adl
3.671189,0.0584,0.0104,-0.0177,0.002,0.0386,0.0045,-29.0625,-32.175,-17.7188,,adl
3.709934,0.0646,0.0111,-0.0102,0.002,0.0386,0.0045,-29.0625,-32.175,-17.7188,,adl
3.723983,0.0646,0.0111,-0.0102,0.002,0.0386,0.0045,-29.0438,-32.2125,-17.7,,adl
3.729626,0.0646,0.0111,-0.0102,-0.0016,0.019,0.0077,-29.0438,-32.2125,-17.7,,adl
3.730371,0.0646,0.0111,-0.0102,-0.0016,0.019,0.0077,-29.0438,-32.2125,-17.7,,adl
3.770909,-0.0483,0.0216,0.0013,-0.0016,0.019,0.0077,-29.0438,-32.2125,-17.7,,adl
3.785732,-0.0483,0.0216,0.0013,-0.0016,0.019,0.0077,-28.9875,-32.2875,-17.7,,adl
3.789934,-0.0483,0.0216,0.0013,0.0013,0.0016,-0.0001,-28.9875,-32.2875,-17.7,,adl
3.790485,-0.0483,0.0216,0.0013,0.0013,0.0016,-0.0001,-28.9875,-32.2875,-17.7,,adl
3.845307,-0.0483,0.0216,0.0013,0.0013,0.0016,-0.0001,-28.95,-32.2875,-17.5688,,adl
3.854561,-0.0483,0.0216,0.0013,0.0013,0.0016,-0.0001,-28.95,-32.2875,-17.5688,,adl
3.855479,0.0054,-0.0354,0.0221,0.0013,0.0016,-0.0001,-28.95,-32.2875,-17.5688,,adl
3.856448,0.0054,-0.0354,0.0221,0.0016,-0.0016,-0.0059,-28.95,-32.2875,-17.5688,,adl
3.903587,0.0054,-0.0354,0.0221,0.0016,-0.0016,-0.0059,-28.875,-32.325,-17.5312,,adl
3.912847,0.0054,-0.0354,0.0221,0.0016,-0.0016,-0.0059,-28.875,-32.325,-17.5312,,adl
3.913933,0.0054,-0.0354,0.0221,0.0003,-0.0146,-0.0001,-28.875,-32.325,-17.5312,,adl
3.915044,-0.0397,-0.0038,-0.0015,0.0003,-0.0146,-0.0001,-28.875,-32.325,-17.5312,,adl
3.963338,-0.0397,-0.0038,-0.0015,0.0003,-0.0146,-0.0001,-28.875,-32.4563,-17.3625,,adl
3.974008,-0.0397,-0.0038,-0.0015,0.0003,0.0095,0.0024,-28.875,-32.4563,-17.3625,,adl
3.975262,-0.0397,-0.0038,-0.0015,0.0003,0.0095,0.0024,-28.875,-32.4563,-17.3625,,adl
3.975724,-0.0032,0.0062,-0.003,0.0003,0.0095,0.0024,-28.875,-32.4563,-17.3625,,adl
4.024242,-0.0032,0.0062,-0.003,0.0003,0.0095,0.0024,-28.9125,-32.4188,-17.3813,,adl
4.035828,-0.0032,0.0062,-0.003,0.0009,0.0116,0.0009,-28.9125,-32.4188,-17.3813,,adl
4.036625,-0.0032,0.0062,-0.003,0.0009,0.0116,0.0009,-28.9125,-32.4188,-17.3813,,adl
4.056616,0.0561,-0.0091,-0.0013,0.0009,0.0116,0.0009,-28.9125,-32.4188,-17.3813,,adl
4.084791,0.0561,-0.0091,-0.0013,0.0009,0.0116,0.0009,-28.8938,-32.4938,-17.4188,,adl
4.095637,0.0561,-0.0091,-0.0013,-0.0001,-0.0005,-0.0012,-28.8938,-32.4938,-17.4188,,adl
4.097012,0.0561,-0.0091,-0.0013,-0.0001,-0.0005,-0.0012,-28.8938,-32.4938,-17.4188,,adl
4.115763,-0.0385,0.0004,0.006,-0.0001,-0.0005,-0.0012,-28.8938,-32.4938,-17.4188,,adl
4.144733,-0.0385,0.0004,0.006,-0.0001,-0.0005,-0.0012,-28.8938,-32.4375,-17.5688,,adl
4.156387,-0.0385,0.0004,0.006,0.0009,-0.0029,-0.0016,-28.8938,-32.4375,-17.5688,,adl
4.157662,-0.0385,0.0004,0.006,0.0009,-0.0029,-0.0016,-28.8938,-32.4375,-17.5688,,adl
4.176499,-0.0147,-0.0017,0.0038,0.0009,-0.0029,-0.0016,-28.8938,-32.4375,-17.5688,,adl
4.20402,-0.0147,-0.0017,0.0038,0.0009,-0.0029,-0.0016,-28.9875,-32.4563,-17.625,,adl
4.217096,-0.0147,-0.0017,0.0038,-0.0008,0.0024,-0.0001,-28.9875,-32.4563,-17.625,,adl
4.218349,-0.0147,-0.0017,0.0038,-0.0008,0.0024,-0.0001,-28.9875,-32.4563,-17.625,,adl
4.237298,0.0195,0.0072,-0.0073,-0.0008,0.0024,-0.0001,-28.9875,-32.4563,-17.625,,adl
4.263709,0.0195,0.0072,-0.0073,-0.0008,0.0024,-0.0001,-29.175,-32.4375,-17.7563,,adl
4.277274,0.0195,0.0072,-0.0073,0.0009,0.0016,-0.0016,-29.175,-32.4375,-17.7563,,adl
4.278809,0.0195,0.0072,-0.0073,0.0009,0.0016,-0.0016,-29.175,-32.4375,-17.7563,,adl
4.318988,-0.0015,-0.0098,0.0055,0.0009,0.0016,-0.0016,-29.175,-32.4375,-17.7563,,adl
4.321403,-0.0015,-0.0098,0.0055,0.0009,0.0016,-0.0016,-29.1188,-32.4375,-17.925,,adl
4.338338,-0.0015,-0.0098,0.0055,0.0013,0.0005,-0.0005,-29.1188,-32.4375,-17.925,,adl
4.339433,-0.0015,-0.0098,0.0055,0.0013,0.0005,-0.0005,-29.1188,-32.4375,-17.925,,adl
4.381886,-0.0021,-0.0098,0.002,0.0013,0.0005,-0.0005,-29.1188,-32.4375,-17.925,,adl
4.384364,-0.0021,-0.0098,0.002,0.0013,0.0005,-0.0005,-29.2125,-32.4375,-18.0,,adl
4.40132,-0.0021,-0.0098,0.002,-0.004,0.0041,-0.0016,-29.2125,-32.4375,-18.0,,adl
4.402753,-0.0021,-0.0098,0.002,-0.004,0.0041,-0.0016,-29.2125,-32.4375,-18.0,,adl
4.440962,0.0078,0.0396,-0.0137,-0.004,0.0041,-0.0016,-29.2125,-32.4375,-18.0,,adl
4.443712,0.0078,0.0396,-0.0137,-0.004,0.0041,-0.0016,-29.3438,-32.4563,-18.1875,,adl
4.463322,0.0078,0.0396,-0.0137,-0.004,0.0041,-0.0016,-29.3438,-32.4563,-18.1875,,adl
4.464962,0.0078,0.0396,-0.0137,-0.0027,-0.0097,0.0041,-29.3438,-32.4563,-18.1875,,adl
4.504416,0.0078,0.0396,-0.0137,-0.0027,-0.0097,0.0041,-29.3625,-32.475,-18.3,,adl
4.522422,0.0078,0.0396,-0.0137,0.0009,-0.0012,0.002,-29.3625,-32.475,-18.3,,adl
4.524481,0.0078,0.0396,-0.0137,0.0009,-0.0012,0.002,-29.3625,-32.475,-18.3,,adl
4.525132,-0.0293,-0.024,0.0125,0.0009,-0.0012,0.002,-29.3625,-32.475,-18.3,,adl
4.563424,-0.0293,-0.024,0.0125,0.0009,-0.0012,0.002,-29.5125,-32.4563,-18.3563,,adl
4.586288,-0.0293,-0.024,0.0125,0.0048,0.0027,0.0009,-29.5125,-32.4563,-18.3563,,adl
4.587597,0.0353,-0.0331,-0.0015,0.0048,0.0027,0.0009,-29.5125,-32.4563,-18.3563,,adl
4.588377,0.0353,-0.0331,-0.0015,0.0048,0.0027,0.0009,-29.5125,-32.4563,-18.3563,,adl
4.624647,0.0353,-0.0331,-0.0015,0.0048,0.0027,0.0009,-29.6063,-32.5125,-18.3,,adl
4.64487,0.0353,-0.0331,-0.0015,0.0048,0.0027,0.0009,-29.6063,-32.5125,-18.3,,adl
4.646149,0.0023,0.0001,-0.0052,0.0048,0.0027,0.0009,-29.6063,-32.5125,-18.3,,adl
4.64677,0.0023,0.0001,-0.0052,-0.0001,0.0041,-0.0023,-29.6063,-32.5125,-18.3,,adl
4.688128,0.0023,0.0001,-0.0052,-0.0001,0.0041,-0.0023,-29.5688,-32.4375,-18.2812,,adl
4.70654,0.0023,0.0001,-0.0052,-0.0005,-0.0055,-0.0033,-29.5688,-32.4375,-18.2812,,adl
4.708314,0.0023,0.0001,-0.0052,-0.0005,-0.0055,-0.0033,-29.5688,-32.4375,-18.2812,,adl
4.709082,-0.0206,0.0168,0.0024,-0.0005,-0.0055,-0.0033,-29.5688,-32.4375,-18.2812,,adl
4.744214,-0.0206,0.0168,0.0024,-0.0005,-0.0055,-0.0033,-29.3813,-32.3625,-18.225,,adl
4.765626,-0.0206,0.0168,0.0024,-0.0005,-0.0055,-0.0033,-29.3813,-32.3625,-18.225,,adl
4.767827,-0.0206,0.0168,0.0024,0.002,0.0116,-0.0072,-29.3813,-32.3625,-18.225,,adl
4.785968,0.0104,-0.0098,0.0033,0.002,0.0116,-0.0072,-29.3813,-32.3625,-18.225,,adl
4.803968,0.0104,-0.0098,0.0033,0.002,0.0116,-0.0072,-29.3625,-32.1938,-18.15,,adl
4.826465,0.0104,-0.0098,0.0033,-0.0016,0.0045,0.0035,-29.3625,-32.1938,-18.15,,adl
4.827656,0.0104,-0.0098,0.0033,-0.0016,0.0045,0.0035,-29.3625,-32.1938,-18.15,,adl
4.847562,0.0415,0.0003,-0.0082,-0.0016,0.0045,0.0035,-29.3625,-32.1938,-18.15,,adl
4.863827,0.0415,0.0003,-0.0082,-0.0016,0.0045,0.0035,-29.325,-32.175,-18.1875,,adl
4.887216,0.0415,0.0003,-0.0082,-0.0016,0.0045,0.0035,-29.325,-32.175,-18.1875,,adl
4.888391,0.0415,0.0003,-0.0082,-0.0023,-0.0157,0.0091,-29.325,-32.175,-18.1875,,adl
4.907946,-0.0944,0.026,0.004,-0.0023,-0.0157,0.0091,-29.325,-32.175,-18.1875,,adl
4.923609,-0.0944,0.026,0.004,-0.0023,-0.0157,0.0091,-29.175,-32.1938,-17.9813,,adl
4.948448,-0.0944,0.026,0.004,-0.0023,-0.0157,0.0091,-29.175,-32.1938,-17.9813,,adl
4.950081,-0.0944,0.026,0.004,-0.0008,0.0158,0.0027,-29.175,-32.1938,-17.9813,,adl
4.983911,-0.0944,0.026,0.004,-0.0008,0.0158,0.0027,-29.2125,-32.1375,-17.925,,adl
4.988598,0.0843,-0.0248,0.0044,-0.0008,0.0158,0.0027,-29.2125,-32.1375,-17.925,,adl
5.008864,0.0843,-0.0248,0.0044,-0.0008,0.0158,0.0027,-29.2125,-32.1375,-17.925,,adl
5.010398,0.0843,-0.0248,0.0044,0.0013,-0.0023,-0.004,-29.2125,-32.1375,-17.925,,adl
5.043378,0.0843,-0.0248,0.0044,0.0013,-0.0023,-0.004,-29.025,-32.0438,-17.8875,,adl
5.049985,-0.0436,-0.0145,-0.002,0.0013,-0.0023,-0.004,-29.025,-32.0438,-17.8875,,adl
5.069824,-0.0436,-0.0145,-0.002,-0.0005,-0.0132,-0.0048,-29.025,-32.0438,-17.8875,,adl
5.072236,-0.0436,-0.0145,-0.002,-0.0005,-0.0132,-0.0048,-29.025,-32.0438,-17.8875,,adl
5.104464,-0.0436,-0.0145,-0.002,-0.0005,-0.0132,-0.0048,-29.0063,-31.9875,-17.9438,,adl
5.109732,-0.0221,0.0054,-0.0075,-0.0005,-0.0132,-0.0048,-29.0063,-31.9875,-17.9438,,adl
5.130977,-0.0221,0.0054,-0.0075,0.0005,-0.0091,0.0003,-29.0063,-31.9875,-17.9438,,adl
5.132034,-0.0221,0.0054,-0.0075,0.0005,-0.0091,0.0003,-29.0063,-31.9875,-17.9438,,adl
5.164109,-0.0221,0.0054,-0.0075,0.0005,-0.0091,0.0003,-29.025,-32.0625,-17.9813,,adl
5.170598,0.0128,0.005,0.0035,0.0005,-0.0091,0.0003,-29.025,-32.0625,-17.9813,,adl
5.19193,0.0128,0.005,0.0035,-0.0005,0.0148,0.0037,-29.025,-32.0625,-17.9813,,adl
5.194058,0.0128,0.005,0.0035,-0.0005,0.0148,0.0037,-29.025,-32.0625,-17.9813,,adl
5.224141,0.0128,0.005,0.0035,-0.0005,0.0148,0.0037,-29.1375,-32.1938,-17.9625,,adl
5.254885,0.0128,0.005,0.0035,0.0009,0.0088,0.0031,-29.1375,-32.1938,-17.9625,,adl
5.257111,0.0128,0.005,0.0035,0.0009,0.0088,0.0031,-29.1375,-32.1938,-17.9625,,adl
5.258131,0.0575,-0.0091,0.0009,0.0009,0.0088,0.0031,-29.1375,-32.1938,-17.9625,,adl
5.283516,0.0575,-0.0091,0.0009,0.0009,0.0088,0.0031,-29.25,-32.3625,-17.8875,,adl
5.314844,-0.0416,0.0009,0.0021,0.0009,0.0088,0.0031,-29.25,-32.3625,-17.8875,,adl
5.317042,-0.0416,0.0009,0.0021,0.0005,-0.0072,0.0024,-29.25,-32.3625,-17.8875,,adl
5.318418,-0.0416,0.0009,0.0021,0.0005,-0.0072,0.0024,-29.25,-32.3625,-17.8875,,adl
5.344071,-0.0416,0.0009,0.0021,0.0005,-0.0072,0.0024,-29.3625,-32.3625,-17.8875,,adl
5.376092,-0.0416,0.0009,0.0021,-0.0005,0.0073,-0.0037,-29.3625,-32.3625,-17.8875,,adl
5.378925,-0.0416,0.0009,0.0021,-0.0005,0.0073,-0.0037,-29.3625,-32.3625,-17.8875,,adl
5.381329,-0.0059,-0.0087,0.0005,-0.0005,0.0073,-0.0037,-29.3625,-32.3625,-17.8875,,adl
5.403921,-0.0059,-0.0087,0.0005,-0.0005,0.0073,-0.0037,-29.3625,-32.25,-18.0188,,adl
5.435676,-0.0059,-0.0087,0.0005,0.0024,0.0027,-0.0027,-29.3625,-32.25,-18.0188,,adl
5.437338,-0.0059,-0.0087,0.0005,0.0024,0.0027,-0.0027,-29.3625,-32.25,-18.0188,,adl
5.456074,0.0258,-0.0049,-0.0069,0.0024,0.0027,-0.0027,-29.3625,-32.25,-18.0188,,adl
5.465578,0.0258,-0.0049,-0.0069,0.0024,0.0027,-0.0027,-29.3063,-32.2688,-18.0375,,adl
5.496871,0.0258,-0.0049,-0.0069,0.0024,0.0027,-0.0027,-29.3063,-32.2688,-18.0375,,adl
5.498686,0.0258,-0.0049,-0.0069,0.0024,0.0013,-0.0016,-29.3063,-32.2688,-18.0375,,adl
5.516172,-0.016,-0.0164,0.0058,0.0024,0.0013,-0.0016,-29.3063,-32.2688,-18.0375,,adl
5.523138,-0.016,-0.0164,0.0058,0.0024,0.0013,-0.0016,-29.325,-32.3625,-17.9438,,adl
5.557199,-0.016,-0.0164,0.0058,-0.0001,-0.0044,0.0041,-29.325,-32.3625,-17.9438,,adl
5.559533,-0.016,-0.0164,0.0058,-0.0001,-0.0044,0.0041,-29.325,-32.3625,-17.9438,,adl
5.57956,-0.0105,0.0158,0.0062,-0.0001,-0.0044,0.0041,-29.325,-32.3625,-17.9438,,adl
5.58195,-0.0105,0.0158,0.0062,-0.0001,-0.0044,0.0041,-29.325,-32.3625,-17.925,,adl
5.618589,-0.0105,0.0158,0.0062,0.0027,0.0073,0.0009,-29.325,-32.3625,-17.925,,adl
5.622096,-0.0105,0.0158,0.0062,0.0027,0.0073,0.0009,-29.325,-32.3625,-17.925,,adl
5.639538,0.0176,-0.0162,0.0011,0.0027,0.0073,0.0009,-29.325,-32.3625,-17.925,,adl
5.642827,0.0176,-0.0162,0.0011,0.0027,0.0073,0.0009,-29.1938,-32.2688,-17.8313,,adl
5.681768,0.0176,-0.0162,0.0011,-0.0008,0.002,0.0005,-29.1938,-32.2688,-17.8313,,adl
5.685724,0.0176,-0.0162,0.0011,-0.0008,0.002,0.0005,-29.1938,-32.2688,-17.8313,,adl
5.704347,0.0176,-0.0162,0.0011,-0.0008,0.002,0.0005,-29.175,-32.325,-17.7563,,adl
5.722434,-0.0053,0.0138,0.0022,-0.0008,0.002,0.0005,-29.175,-32.325,-17.7563,,adl
5.740164,-0.0053,0.0138,0.0022,-0.0008,0.002,0.0005,-29.175,-32.325,-17.7563,,adl
5.741498,-0.0053,0.0138,0.0022,-0.0008,-0.0061,-0.0027,-29.175,-32.325,-17.7563,,adl
5.762455,-0.0053,0.0138,0.0022,-0.0008,-0.0061,-0.0027,-29.1563,-32.2125,-17.8313,,adl
5.780676,-0.0253,0.0006,0.0026,-0.0008,-0.0061,-0.0027,-29.1563,-32.2125,-17.8313,,adl
5.802793,-0.0253,0.0006,0.0026,-0.0008,-0.0008,-0.0012,-29.1563,-32.2125,-17.8313,,adl
5.804761,-0.0253,0.0006,0.0026,-0.0008,-0.0008,-0.0012,-29.1563,-32.2125,-17.8313,,adl
5.823407,-0.0253,0.0006,0.0026,-0.0008,-0.0008,-0.0012,-29.175,-32.25,-17.8313,,adl
5.840809,0.0144,-0.0099,0.0035,-0.0008,-0.0008,-0.0012,-29.175,-32.25,-17.8313,,adl
5.861528,0.0144,-0.0099,0.0035,-0.0027,-0.008,0.0003,-29.175,-32.25,-17.8313,,adl
5.863282,0.0144,-0.0099,0.0035,-0.0027,-0.008,0.0003,-29.175,-32.25,-17.8313,,adl
5.882897,0.0144,-0.0099,0.0035,-0.0027,-0.008,0.0003,-29.25,-32.4,-17.7938,,adl
5.902992,-0.0173,0.0047,0.0043,-0.0027,-0.008,0.0003,-29.25,-32.4,-17.7938,,adl
5.924174,-0.0173,0.0047,0.0043,0.0031,-0.0005,-0.0019,-29.25,-32.4,-17.7938,,adl
5.925808,-0.0173,0.0047,0.0043,0.0031,-0.0005,-0.0019,-29.25,-32.4,-17.7938,,adl
5.944234,-0.0173,0.0047,0.0043,0.0031,-0.0005,-0.0019,-29.4,-32.3813,-17.6625,,adl
5.985457,-0.0173,0.0047,0.0043,-0.0023,0.0045,0.0003,-29.4,-32.3813,-17.6625,,adl
5.988089,-0.0173,0.0047,0.0043,-0.0023,0.0045,0.0003,-29.4,-32.3813,-17.6625,,adl
5.989153,0.0305,-0.0003,-0.0198,-0.0023,0.0045,0.0003,-29.4,-32.3813,-17.6625,,adl
6.005894,0.0305,-0.0003,-0.0198,-0.0023,0.0045,0.0003,-29.4563,-32.3063,-17.7188,,adl
6.044555,0.0305,-0.0003,-0.0198,0.0005,0.0052,0.0005,-29.4563,-32.3063,-17.7188,,adl
6.04704,0.0305,-0.0003,-0.0198,0.0005,0.0052,0.0005,-29.4563,-32.3063,-17.7188,,adl
6.047901,-0.0088,0.0044,0.015,0.0005,0.0052,0.0005,-29.4563,-32.3063,-17.7188,,adl
6.063429,-0.0088,0.0044,0.015,0.0005,0.0052,0.0005,-29.4563,-32.3625,-17.7,,adl
6.10613,-0.0088,0.0044,0.015,-0.0001,-0.0005,0.0013,-29.4563,-32.3625,-17.7,,adl
6.109457,-0.0088,0.0044,0.015,-0.0001,-0.0005,0.0013,-29.4563,-32.3625,-17.7,,adl
6.111438,0.0172,-0.0119,0.0037,-0.0001,-0.0005,0.0013,-29.4563,-32.3625,-17.7,,adl
6.127378,0.0172,-0.0119,0.0037,-0.0001,-0.0005,0.0013,-29.5688,-32.4938,-17.5875,,adl
6.169153,0.0172,-0.0119,0.0037,0.0003,-0.0061,0.0009,-29.5688,-32.4938,-17.5875,,adl
6.172036,0.0172,-0.0119,0.0037,0.0003,-0.0061,0.0009,-29.5688,-32.4938,-17.5875,,adl
6.183201,0.0172,-0.0119,0.0037,0.0003,-0.0061,0.0009,-29.5313,-32.4375,-17.625,,adl
6.187557,-0.0326,0.0026,-0.0015,0.0003,-0.0061,0.0009,-29.5313,-32.4375,-17.625,,adl
6.229194,-0.0326,0.0026,-0.0015,0.0003,-0.0061,0.0009,-29.5313,-32.4375,-17.625,,adl
6.231014,-0.0326,0.0026,-0.0015,0.0013,0.0077,-0.0012,-29.5313,-32.4375,-17.625,,adl
6.243651,-0.0326,0.0026,-0.0015,0.0013,0.0077,-0.0012,-29.5313,-32.4188,-17.625,,adl
6.247347,0.0448,-0.0095,0.0013,0.0013,0.0077,-0.0012,-29.5313,-32.4188,-17.625,,adl
6.288313,0.0448,-0.0095,0.0013,-0.0005,-0.0012,0.0024,-29.5313,-32.4188,-17.625,,adl
6.291052,0.0448,-0.0095,0.0013,-0.0005,-0.0012,0.0024,-29.5313,-32.4188,-17.625,,adl
6.304217,0.0448,-0.0095,0.0013,-0.0005,-0.0012,0.0024,-29.4188,-32.325,-17.5688,,adl
6.307495,-0.0091,-0.0042,0.0,-0.0005,-0.0012,0.0024,-29.4188,-32.325,-17.5688,,adl
6.35268,-0.0091,-0.0042,0.0,0.0009,-0.0008,0.0013,-29.4188,-32.325,-17.5688,,adl
6.356735,-0.0091,-0.0042,0.0,0.0009,-0.0008,0.0013,-29.4188,-32.325,-17.5688,,adl
6.363382,-0.0091,-0.0042,0.0,0.0009,-0.0008,0.0013,-29.4188,-32.1188,-17.6063,,adl
6.37006,-0.0071,-0.0038,-0.0028,0.0009,-0.0008,0.0013,-29.4188,-32.1188,-17.6063,,adl
6.412359,-0.0071,-0.0038,-0.0028,0.0016,0.0005,-0.0012,-29.4188,-32.1188,-17.6063,,adl
6.416109,-0.0071,-0.0038,-0.0028,0.0016,0.0005,-0.0012,-29.4188,-32.1188,-17.6063,,adl
6.42478,-0.0071,-0.0038,-0.0028,0.0016,0.0005,-0.0012,-29.25,-31.9875,-17.6625,,adl
6.451449,0.0143,-0.0119,-0.0067,0.0016,0.0005,-0.0012,-29.25,-31.9875,-17.6625,,adl
6.471678,0.0143,-0.0119,-0.0067,-0.0008,-0.0019,-0.0005,-29.25,-31.9875,-17.6625,,adl
6.474457,0.0143,-0.0119,-0.0067,-0.0008,-0.0019,-0.0005,-29.25,-31.9875,-17.6625,,adl
6.483918,0.0143,-0.0119,-0.0067,-0.0008,-0.0019,-0.0005,-29.2125,-31.9313,-17.7188,,adl
6.512132,-0.0084,0.0204,-0.0017,-0.0008,-0.0019,-0.0005,-29.2125,-31.9313,-17.7188,,adl
6.532014,-0.0084,0.0204,-0.0017,-0.0008,-0.0019,-0.0005,-29.2125,-31.9313,-17.7188,,adl
6.535095,-0.0084,0.0204,-0.0017,-0.0005,0.0016,0.0035,-29.2125,-31.9313,-17.7188,,adl
6.543701,-0.0084,0.0204,-0.0017,-0.0005,0.0016,0.0035,-29.0813,-31.8938,-17.7,,adl
6.572414,0.0131,-0.0097,0.003,-0.0005,0.0016,0.0035,-29.0813,-31.8938,-17.7,,adl
6.592172,0.0131,-0.0097,0.003,-0.0005,0.0016,0.0035,-29.0813,-31.8938,-17.7,,adl
6.594608,0.0131,-0.0097,0.003,0.0013,0.0045,0.0027,-29.0813,-31.8938,-17.7,,adl
6.603468,0.0131,-0.0097,0.003,0.0013,0.0045,0.0027,-28.9688,-31.6688,-17.9813,,adl
6.654447,0.0131,-0.0097,0.003,0.0013,0.0045,0.0027,-28.9688,-31.6688,-17.9813,,adl
6.656426,0.0131,-0.0097,0.003,0.0016,0.002,0.0016,-28.9688,-31.6688,-17.9813,,adl
6.657325,0.0076,-0.0131,0.0068,0.0016,0.002,0.0016,-28.9688,-31.6688,-17.9813,,adl
6.662984,0.0076,-0.0131,0.0068,0.0016,0.002,0.0016,-28.9875,-31.5563,-18.0563,,adl
6.714818,0.0076,-0.0131,0.0068,-0.0001,0.0024,0.0003,-28.9875,-31.5563,-18.0563,,adl
6.71891,0.0076,-0.0131,0.0068,-0.0001,0.0024,0.0003,-28.9875,-31.5563,-18.0563,,adl
6.720571,0.0028,0.0076,0.002,-0.0001,0.0024,0.0003,-28.9875,-31.5563,-18.0563,,adl
6.724815,0.0028,0.0076,0.002,-0.0001,0.0024,0.0003,-28.9125,-31.575,-18.0188,,adl
6.77708,0.0028,0.0076,0.002,0.0045,-0.0204,0.0016,-28.9125,-31.575,-18.0188,,adl
6.779766,0.0028,0.0076,0.002,0.0045,-0.0204,0.0016,-28.9125,-31.575,-18.0188,,adl
6.7807,-0.0104,-0.0101,-0.0034,0.0045,-0.0204,0.0016,-28.9125,-31.575,-18.0188,,adl
6.785262,-0.0104,-0.0101,-0.0034,0.0045,-0.0204,0.0016,-28.875,-31.6688,-17.925,,adl
6.839056,-0.0104,-0.0101,-0.0034,0.0003,-0.0061,0.0027,-28.875,-31.6688,-17.925,,adl
6.843241,-0.0104,-0.0101,-0.0034,0.0003,-0.0061,0.0027,-28.875,-31.6688,-17.925,,adl
6.844383,-0.0348,-0.0354,0.0165,0.0003,-0.0061,0.0027,-28.875,-31.6688,-17.925,,adl
6.84592,-0.0348,-0.0354,0.0165,0.0003,-0.0061,0.0027,-28.7813,-31.7625,-17.8313,,adl
6.897461,-0.0348,-0.0354,0.0165,0.0005,0.0137,0.0016,-28.7813,-31.7625,-17.8313,,adl
6.899392,-0.0348,-0.0354,0.0165,0.0005,0.0137,0.0016,-28.7813,-31.7625,-17.8313,,adl
6.903084,-0.0348,-0.0354,0.0165,0.0005,0.0137,0.0016,-28.8375,-31.875,-17.9062,,adl
6.918918,0.068,0.0401,-0.028,0.0005,0.0137,0.0016,-28.8375,-31.875,-17.9062,,adl
6.960107,0.068,0.0401,-0.028,0.0013,0.0009,-0.0001,-28.8375,-31.875,-17.9062,,adl
6.961784,0.068,0.0401,-0.028,0.0013,0.0009,-0.0001,-28.8375,-31.875,-17.9062,,adl
6.963641,0.068,0.0401,-0.028,0.0013,0.0009,-0.0001,-28.8188,-31.8938,-17.8688,,adl
6.978662,-0.0046,-0.0521,0.0131,0.0013,0.0009,-0.0001,-28.8188,-31.8938,-17.8688,,adl
7.01914,-0.0046,-0.0521,0.0131,0.0005,-0.0029,-0.0008,-28.8188,-31.8938,-17.8688,,adl
7.020871,-0.0046,-0.0521,0.0131,0.0005,-0.0029,-0.0008,-28.8188,-31.8938,-17.8688,,adl
7.023458,-0.0046,-0.0521,0.0131,0.0005,-0.0029,-0.0008,-29.0063,-31.8938,-18.0,,adl
7.038521,-0.0275,0.0153,0.0113,0.0005,-0.0029,-0.0008,-29.0063,-31.8938,-18.0,,adl
7.081951,-0.0275,0.0153,0.0113,0.0016,-0.0019,-0.0001,-29.0063,-31.8938,-18.0,,adl
7.0863,-0.0275,0.0153,0.0113,0.0016,-0.0019,-0.0001,-29.0063,-31.8938,-18.0,,adl
7.08761,-0.0275,0.0153,0.0113,0.0016,-0.0019,-0.0001,-29.175,-32.0438,-17.7563,,adl
7.121145,0.0065,-0.0037,0.0,0.0016,-0.0019,-0.0001,-29.175,-32.0438,-17.7563,,adl
7.141274,0.0065,-0.0037,0.0,0.0009,-0.0016,0.0003,-29.175,-32.0438,-17.7563,,adl
7.143697,0.0065,-0.0037,0.0,0.0009,-0.0016,0.0003,-29.175,-32.0438,-17.7563,,adl
7.144855,0.0065,-0.0037,0.0,0.0009,-0.0016,0.0003,-29.2125,-32.2313,-17.6625,,adl
7.18313,0.0093,-0.0025,-0.01,0.0009,-0.0016,0.0003,-29.2125,-32.2313,-17.6625,,adl
7.201465,0.0093,-0.0025,-0.01,0.0003,-0.0012,0.0009,-29.2125,-32.2313,-17.6625,,adl
7.202559,0.0093,-0.0025,-0.01,0.0003,-0.0012,0.0009,-29.2125,-32.2313,-17.6625,,adl
7.202976,0.0093,-0.0025,-0.01,0.0003,-0.0012,0.0009,-29.25,-32.3438,-17.55,,adl
7.242945,0.0024,0.0059,0.0072,0.0003,-0.0012,0.0009,-29.25,-32.3438,-17.55,,adl
7.263434,0.0024,0.0059,0.0072,0.0003,-0.0012,0.0009,-29.25,-32.3438,-17.55,,adl
7.264518,0.0024,0.0059,0.0072,0.0003,-0.0012,0.0009,-29.3438,-32.4,-17.6438,,adl
7.265767,0.0024,0.0059,0.0072,0.0013,0.0003,0.0003,-29.3438,-32.4,-17.6438,,adl
7.304259,0.0151,-0.0024,-0.0043,0.0013,0.0003,0.0003,-29.3438,-32.4,-17.6438,,adl
7.325264,0.0151,-0.0024,-0.0043,0.0013,0.0003,0.0003,-29.4,-32.3438,-17.7188,,adl
7.326664,0.0151,-0.0024,-0.0043,0.0003,-0.0008,0.0009,-29.4,-32.3438,-17.7188,,adl
7.327313,0.0151,-0.0024,-0.0043,0.0003,-0.0008,0.0009,-29.4,-32.3438,-17.7188,,adl
7.387232,0.0151,-0.0024,-0.0043,0.0003,-0.0008,0.0009,-29.4188,-32.2875,-17.775,,adl
7.391547,-0.0105,-0.0075,0.0083,0.0003,-0.0008,0.0009,-29.4188,-32.2875,-17.775,,adl
7.392623,-0.0105,-0.0075,0.0083,0.0013,-0.0033,-0.0005,-29.4188,-32.2875,-17.775,,adl
7.393604,-0.0105,-0.0075,0.0083,0.0013,-0.0033,-0.0005,-29.4188,-32.2875,-17.775,,adl
7.448357,-0.0105,-0.0075,0.0083,0.0013,-0.0033,-0.0005,-29.4188,-32.2875,-17.775,,adl
7.450342,-0.0105,-0.0075,0.0083,0.002,0.002,-0.0012,-29.4188,-32.2875,-17.775,,adl
7.451235,-0.0105,-0.0075,0.0083,0.002,0.002,-0.0012,-29.4563,-32.1562,-17.8125,,adl
7.45227,0.0044,-0.0023,0.0028,0.002,0.002,-0.0012,-29.4563,-32.1562,-17.8125,,adl
7.505014,0.0044,-0.0023,0.0028,0.002,0.002,-0.0012,-29.4563,-32.2125,-17.7375,,adl
7.507384,0.0044,-0.0023,0.0028,0.0035,0.0041,-0.0019,-29.4563,-32.2125,-17.7375,,adl
7.508324,0.0044,-0.0023,0.0028,0.0035,0.0041,-0.0019,-29.4563,-32.2125,-17.7375,,adl
7.509125,0.0122,-0.0043,0.0006,0.0035,0.0041,-0.0019,-29.4563,-32.2125,-17.7375,,adl
7.562341,0.0122,-0.0043,0.0006,0.0035,0.0041,-0.0019,-29.3813,-32.1562,-17.9625,,adl
7.56643,0.0122,-0.0043,0.0006,-0.0001,-0.0019,0.0009,-29.3813,-32.1562,-17.9625,,adl
7.567409,0.0122,-0.0043,0.0006,-0.0001,-0.0019,0.0009,-29.3813,-32.1562,-17.9625,,adl
7.586368,-0.0133,0.009,-0.0003,-0.0001,-0.0019,0.0009,-29.3813,-32.1562,-17.9625,,adl
7.624061,-0.0133,0.009,-0.0003,-0.0001,-0.0019,0.0009,-29.4375,-31.9313,-18.0563,,adl
7.628153,-0.0133,0.009,-0.0003,0.0005,-0.0023,0.0016,-29.4375,-31.9313,-18.0563,,adl
7.629096,-0.0133,0.009,-0.0003,0.0005,-0.0023,0.0016,-29.4375,-31.9313,-18.0563,,adl
7.648507,-0.0132,-0.0043,0.002,0.0005,-0.0023,0.0016,-29.4375,-31.9313,-18.0563,,adl
7.683593,-0.0132,-0.0043,0.002,0.0005,-0.0023,0.0016,-29.4,-31.875,-18.2625,,adl
7.689462,-0.0132,-0.0043,0.002,-0.0016,0.0069,-0.0005,-29.4,-31.875,-18.2625,,adl
7.690131,-0.0132,-0.0043,0.002,-0.0016,0.0069,-0.0005,-29.4,-31.875,-18.2625,,adl
7.709256,0.0212,-0.0004,-0.0062,-0.0016,0.0069,-0.0005,-29.4,-31.875,-18.2625,,adl
7.744084,0.0212,-0.0004,-0.0062,-0.0016,0.0069,-0.0005,-29.4188,-31.7625,-18.3188,,adl
7.751005,0.0212,-0.0004,-0.0062,-0.0016,0.0069,-0.0005,-29.4188,-31.7625,-18.3188,,adl
7.752388,0.0212,-0.0004,-0.0062,-0.0033,-0.0027,0.0009,-29.4188,-31.7625,-18.3188,,adl
7.770475,-0.0168,0.0195,0.0067,-0.0033,-0.0027,0.0009,-29.4188,-31.7625,-18.3188,,adl
7.806807,-0.0168,0.0195,0.0067,-0.0033,-0.0027,0.0009,-29.4375,-31.875,-18.3,,adl
7.811327,-0.0168,0.0195,0.0067,0.0031,-0.0027,-0.0005,-29.4375,-31.875,-18.3,,adl
7.812277,-0.0168,0.0195,0.0067,0.0031,-0.0027,-0.0005,-29.4375,-31.875,-18.3,,adl
7.851406,-0.004,-0.0516,0.0079,0.0031,-0.0027,-0.0005,-29.4375,-31.875,-18.3,,adl
7.864092,-0.004,-0.0516,0.0079,0.0031,-0.0027,-0.0005,-29.4188,-31.95,-18.1875,,adl
7.871471,-0.004,-0.0516,0.0079,0.0031,-0.0027,-0.0005,-29.4188,-31.95,-18.1875,,adl
7.872781,-0.004,-0.0516,0.0079,-0.0008,0.0035,0.0003,-29.4188,-31.95,-18.1875,,adl
7.912597,0.0057,0.0162,-0.012,-0.0008,0.0035,0.0003,-29.4188,-31.95,-18.1875,,adl
7.925528,0.0057,0.0162,-0.012,-0.0008,0.0035,0.0003,-29.3813,-32.025,-18.075,,adl
7.932621,0.0057,0.0162,-0.012,-0.0016,-0.0023,0.0016,-29.3813,-32.025,-18.075,,adl
7.933854,0.0057,0.0162,-0.012,-0.0016,-0.0023,0.0016,-29.3813,-32.025,-18.075,,adl
7.975033,-0.0175,0.0063,0.0039,-0.0016,-0.0023,0.0016,-29.3813,-32.025,-18.075,,adl
7.983544,-0.0175,0.0063,0.0039,-0.0016,-0.0023,0.0016,-29.25,-31.9688,-18.1125,,adl
7.993516,-0.0175,0.0063,0.0039,-0.0016,-0.0023,0.0016,-29.25,-31.9688,-18.1125,,adl
7.995047,-0.0175,0.0063,0.0039,0.002,-0.0008,0.0003,-29.25,-31.9688,-18.1125,,adl
8.044064,-0.0175,0.0063,0.0039,0.002,-0.0008,0.0003,-29.175,-31.95,-17.9625,,adl
8.055007,-0.0175,0.0063,0.0039,0.002,-0.0008,-0.0005,-29.175,-31.95,-17.9625,,adl
8.056348,-0.0175,0.0063,0.0039,0.002,-0.0008,-0.0005,-29.175,-31.95,-17.9625,,adl
8.056995,0.0132,-0.0264,0.0042,0.002,-0.0008,-0.0005,-29.175,-31.95,-17.9625,,adl
8.105258,0.0132,-0.0264,0.0042,0.002,-0.0008,-0.0005,-29.0625,-32.0625,-17.9813,,adl
8.116863,0.0132,-0.0264,0.0042,-0.0005,0.0009,0.0009,-29.0625,-32.0625,-17.9813,,adl
8.11844,0.0075,0.0088,-0.0126,-0.0005,0.0009,0.0009,-29.0625,-32.0625,-17.9813,,adl
8.1191,0.0075,0.0088,-0.0126,-0.0005,0.0009,0.0009,-29.0625,-32.0625,-17.9813,,adl
8.164555,0.0075,0.0088,-0.0126,-0.0005,0.0009,0.0009,-29.1375,-32.1562,-18.0,,adl
8.175105,0.0075,0.0088,-0.0126,0.0016,0.0009,-0.0005,-29.1375,-32.1562,-18.0,,adl
8.176247,0.0075,0.0088,-0.0126,0.0016,0.0009,-0.0005,-29.1375,-32.1562,-18.0,,adl
8.176921,0.0082,0.0071,0.0046,0.0016,0.0009,-0.0005,-29.1375,-32.1562,-18.0,,adl
8.224582,0.0082,0.0071,0.0046,0.0016,0.0009,-0.0005,-29.1188,-32.2688,-17.9438,,adl
8.237516,0.0082,0.0071,0.0046,0.0016,0.0009,-0.0005,-29.1188,-32.2688,-17.9438,,adl
8.238781,0.0082,0.0071,0.0046,0.0013,-0.0023,0.0013,-29.1188,-32.2688,-17.9438,,adl
8.239172,-0.0066,-0.0145,0.0034,0.0013,-0.0023,0.0013,-29.1188,-32.2688,-17.9438,,adl
8.284916,-0.0066,-0.0145,0.0034,0.0013,-0.0023,0.0013,-29.0438,-32.1938,-17.8688,,adl
8.298762,-0.0066,-0.0145,0.0034,0.0013,0.0013,0.0005,-29.0438,-32.1938,-17.8688,,adl
8.300535,-0.0066,-0.0145,0.0034,0.0013,0.0013,0.0005,-29.0438,-32.1938,-17.8688,,adl
8.319508,-0.0055,-0.0019,0.0031,0.0013,0.0013,0.0005,-29.0438,-32.1938,-17.8688,,adl
8.344647,-0.0055,-0.0019,0.0031,0.0013,0.0013,0.0005,-29.1188,-32.2875,-17.8688,,adl
8.358587,-0.0055,-0.0019,0.0031,0.0013,0.0013,0.0005,-29.1188,-32.2875,-17.8688,,adl
8.359585,-0.0055,-0.0019,0.0031,-0.0001,0.002,-0.0005,-29.1188,-32.2875,-17.8688,,adl
8.377547,0.0203,0.011,-0.0059,-0.0001,0.002,-0.0005,-29.1188,-32.2875,-17.8688,,adl
8.405242,0.0203,0.011,-0.0059,-0.0001,0.002,-0.0005,-29.1375,-32.2688,-18.0,,adl
8.420761,0.0203,0.011,-0.0059,-0.0001,0.002,-0.0005,-29.1375,-32.2688,-18.0,,adl
8.423484,0.0203,0.011,-0.0059,0.0003,-0.0033,0.0003,-29.1375,-32.2688,-18.0,,adl
8.439734,-0.0134,-0.0055,0.0051,0.0003,-0.0033,0.0003,-29.1375,-32.2688,-18.0,,adl
8.464115,-0.0134,-0.0055,0.0051,0.0003,-0.0033,0.0003,-29.2875,-32.2875,-17.85,,adl
8.479904,-0.0134,-0.0055,0.0051,0.0013,0.0009,0.0005,-29.2875,-32.2875,-17.85,,adl
8.480793,-0.0134,-0.0055,0.0051,0.0013,0.0009,0.0005,-29.2875,-32.2875,-17.85,,adl
8.520841,0.0078,-0.0019,-0.0006,0.0013,0.0009,0.0005,-29.2875,-32.2875,-17.85,,adl
8.523909,0.0078,-0.0019,-0.0006,0.0013,0.0009,0.0005,-29.475,-32.2125,-18.0563,,adl
8.540457,0.0078,-0.0019,-0.0006,0.002,0.0024,-0.0005,-29.475,-32.2125,-18.0563,,adl
8.541892,0.0078,-0.0019,-0.0006,0.002,0.0024,-0.0005,-29.475,-32.2125,-18.0563,,adl
8.585884,0.0016,-0.0129,0.0018,0.002,0.0024,-0.0005,-29.475,-32.2125,-18.0563,,adl
8.588327,0.0016,-0.0129,0.0018,0.002,0.0024,-0.0005,-29.5688,-32.3063,-18.0188,,adl
8.602363,0.0016,-0.0129,0.0018,-0.0008,-0.0016,0.0005,-29.5688,-32.3063,-18.0188,,adl
8.604764,0.0016,-0.0129,0.0018,-0.0008,-0.0016,0.0005,-29.5688,-32.3063,-18.0188,,adl
8.644782,-0.0079,0.0152,-0.0025,-0.0008,-0.0016,0.0005,-29.5688,-32.3063,-18.0188,,adl
8.646831,-0.0079,0.0152,-0.0025,-0.0008,-0.0016,0.0005,-29.5125,-32.2313,-17.9625,,adl
8.664393,-0.0079,0.0152,-0.0025,-0.0001,-0.0005,0.0009,-29.5125,-32.2313,-17.9625,,adl
8.666639,-0.0079,0.0152,-0.0025,-0.0001,-0.0005,0.0009,-29.5125,-32.2313,-17.9625,,adl
8.705099,0.0082,-0.0106,0.0002,-0.0001,-0.0005,0.0009,-29.5125,-32.2313,-17.9625,,adl
8.707851,0.0082,-0.0106,0.0002,-0.0001,-0.0005,0.0009,-29.4375,-32.175,-17.7563,,adl
8.725568,0.0082,-0.0106,0.0002,-0.0001,-0.0005,0.0009,-29.4375,-32.175,-17.7563,,adl
8.728456,0.0082,-0.0106,0.0002,0.0013,0.0031,-0.0001,-29.4375,-32.175,-17.7563,,adl
8.765505,0.0082,-0.0106,0.0002,0.0013,0.0031,-0.0001,-29.6063,-32.3813,-17.7938,,adl
8.785469,0.0082,-0.0106,0.0002,0.0013,0.0031,-0.0001,-29.6063,-32.3813,-17.7938,,adl
8.788109,0.0082,-0.0106,0.0002,0.0027,0.0005,-0.0008,-29.6063,-32.3813,-17.7938,,adl
8.789034,0.0073,-0.0076,0.0058,0.0027,0.0005,-0.0008,-29.6063,-32.3813,-17.7938,,adl
8.82674,0.0073,-0.0076,0.0058,0.0027,0.0005,-0.0008,-29.5125,-32.25,-17.8313,,adl
8.846019,0.0073,-0.0076,0.0058,0.0003,0.0099,-0.0001,-29.5125,-32.25,-17.8313,,adl
8.84728,0.0074,-0.0007,-0.0015,0.0003,0.0099,-0.0001,-29.5125,-32.25,-17.8313,,adl
8.847884,0.0074,-0.0007,-0.0015,0.0003,0.0099,-0.0001,-29.5125,-32.25,-17.8313,,adl
8.884326,0.0074,-0.0007,-0.0015,0.0003,0.0099,-0.0001,-29.4938,-32.2688,-17.85,,adl
8.907138,0.0074,-0.0007,-0.0015,0.0009,-0.0001,-0.0001,-29.4938,-32.2688,-17.85,,adl
8.908798,-0.0036,0.0009,-0.0005,0.0009,-0.0001,-0.0001,-29.4938,-32.2688,-17.85,,adl
8.909617,-0.0036,0.0009,-0.0005,0.0009,-0.0001,-0.0001,-29.4938,-32.2688,-17.85,,adl
8.944266,-0.0036,0.0009,-0.0005,0.0009,-0.0001,-0.0001,-29.4,-32.2875,-17.775,,adl
8.974455,-0.0036,0.0009,-0.0005,0.0013,-0.0016,0.0003,-29.4,-32.2875,-17.775,,adl
8.976231,-0.0036,0.0009,-0.0005,0.0013,-0.0016,0.0003,-29.4,-32.2875,-17.775,,adl
8.988024,-0.0075,-0.0087,-0.0012,0.0013,-0.0016,0.0003,-29.4,-32.2875,-17.775,,adl
9.00244,-0.0075,-0.0087,-0.0012,0.0013,-0.0016,0.0003,-29.3438,-32.4,-17.6625,,adl
9.027433,-0.0075,-0.0087,-0.0012,0.0013,-0.0016,0.0003,-29.3438,-32.4,-17.6625,,adl
9.028468,-0.0075,-0.0087,-0.0012,0.0009,-0.0001,-0.0001,-29.3438,-32.4,-17.6625,,adl
9.049319,-0.0033,-0.0067,-0.0083,0.0009,-0.0001,-0.0001,-29.3438,-32.4,-17.6625,,adl
9.063115,-0.0033,-0.0067,-0.0083,0.0009,-0.0001,-0.0001,-29.2688,-32.2875,-17.6625,,adl
9.090013,-0.0033,-0.0067,-0.0083,0.0005,0.0027,-0.0005,-29.2688,-32.2875,-17.6625,,adl
9.092654,-0.0033,-0.0067,-0.0083,0.0005,0.0027,-0.0005,-29.2688,-32.2875,-17.6625,,adl
9.110013,0.0111,-0.0028,-0.0007,0.0005,0.0027,-0.0005,-29.2688,-32.2875,-17.6625,,adl
9.123787,0.0111,-0.0028,-0.0007,0.0005,0.0027,-0.0005,-29.4,-32.4375,-17.5688,,adl
9.149635,0.0111,-0.0028,-0.0007,0.0016,-0.0016,0.0005,-29.4,-32.4375,-17.5688,,adl
9.15212,0.0111,-0.0028,-0.0007,0.0016,-0.0016,0.0005,-29.4,-32.4375,-17.5688,,adl
9.170781,-0.0147,-0.008,0.0066,0.0016,-0.0016,0.0005,-29.4,-32.4375,-17.5688,,adl
9.183909,-0.0147,-0.008,0.0066,0.0016,-0.0016,0.0005,-29.4375,-32.4375,-17.7563,,adl
9.211852,-0.0147,-0.008,0.0066,0.0016,-0.0016,0.0005,-29.4375,-32.4375,-17.7563,,adl
9.213617,-0.0147,-0.008,0.0066,0.0009,0.0016,-0.0001,-29.4375,-32.4375,-17.7563,,adl
9.243363,-0.0147,-0.008,0.0066,0.0009,0.0016,-0.0001,-29.2688,-32.2688,-17.8125,,adl
9.251005,0.0118,-0.0086,-0.0021,0.0009,0.0016,-0.0001,-29.2688,-32.2688,-17.8125,,adl
9.273277,0.0118,-0.0086,-0.0021,0.0016,0.0027,0.0005,-29.2688,-32.2688,-17.8125,,adl
9.276095,0.0118,-0.0086,-0.0021,0.0016,0.0027,0.0005,-29.2688,-32.2688,-17.8125,,adl
9.304785,0.0118,-0.0086,-0.0021,0.0016,0.0027,0.0005,-29.3063,-32.3625,-17.85,,adl
9.314692,0.0016,0.0031,-0.0007,0.0016,0.0027,0.0005,-29.3063,-32.3625,-17.85,,adl
9.332932,0.0016,0.0031,-0.0007,0.0005,0.0499,-0.0023,-29.3063,-32.3625,-17.85,,adl
9.33708,0.0016,0.0031,-0.0007,0.0005,0.0499,-0.0023,-29.3063,-32.3625,-17.85,,adl
9.363206,0.0016,0.0031,-0.0007,0.0005,0.0499,-0.0023,-29.2875,-32.3438,-17.775,,adl
9.374755,0.1249,-0.0213,-0.0142,0.0005,0.0499,-0.0023,-29.2875,-32.3438,-17.775,,adl
9.393871,0.1249,-0.0213,-0.0142,0.0024,0.0056,-0.0008,-29.2875,-32.3438,-17.775,,adl
9.395056,0.1249,-0.0213,-0.0142,0.0024,0.0056,-0.0008,-29.2875,-32.3438,-17.775,,adl
9.424357,0.1249,-0.0213,-0.0142,0.0024,0.0056,-0.0008,-29.3813,-32.3813,-17.9625,,adl
9.455361,0.1249,-0.0213,-0.0142,-0.0008,-0.0125,0.0009,-29.3813,-32.3813,-17.9625,,adl
9.457646,0.1249,-0.0213,-0.0142,-0.0008,-0.0125,0.0009,-29.3813,-32.3813,-17.9625,,adl
9.45875,-0.1435,-0.0019,0.03,-0.0008,-0.0125,0.0009,-29.3813,-32.3813,-17.9625,,adl
9.483823,-0.1435,-0.0019,0.03,-0.0008,-0.0125,0.0009,-29.4,-32.475,-17.9813,,adl
9.516945,-0.1435,-0.0019,0.03,-0.0012,0.0048,0.0005,-29.4,-32.475,-17.9813,,adl
9.520334,-0.1435,-0.0019,0.03,-0.0012,0.0048,0.0005,-29.4,-32.475,-17.9813,,adl
9.522997,-0.0029,0.0274,-0.0046,-0.0012,0.0048,0.0005,-29.4,-32.475,-17.9813,,adl
9.543896,-0.0029,0.0274,-0.0046,-0.0012,0.0048,0.0005,-29.3438,-32.55,-17.9625,,adl
9.577543,-0.0029,0.0274,-0.0046,0.0003,0.0037,0.0003,-29.3438,-32.55,-17.9625,,adl
9.579384,-0.0029,0.0274,-0.0046,0.0003,0.0037,0.0003,-29.3438,-32.55,-17.9625,,adl
9.580237,0.0304,-0.0205,0.0019,0.0003,0.0037,0.0003,-29.3438,-32.55,-17.9625,,adl
9.604023,0.0304,-0.0205,0.0019,0.0003,0.0037,0.0003,-29.2688,-32.4563,-18.075,,adl
9.640562,0.0304,-0.0205,0.0019,0.0003,-0.0012,0.0013,-29.2688,-32.4563,-18.075,,adl
9.644044,0.0304,-0.0205,0.0019,0.0003,-0.0012,0.0013,-29.2688,-32.4563,-18.075,,adl
9.645676,-0.0001,-0.0004,-0.0008,0.0003,-0.0012,0.0013,-29.2688,-32.4563,-18.075,,adl
9.664221,-0.0001,-0.0004,-0.0008,0.0003,-0.0012,0.0013,-29.2313,-32.4938,-17.9438,,adl
9.699123,-0.0001,-0.0004,-0.0008,0.0003,-0.0016,-0.0001,-29.2313,-32.4938,-17.9438,,adl
9.701499,-0.0001,-0.0004,-0.0008,0.0003,-0.0016,-0.0001,-29.2313,-32.4938,-17.9438,,adl
9.719896,-0.0069,0.0008,-0.0016,0.0003,-0.0016,-0.0001,-29.2313,-32.4938,-17.9438,,adl
9.723324,-0.0069,0.0008,-0.0016,0.0003,-0.0016,-0.0001,-29.1938,-32.5312,-17.9625,,adl
9.761502,-0.0069,0.0008,-0.0016,0.0009,0.0027,-0.0005,-29.1938,-32.5312,-17.9625,,adl
9.763696,-0.0069,0.0008,-0.0016,0.0009,0.0027,-0.0005,-29.1938,-32.5312,-17.9625,,adl
9.779574,0.0114,-0.0104,0.001,0.0009,0.0027,-0.0005,-29.1938,-32.5312,-17.9625,,adl
9.783232,0.0114,-0.0104,0.001,0.0009,0.0027,-0.0005,-29.1,-32.475,-17.85,,adl
9.822337,0.0114,-0.0104,0.001,0.0009,-0.0044,0.0003,-29.1,-32.475,-17.85,,adl
9.824321,0.0114,-0.0104,0.001,0.0009,-0.0044,0.0003,-29.1,-32.475,-17.85,,adl
9.841122,-0.0089,-0.0024,-0.0009,0.0009,-0.0044,0.0003,-29.1,-32.475,-17.85,,adl
9.845741,-0.0089,-0.0024,-0.0009,0.0009,-0.0044,0.0003,-29.1,-32.5688,-17.85,,adl
9.880842,-0.0089,-0.0024,-0.0009,-0.0005,0.0016,0.0003,-29.1,-32.5688,-17.85,,adl
9.882626,-0.0089,-0.0024,-0.0009,-0.0005,0.0016,0.0003,-29.1,-32.5688,-17.85,,adl
9.904505,-0.0089,-0.0024,-0.0009,-0.0005,0.0016,0.0003,-29.025,-32.475,-17.8313,,adl
9.921966,0.0038,0.0058,0.0001,-0.0005,0.0016,0.0003,-29.025,-32.475,-17.8313,,adl
9.942416,0.0038,0.0058,0.0001,-0.0005,0.0016,0.0003,-29.025,-32.475,-17.8313,,adl
9.944724,0.0038,0.0058,0.0001,-0.0001,0.0005,0.0009,-29.025,-32.475,-17.8313,,adl
9.963681,0.0038,0.0058,0.0001,-0.0001,0.0005,0.0009,-28.8938,-32.4563,-17.7938,,adl
9.984379,0.0008,-0.0041,-0.0014,-0.0001,0.0005,0.0009,-28.8938,-32.4563,-17.7938,,adl
10.003565,0.0008,-0.0041,-0.0014,0.0009,-0.0027,0.0005,-28.8938,-32.4563,-17.7938,,adl
10.00454,0.0008,-0.0041,-0.0014,0.0009,-0.0027,0.0005,-28.8938,-32.4563,-17.7938,,adl
10.024323,0.0008,-0.0041,-0.0014,0.0009,-0.0027,0.0005,-28.9688,-32.4,-17.9438,,adl
10.045497,-0.0112,-0.0142,0.0026,0.0009,-0.0027,0.0005,-28.9688,-32.4,-17.9438,,adl
10.065066,-0.0112,-0.0142,0.0026,0.0009,-0.0027,0.0005,-28.9688,-32.4,-17.9438,,adl
10.068402,-0.0112,-0.0142,0.0026,0.0005,0.0035,-0.0005,-28.9688,-32.4,-17.9438,,adl
10.084499,-0.0112,-0.0142,0.0026,0.0005,0.0035,-0.0005,-28.95,-32.4,-17.9813,,adl
10.104765,0.0129,0.0122,-0.0066,0.0005,0.0035,-0.0005,-28.95,-32.4,-17.9813,,adl
10.125159,0.0129,0.0122,-0.0066,0.0005,0.0035,-0.0005,-28.95,-32.4,-17.9813,,adl
10.127222,0.0129,0.0122,-0.0066,-0.0016,-0.0005,0.0009,-28.95,-32.4,-17.9813,,adl
10.14655,0.0129,0.0122,-0.0066,-0.0016,-0.0005,0.0009,-28.9688,-32.25,-18.1688,,adl
10.186612,0.0129,0.0122,-0.0066,-0.0016,-0.0005,0.0009,-28.9688,-32.25,-18.1688,,adl
10.189635,0.0129,0.0122,-0.0066,-0.0005,-0.0001,0.0003,-28.9688,-32.25,-18.1688,,adl
10.191517,-0.0166,-0.0036,0.0057,-0.0005,-0.0001,0.0003,-28.9688,-32.25,-18.1688,,adl
10.203413,-0.0166,-0.0036,0.0057,-0.0005,-0.0001,0.0003,-28.95,-32.2875,-17.9813,,adl
10.246882,-0.0166,-0.0036,0.0057,-0.0005,-0.0001,0.0003,-28.95,-32.2875,-17.9813,,adl
10.24866,-0.0166,-0.0036,0.0057,0.0035,0.0013,0.0005,-28.95,-32.2875,-17.9813,,adl
10.249852,-0.0073,-0.0054,0.006,0.0035,0.0013,0.0005,-28.95,-32.2875,-17.9813,,adl
10.2641,-0.0073,-0.0054,0.006,0.0035,0.0013,0.0005,-28.9313,-32.325,-18.0188,,adl
10.307742,-0.0073,-0.0054,0.006,-0.0012,0.0013,0.0005,-28.9313,-32.325,-18.0188,,adl
10.310349,-0.0073,-0.0054,0.006,-0.0012,0.0013,0.0005,-28.9313,-32.325,-18.0188,,adl
10.311242,0.0134,-0.0136,0.0076,-0.0012,0.0013,0.0005,-28.9313,-32.325,-18.0188,,adl
10.325149,0.0134,-0.0136,0.0076,-0.0012,0.0013,0.0005,-28.8188,-32.3063,-17.9625,,adl
10.368994,0.0134,-0.0136,0.0076,-0.0012,0.0013,0.0005,-28.8188,-32.3063,-17.9625,,adl
10.370829,0.0134,-0.0136,0.0076,-0.0016,-0.0019,0.0009,-28.8188,-32.3063,-17.9625,,adl
10.384385,0.0134,-0.0136,0.0076,-0.0016,-0.0019,0.0009,-28.8,-32.325,-18.0188,,adl
10.38929,-0.0175,0.0163,-0.0063,-0.0016,-0.0019,0.0009,-28.8,-32.325,-18.0188,,adl
10.430072,-0.0175,0.0163,-0.0063,0.0013,0.0016,0.0005,-28.8,-32.325,-18.0188,,adl
10.431942,-0.0175,0.0163,-0.0063,0.0013,0.0016,0.0005,-28.8,-32.325,-18.0188,,adl
10.443751,-0.0175,0.0163,-0.0063,0.0013,0.0016,0.0005,-28.8938,-32.2313,-17.9625,,adl
10.44888,0.0071,-0.0174,0.0067,0.0013,0.0016,0.0005,-28.8938,-32.2313,-17.9625,,adl
10.491057,0.0071,-0.0174,0.0067,0.0027,-0.0008,0.0005,-28.8938,-32.2313,-17.9625,,adl
10.492886,0.0071,-0.0174,0.0067,0.0027,-0.0008,0.0005,-28.8938,-32.2313,-17.9625,,adl
10.503818,0.0071,-0.0174,0.0067,0.0027,-0.0008,0.0005,-28.9313,-32.2875,-17.7188,,adl
10.51172,0.0003,-0.0132,0.0,0.0027,-0.0008,0.0005,-28.9313,-32.2875,-17.7188,,adl
10.552477,0.0003,-0.0132,0.0,0.0013,0.0035,0.0013,-28.9313,-32.2875,-17.7188,,adl
10.554131,0.0003,-0.0132,0.0,0.0013,0.0035,0.0013,-28.9313,-32.2875,-17.7188,,adl
10.563313,0.0003,-0.0132,0.0,0.0013,0.0035,0.0013,-28.8375,-32.25,-17.55,,adl
10.570146,-0.0032,0.0102,-0.0112,0.0013,0.0035,0.0013,-28.8375,-32.25,-17.55,,adl
10.612804,-0.0032,0.0102,-0.0112,0.0013,0.0035,0.0013,-28.8375,-32.25,-17.55,,adl
10.615625,-0.0032,0.0102,-0.0112,-0.0016,0.0067,-0.0001,-28.8375,-32.25,-17.55,,adl
10.622414,-0.0032,0.0102,-0.0112,-0.0016,0.0067,-0.0001,-28.8938,-32.4,-17.4375,,adl
10.652807,-0.0001,0.0164,-0.0061,-0.0016,0.0067,-0.0001,-28.8938,-32.4,-17.4375,,adl
10.67328,-0.0001,0.0164,-0.0061,-0.0016,0.0067,-0.0001,-28.8938,-32.4,-17.4375,,adl
10.675879,-0.0001,0.0164,-0.0061,0.002,-0.0037,-0.0001,-28.8938,-32.4,-17.4375,,adl
10.683785,-0.0001,0.0164,-0.0061,0.002,-0.0037,-0.0001,-28.8938,-32.2688,-17.6438,,adl
10.71687,-0.023,-0.0284,0.0142,0.002,-0.0037,-0.0001,-28.8938,-32.2688,-17.6438,,adl
10.733626,-0.023,-0.0284,0.0142,0.0016,0.0013,-0.0005,-28.8938,-32.2688,-17.6438,,adl
10.735071,-0.023,-0.0284,0.0142,0.0016,0.0013,-0.0005,-28.8938,-32.2688,-17.6438,,adl
10.74335,-0.023,-0.0284,0.0142,0.0016,0.0013,-0.0005,-28.8563,-32.25,-17.5875,,adl
10.774281,0.0154,-0.0066,-0.006,0.0016,0.0013,-0.0005,-28.8563,-32.25,-17.5875,,adl
10.794714,0.0154,-0.0066,-0.006,0.0016,0.0013,-0.0005,-28.8563,-32.25,-17.5875,,adl
10.796251,0.0154,-0.0066,-0.006,-0.0008,0.0016,0.0009,-28.8563,-32.25,-17.5875,,adl
10.803375,0.0154,-0.0066,-0.006,-0.0008,0.0016,0.0009,-29.025,-32.25,-17.7563,,adl
10.856182,0.0154,-0.0066,-0.006,-0.0008,0.0016,0.0009,-29.025,-32.25,-17.7563,,adl
10.858788,-0.0062,0.0173,-0.0014,-0.0008,0.0016,0.0009,-29.025,-32.25,-17.7563,,adl
10.859724,-0.0062,0.0173,-0.0014,-0.0005,-0.0001,0.0005,-29.025,-32.25,-17.7563,,adl
10.863172,-0.0062,0.0173,-0.0014,-0.0005,-0.0001,0.0005,-29.0063,-32.25,-17.7375,,adl
10.916702,-0.0062,0.0173,-0.0014,0.0009,0.0003,-0.0016,-29.0063,-32.25,-17.7375,,adl
10.918368,0.007,-0.009,0.0081,0.0009,0.0003,-0.0016,-29.0063,-32.25,-17.7375,,adl
10.919074,0.007,-0.009,0.0081,0.0009,0.0003,-0.0016,-29.0063,-32.25,-17.7375,,adl
10.925606,0.007,-0.009,0.0081,0.0009,0.0003,-0.0016,-28.95,-32.3063,-17.7188,,adl
10.979313,0.007,-0.009,0.0081,0.0013,-0.0027,-0.0005,-28.95,-32.3063,-17.7188,,adl
10.982735,0.007,-0.009,0.0081,0.0013,-0.0027,-0.0005,-28.95,-32.3063,-17.7188,,adl
10.984372,0.0061,-0.0047,-0.0023,0.0013,-0.0027,-0.0005,-28.95,-32.3063,-17.7188,,adl
10.985753,0.0061,-0.0047,-0.0023,0.0013,-0.0027,-0.0005,-28.8938,-32.1938,-17.7938,,adl
11.039666,0.0061,-0.0047,-0.0023,0.0003,-0.0001,0.0005,-28.8938,-32.1938,-17.7938,,adl
11.041629,0.0061,-0.0047,-0.0023,0.0003,-0.0001,0.0005,-28.8938,-32.1938,-17.7938,,adl
11.042582,-0.0031,0.0074,-0.0028,0.0003,-0.0001,0.0005,-28.8938,-32.1938,-17.7938,,adl
11.043487,-0.0031,0.0074,-0.0028,0.0003,-0.0001,0.0005,-29.0438,-32.1,-18.0,,adl
11.100701,-0.0031,0.0074,-0.0028,0.0005,0.0027,0.0005,-29.0438,-32.1,-18.0,,adl
11.103151,-0.0031,0.0074,-0.0028,0.0005,0.0027,0.0005,-29.0438,-32.1,-18.0,,adl
11.105155,-0.0031,0.0074,-0.0028,0.0005,0.0027,0.0005,-28.9313,-32.0625,-17.9438,,adl
11.119397,0.0099,-0.0152,0.0042,0.0005,0.0027,0.0005,-28.9313,-32.0625,-17.9438,,adl
11.16046,0.0099,-0.0152,0.0042,0.0003,-0.0012,0.0005,-28.9313,-32.0625,-17.9438,,adl
11.163121,0.0099,-0.0152,0.0042,0.0003,-0.0012,0.0005,-28.9313,-32.0625,-17.9438,,adl
11.164116,0.0099,-0.0152,0.0042,0.0003,-0.0012,0.0005,-28.9688,-32.2313,-17.9438,,adl
11.180192,-0.017,0.0118,0.0001,0.0003,-0.0012,0.0005,-28.9688,-32.2313,-17.9438,,adl
11.220173,-0.017,0.0118,0.0001,0.0005,-0.0012,-0.0001,-28.9688,-32.2313,-17.9438,,adl
11.222383,-0.017,0.0118,0.0001,0.0005,-0.0012,-0.0001,-28.9688,-32.2313,-17.9438,,adl
11.223458,-0.017,0.0118,0.0001,0.0005,-0.0012,-0.0001,-29.1938,-32.2875,-17.9438,,adl
11.241788,-0.001,0.0003,-0.0059,0.0005,-0.0012,-0.0001,-29.1938,-32.2875,-17.9438,,adl
11.284059,-0.001,0.0003,-0.0059,0.0009,0.0013,-0.0001,-29.1938,-32.2875,-17.9438,,adl
11.285918,-0.001,0.0003,-0.0059,0.0009,0.0013,-0.0001,-29.1938,-32.2875,-17.9438,,adl
11.286922,-0.001,0.0003,-0.0059,0.0009,0.0013,-0.0001,-29.1938,-32.2875,-17.8313,,adl
11.324703,0.0029,-0.0115,0.0035,0.0009,0.0013,-0.0001,-29.1938,-32.2875,-17.8313,,adl
11.344397,0.0029,-0.0115,0.0035,0.0009,0.0013,-0.0001,-29.25,-32.2688,-17.8313,,adl
11.345913,0.0029,-0.0115,0.0035,0.0016,-0.0027,-0.0001,-29.25,-32.2688,-17.8313,,adl
11.34682,0.0029,-0.0115,0.0035,0.0016,-0.0027,-0.0001,-29.25,-32.2688,-17.8313,,adl
11.384672,-0.0027,-0.0047,-0.0029,0.0016,-0.0027,-0.0001,-29.25,-32.2688,-17.8313,,adl
11.404673,-0.0027,-0.0047,-0.0029,0.0016,-0.0027,-0.0001,-29.2313,-32.25,-17.8875,,adl
11.407465,-0.0027,-0.0047,-0.0029,0.0009,0.0003,-0.0001,-29.2313,-32.25,-17.8875,,adl
11.408375,-0.0027,-0.0047,-0.0029,0.0009,0.0003,-0.0001,-29.2313,-32.25,-17.8875,,adl
11.444532,0.0096,0.0066,-0.0019,0.0009,0.0003,-0.0001,-29.2313,-32.25,-17.8875,,adl
11.464748,0.0096,0.0066,-0.0019,0.0009,0.0003,-0.0001,-29.4188,-32.3625,-17.8875,,adl
11.466637,0.0096,0.0066,-0.0019,0.0013,0.0003,0.0003,-29.4188,-32.3625,-17.8875,,adl
11.467479,0.0096,0.0066,-0.0019,0.0013,0.0003,0.0003,-29.4188,-32.3625,-17.8875,,adl
11.505091,-0.0084,-0.0073,0.0052,0.0013,0.0003,0.0003,-29.4188,-32.3625,-17.8875,,adl
11.523043,-0.0084,-0.0073,0.0052,0.0013,0.0003,0.0003,-29.3063,-32.3625,-17.775,,adl
11.526294,-0.0084,-0.0073,0.0052,0.0013,0.0003,0.0003,-29.3063,-32.3625,-17.775,,adl
11.52734,-0.0084,-0.0073,0.0052,-0.0001,-0.0016,0.0005,-29.3063,-32.3625,-17.775,,adl
11.584041,-0.0084,-0.0073,0.0052,-0.0001,-0.0016,0.0005,-29.3625,-32.3813,-18.0375,,adl
11.585801,-0.0084,-0.0073,0.0052,0.0005,0.0024,0.0003,-29.3625,-32.3813,-18.0375,,adl
11.586947,-0.0084,-0.0073,0.0052,0.0005,0.0024,0.0003,-29.3625,-32.3813,-18.0375,,adl
11.587782,-0.0014,0.0056,-0.0027,0.0005,0.0024,0.0003,-29.3625,-32.3813,-18.0375,,adl
11.646068,-0.0014,0.0056,-0.0027,0.0005,0.0024,0.0003,-29.2688,-32.3063,-17.9438,,adl
11.648874,-0.0014,0.0056,-0.0027,0.0009,-0.0008,-0.0001,-29.2688,-32.3063,-17.9438,,adl
11.649875,-0.0014,0.0056,-0.0027,0.0009,-0.0008,-0.0001,-29.2688,-32.3063,-17.9438,,adl
11.650998,0.0071,-0.0052,0.0024,0.0009,-0.0008,-0.0001,-29.2688,-32.3063,-17.9438,,adl
11.705432,0.0071,-0.0052,0.0024,0.0009,-0.0008,-0.0001,-29.1375,-32.175,-18.1313,,adl
11.708205,0.0071,-0.0052,0.0024,0.0009,-0.0019,0.0005,-29.1375,-32.175,-18.1313,,adl
11.709117,0.0071,-0.0052,0.0024,0.0009,-0.0019,0.0005,-29.1375,-32.175,-18.1313,,adl
11.710418,-0.0074,-0.0034,0.0023,0.0009,-0.0019,0.0005,-29.1375,-32.175,-18.1313,,adl
11.765164,-0.0074,-0.0034,0.0023,0.0009,-0.0019,0.0005,-29.0813,-32.1375,-18.075,,adl
11.769954,-0.0074,-0.0034,0.0023,0.0009,-0.0019,0.0005,-29.0813,-32.1375,-18.075,,adl
11.770692,-0.0074,-0.0034,0.0023,0.0009,0.0009,-0.0005,-29.0813,-32.1375,-18.075,,adl
11.771672,0.0031,-0.0051,0.0001,0.0009,0.0009,-0.0005,-29.0813,-32.1375,-18.075,,adl
11.823381,0.0031,-0.0051,0.0001,0.0009,0.0009,-0.0005,-29.1,-32.1562,-17.9062,,adl
11.831248,0.0031,-0.0051,0.0001,0.0005,-0.0019,0.0005,-29.1,-32.1562,-17.9062,,adl
11.832284,0.0031,-0.0051,0.0001,0.0005,-0.0019,0.0005,-29.1,-32.1562,-17.9062,,adl
11.850294,-0.0095,-0.001,0.0067,0.0005,-0.0019,0.0005,-29.1,-32.1562,-17.9062,,adl
11.884805,-0.0095,-0.001,0.0067,0.0005,-0.0019,0.0005,-29.1188,-32.2688,-17.925,,adl
11.890958,-0.0095,-0.001,0.0067,0.0016,-0.0019,0.0003,-29.1188,-32.2688,-17.925,,adl
11.89364,-0.0095,-0.001,0.0067,0.0016,-0.0019,0.0003,-29.1188,-32.2688,-17.925,,adl
11.91048,-0.0026,0.0077,-0.005,0.0016,-0.0019,0.0003,-29.1188,-32.2688,-17.925,,adl
11.942786,-0.0026,0.0077,-0.005,0.0016,-0.0019,0.0003,-29.1,-32.2313,-18.1125,,adl
11.95174,-0.0026,0.0077,-0.005,0.0016,-0.0019,0.0003,-29.1,-32.2313,-18.1125,,adl
11.952488,-0.0026,0.0077,-0.005,-0.0001,0.0073,-0.0012,-29.1,-32.2313,-18.1125,,adl
11.972617,0.0284,-0.0157,-0.0006,-0.0001,0.0073,-0.0012,-29.1,-32.2313,-18.1125,,adl
12.003568,0.0284,-0.0157,-0.0006,-0.0001,0.0073,-0.0012,-29.2125,-32.3063,-18.0,,adl
12.014799,0.0284,-0.0157,-0.0006,-0.0001,0.0073,-0.0012,-29.2125,-32.3063,-18.0,,adl
12.0164,0.0284,-0.0157,-0.0006,-0.0008,-0.0076,0.0003,-29.2125,-32.3063,-18.0,,adl
12.053189,-0.0401,0.0109,0.0007,-0.0008,-0.0076,0.0003,-29.2125,-32.3063,-18.0,,adl
12.064313,-0.0401,0.0109,0.0007,-0.0008,-0.0076,0.0003,-29.2875,-32.1375,-17.9438,,adl
12.073369,-0.0401,0.0109,0.0007,0.0009,-0.004,0.0031,-29.2875,-32.1375,-17.9438,,adl
12.075229,-0.0401,0.0109,0.0007,0.0009,-0.004,0.0031,-29.2875,-32.1375,-17.9438,,adl
12.114337,0.0007,-0.0025,-0.0063,0.0009,-0.004,0.0031,-29.2875,-32.1375,-17.9438,,adl
12.122623,0.0007,-0.0025,-0.0063,0.0009,-0.004,0.0031,-29.4375,-31.9688,-18.0375,,adl
12.134661,0.0007,-0.0025,-0.0063,0.0013,0.0031,0.0154,-29.4375,-31.9688,-18.0375,,adl
12.135819,0.0007,-0.0025,-0.0063,0.0013,0.0031,0.0154,-29.4375,-31.9688,-18.0375,,adl
12.17525,0.0161,-0.0215,-0.0009,0.0013,0.0031,0.0154,-29.4375,-31.9688,-18.0375,,adl
12.183932,0.0161,-0.0215,-0.0009,0.0013,0.0031,0.0154,-29.5313,-31.95,-18.0375,,adl
12.195398,0.0161,-0.0215,-0.0009,0.0009,0.0003,0.0005,-29.5313,-31.95,-18.0375,,adl
12.196325,0.0161,-0.0215,-0.0009,0.0009,0.0003,0.0005,-29.5313,-31.95,-18.0375,,adl
12.236887,-0.0205,0.0071,-0.0017,0.0009,0.0003,0.0005,-29.5313,-31.95,-18.0375,,adl
12.243191,-0.0205,0.0071,-0.0017,0.0009,0.0003,0.0005,-29.5875,-31.95,-18.2063,,adl
12.256371,-0.0205,0.0071,-0.0017,0.0005,-0.0108,0.0067,-29.5875,-31.95,-18.2063,,adl
12.257536,-0.0205,0.0071,-0.0017,0.0005,-0.0108,0.0067,-29.5875,-31.95,-18.2063,,adl
12.302405,-0.0205,0.0071,-0.0017,0.0005,-0.0108,0.0067,-29.625,-31.95,-18.4125,,adl
12.317271,-0.0205,0.0071,-0.0017,0.0005,-0.0108,0.0067,-29.625,-31.95,-18.4125,,adl
12.31857,-0.0205,0.0071,-0.0017,0.0056,0.2225,-0.0001,-29.625,-31.95,-18.4125,,adl
12.319375,-0.0035,0.0051,0.0044,0.0056,0.2225,-0.0001,-29.625,-31.95,-18.4125,,adl
