time,ax,ay,az,wx,wy,wz,Bx,By,Bz,Unnamed: 10,label
0.071021,0.0,0.0,0.0,0.029,-0.6249,-0.0059,0.0,0.0,0.0,,adl
0.086206,0.0,0.0,0.0,0.029,-0.6249,-0.0059,0.0,0.0,0.0,,adl
0.126896,0.0,0.0,0.0,0.029,-0.6249,-0.0059,-26.4188,-33.9563,-11.1375,,adl
0.148334,0.0,0.0,0.0,0.029,-0.6249,-0.0059,-26.4188,-33.9563,-11.1375,,adl
0.149422,0.0,0.0,0.0,0.0005,0.0063,-0.0016,-26.4188,-33.9563,-11.1375,,adl
0.185503,0.0,0.0,0.0,0.0005,0.0063,-0.0016,-25.9688,-33.9,-11.0438,,adl
0.189123,0.0,0.0,0.0,0.0005,0.0063,-0.0016,-25.9688,-33.9,-11.0438,,adl
0.211456,0.0,0.0,0.0,0.0005,0.0063,-0.0016,-25.9688,-33.9,-11.0438,,adl
0.212823,0.0,0.0,0.0,-0.0001,-0.0093,0.0009,-25.9688,-33.9,-11.0438,,adl
0.244773,0.0,0.0,0.0,-0.0001,-0.0093,0.0009,-25.8188,-33.8813,-10.8938,,adl
0.25173,0.0009,0.02,-0.0426,-0.0001,-0.0093,0.0009,-25.8188,-33.8813,-10.8938,,adl
0.270187,0.0009,0.02,-0.0426,-0.0008,0.002,0.0005,-25.8188,-33.8813,-10.8938,,adl
0.271241,0.0009,0.02,-0.0426,-0.0008,0.002,0.0005,-25.8188,-33.8813,-10.8938,,adl
0.307051,0.0009,0.02,-0.0426,-0.0008,0.002,0.0005,-25.9125,-34.3125,-10.9125,,adl
0.332201,0.0217,-0.0094,-0.0084,-0.0008,0.002,0.0005,-25.9125,-34.3125,-10.9125,,adl
0.333327,0.0217,-0.0094,-0.0084,0.0009,0.0184,-0.0008,-25.9125,-34.3125,-10.9125,,adl
0.334206,0.0217,-0.0094,-0.0084,0.0009,0.0184,-0.0008,-25.9125,-34.3125,-10.9125,,adl
0.364222,0.0217,-0.0094,-0.0084,0.0009,0.0184,-0.0008,-26.0625,-34.575,-10.95,,adl
0.392215,0.0217,-0.0094,-0.0084,0.0009,0.0184,-0.0008,-26.0625,-34.575,-10.95,,adl
0.39449,0.0014,-0.0076,-0.0184,0.0009,0.0184,-0.0008,-26.0625,-34.575,-10.95,,adl
0.396473,0.0014,-0.0076,-0.0184,0.002,-0.0189,-0.0033,-26.0625,-34.575,-10.95,,adl
0.424598,0.0014,-0.0076,-0.0184,0.002,-0.0189,-0.0033,-25.9875,-34.5,-11.0625,,adl
0.453229,0.0014,-0.0076,-0.0184,0.002,-0.0189,-0.0033,-25.9875,-34.5,-11.0625,,adl
0.454678,0.0014,-0.0076,-0.0184,0.0027,-0.0228,0.0003,-25.9875,-34.5,-11.0625,,adl
0.45559,-0.022,-0.002,-0.0005,0.0027,-0.0228,0.0003,-25.9875,-34.5,-11.0625,,adl
0.485125,-0.022,-0.002,-0.0005,0.0027,-0.0228,0.0003,-25.95,-34.4813,-10.9688,,adl
0.514371,-0.022,-0.002,-0.0005,-0.0016,0.028,0.0009,-25.95,-34.4813,-10.9688,,adl
0.516236,-0.022,-0.002,-0.0005,-0.0016,0.028,0.0009,-25.95,-34.4813,-10.9688,,adl
0.517487,0.0339,0.0067,-0.0177,-0.0016,0.028,0.0009,-25.95,-34.4813,-10.9688,,adl
0.546099,0.0339,0.0067,-0.0177,-0.0016,0.028,0.0009,-25.7625,-34.5188,-11.0438,,adl
0.575026,0.0339,0.0067,-0.0177,-0.0001,0.0069,0.0024,-25.7625,-34.5188,-11.0438,,adl
0.576903,0.0339,0.0067,-0.0177,-0.0001,0.0069,0.0024,-25.7625,-34.5188,-11.0438,,adl
0.59602,0.0332,-0.0081,-0.0084,-0.0001,0.0069,0.0024,-25.7625,-34.5188,-11.0438,,adl
0.604352,0.0332,-0.0081,-0.0084,-0.0001,0.0069,0.0024,-25.6125,-34.4438,-11.1188,,adl
0.636038,0.0332,-0.0081,-0.0084,0.0035,-0.0345,0.0009,-25.6125,-34.4438,-11.1188,,adl
0.637414,0.0332,-0.0081,-0.0084,0.0035,-0.0345,0.0009,-25.6125,-34.4438,-11.1188,,adl
0.655853,-0.0548,-0.0038,0.0136,0.0035,-0.0345,0.0009,-25.6125,-34.4438,-11.1188,,adl
0.664279,-0.0548,-0.0038,0.0136,0.0035,-0.0345,0.0009,-25.65,-34.4813,-11.0813,,adl
0.696767,-0.0548,-0.0038,0.0136,-0.0033,0.0495,0.0003,-25.65,-34.4813,-11.0813,,adl
0.698913,-0.0548,-0.0038,0.0136,-0.0033,0.0495,0.0003,-25.65,-34.4813,-11.0813,,adl
0.717494,0.0821,-0.0046,-0.0356,-0.0033,0.0495,0.0003,-25.65,-34.4813,-11.0813,,adl
0.725598,0.0821,-0.0046,-0.0356,-0.0033,0.0495,0.0003,-25.6313,-34.5563,-11.0438,,adl
0.759604,0.0821,-0.0046,-0.0356,0.0027,-0.037,-0.0001,-25.6313,-34.5563,-11.0438,,adl
0.762081,0.0821,-0.0046,-0.0356,0.0027,-0.037,-0.0001,-25.6313,-34.5563,-11.0438,,adl
0.784641,0.0821,-0.0046,-0.0356,0.0027,-0.037,-0.0001,-25.5938,-34.3875,-11.0438,,adl
0.798165,-0.0658,0.0004,0.0202,0.0027,-0.037,-0.0001,-25.5938,-34.3875,-11.0438,,adl
0.818193,-0.0658,0.0004,0.0202,-0.0001,0.0063,0.0003,-25.5938,-34.3875,-11.0438,,adl
0.819913,-0.0658,0.0004,0.0202,-0.0001,0.0063,0.0003,-25.5938,-34.3875,-11.0438,,adl
0.844651,-0.0658,0.0004,0.0202,-0.0001,0.0063,0.0003,-25.4813,-34.2563,-11.0438,,adl
0.85894,0.0435,-0.0007,-0.0206,-0.0001,0.0063,0.0003,-25.4813,-34.2563,-11.0438,,adl
0.878726,0.0435,-0.0007,-0.0206,0.0009,0.0095,0.0005,-25.4813,-34.2563,-11.0438,,adl
0.879805,0.0435,-0.0007,-0.0206,0.0009,0.0095,0.0005,-25.4813,-34.2563,-11.0438,,adl
0.904562,0.0435,-0.0007,-0.0206,0.0009,0.0095,0.0005,-25.4063,-34.2375,-11.0063,,adl
0.919825,-0.0006,-0.0078,-0.0042,0.0009,0.0095,0.0005,-25.4063,-34.2375,-11.0063,,adl
0.94135,-0.0006,-0.0078,-0.0042,0.0009,-0.0121,0.0005,-25.4063,-34.2375,-11.0063,,adl
0.944592,-0.0006,-0.0078,-0.0042,0.0009,-0.0121,0.0005,-25.4063,-34.2375,-11.0063,,adl
0.963637,-0.0006,-0.0078,-0.0042,0.0009,-0.0121,0.0005,-25.3875,-34.1438,-11.0438,,adl
0.981019,-0.0142,0.0019,-0.0017,0.0009,-0.0121,0.0005,-25.3875,-34.1438,-11.0438,,adl
1.003599,-0.0142,0.0019,-0.0017,0.0035,-0.0051,-0.0001,-25.3875,-34.1438,-11.0438,,adl
1.004706,-0.0142,0.0019,-0.0017,0.0035,-0.0051,-0.0001,-25.3875,-34.1438,-11.0438,,adl
1.023815,-0.0142,0.0019,-0.0017,0.0035,-0.0051,-0.0001,-25.5938,-34.1813,-11.025,,adl
1.06286,-0.0142,0.0019,-0.0017,-0.0008,0.0148,0.0003,-25.5938,-34.1813,-11.025,,adl
1.06469,-0.0142,0.0019,-0.0017,-0.0008,0.0148,0.0003,-25.5938,-34.1813,-11.025,,adl
1.06615,0.0287,-0.0243,0.003,-0.0008,0.0148,0.0003,-25.5938,-34.1813,-11.025,,adl
1.084073,0.0287,-0.0243,0.003,-0.0008,0.0148,0.0003,-25.6125,-34.2188,-10.8938,,adl
1.123679,0.0287,-0.0243,0.003,-0.0008,-0.0146,0.0013,-25.6125,-34.2188,-10.8938,,adl
1.125278,0.0287,-0.0243,0.003,-0.0008,-0.0146,0.0013,-25.6125,-34.2188,-10.8938,,adl
1.12669,-0.0191,0.0142,-0.0103,-0.0008,-0.0146,0.0013,-25.6125,-34.2188,-10.8938,,adl
1.144064,-0.0191,0.0142,-0.0103,-0.0008,-0.0146,0.0013,-25.725,-34.2938,-10.9688,,adl
1.18461,-0.0191,0.0142,-0.0103,0.0013,0.0035,0.0013,-25.725,-34.2938,-10.9688,,adl
1.186765,-0.0023,-0.0056,-0.0018,0.0013,0.0035,0.0013,-25.725,-34.2938,-10.9688,,adl
1.188487,-0.0023,-0.0056,-0.0018,0.0013,0.0035,0.0013,-25.725,-34.2938,-10.9688,,adl
1.204622,-0.0023,-0.0056,-0.0018,0.0013,0.0035,0.0013,-25.65,-34.1813,-11.0438,,adl
1.24477,-0.0023,-0.0056,-0.0018,0.0013,0.0035,0.0013,-25.65,-34.1813,-11.0438,,adl
1.246612,-0.0023,-0.0056,-0.0018,0.0003,0.0091,0.0003,-25.65,-34.1813,-11.0438,,adl
1.263333,-0.0023,-0.0056,-0.0018,0.0003,0.0091,0.0003,-25.5188,-34.0125,-11.1,,adl
1.264573,0.0187,-0.0149,-0.002,0.0003,0.0091,0.0003,-25.5188,-34.0125,-11.1,,adl
1.305707,0.0187,-0.0149,-0.002,0.0003,0.0091,0.0003,-25.5188,-34.0125,-11.1,,adl
1.306458,0.0187,-0.0149,-0.002,0.0005,-0.0115,-0.0005,-25.5188,-34.0125,-11.1,,adl
1.323457,0.0187,-0.0149,-0.002,0.0005,-0.0115,-0.0005,-25.425,-33.8813,-11.1938,,adl
1.32471,-0.0177,0.0072,0.0052,0.0005,-0.0115,-0.0005,-25.425,-33.8813,-11.1938,,adl
1.36682,-0.0177,0.0072,0.0052,0.0003,0.002,-0.0005,-25.425,-33.8813,-11.1938,,adl
1.368784,-0.0177,0.0072,0.0052,0.0003,0.002,-0.0005,-25.425,-33.8813,-11.1938,,adl
1.383494,-0.0177,0.0072,0.0052,0.0003,0.002,-0.0005,-25.3875,-33.8063,-11.2125,,adl
1.384938,0.0014,0.005,-0.0007,0.0003,0.002,-0.0005,-25.3875,-33.8063,-11.2125,,adl
1.428086,0.0014,0.005,-0.0007,0.0003,0.002,-0.0005,-25.3875,-33.8063,-11.2125,,adl
1.429963,0.0014,0.005,-0.0007,0.0005,0.0027,0.0005,-25.3875,-33.8063,-11.2125,,adl
1.44387,0.0014,0.005,-0.0007,0.0005,0.0027,0.0005,-25.425,-33.9188,-11.325,,adl
1.447461,0.0088,-0.0134,-0.006,0.0005,0.0027,0.0005,-25.425,-33.9188,-11.325,,adl
1.490508,0.0088,-0.0134,-0.006,0.0009,-0.0061,0.0005,-25.425,-33.9188,-11.325,,adl
1.491693,0.0088,-0.0134,-0.006,0.0009,-0.0061,0.0005,-25.425,-33.9188,-11.325,,adl
1.505233,0.0088,-0.0134,-0.006,0.0009,-0.0061,0.0005,-25.3688,-33.7313,-11.3813,,adl
1.530716,-0.0032,0.0005,-0.0044,0.0009,-0.0061,0.0005,-25.3688,-33.7313,-11.3813,,adl
1.548681,-0.0032,0.0005,-0.0044,-0.0008,0.0059,0.0005,-25.3688,-33.7313,-11.3813,,adl
1.549733,-0.0032,0.0005,-0.0044,-0.0008,0.0059,0.0005,-25.3688,-33.7313,-11.3813,,adl
1.563492,-0.0032,0.0005,-0.0044,-0.0008,0.0059,0.0005,-25.35,-33.7688,-11.4563,,adl
1.589453,0.015,0.0042,-0.0099,-0.0008,0.0059,0.0005,-25.35,-33.7688,-11.4563,,adl
1.609741,0.015,0.0042,-0.0099,-0.0008,0.0059,0.0005,-25.35,-33.7688,-11.4563,,adl
1.611785,0.015,0.0042,-0.0099,0.0003,-0.0008,-0.0005,-25.35,-33.7688,-11.4563,,adl
1.624407,0.015,0.0042,-0.0099,0.0003,-0.0008,-0.0005,-25.0875,-33.7688,-11.475,,adl
1.651674,-0.0056,-0.0087,0.0027,0.0003,-0.0008,-0.0005,-25.0875,-33.7688,-11.475,,adl
1.671478,-0.0056,-0.0087,0.0027,0.0003,-0.0008,-0.0005,-25.0875,-33.7688,-11.475,,adl
1.673511,-0.0056,-0.0087,0.0027,0.0013,-0.0091,-0.0005,-25.0875,-33.7688,-11.475,,adl
1.685146,-0.0056,-0.0087,0.0027,0.0013,-0.0091,-0.0005,-25.2188,-33.8625,-11.55,,adl
1.732103,-0.0056,-0.0087,0.0027,0.0013,-0.0091,-0.0005,-25.2188,-33.8625,-11.55,,adl
1.734174,-0.0056,-0.0087,0.0027,0.0005,0.0059,0.0009,-25.2188,-33.8625,-11.55,,adl
1.735789,-0.004,-0.0068,-0.0034,0.0005,0.0059,0.0009,-25.2188,-33.8625,-11.55,,adl
1.744,-0.004,-0.0068,-0.0034,0.0005,0.0059,0.0009,-25.2938,-33.975,-11.4563,,adl
1.79253,-0.004,-0.0068,-0.0034,0.0005,0.0059,0.0009,-25.2938,-33.975,-11.4563,,adl
1.794035,0.0185,0.0041,-0.0092,0.0005,0.0059,0.0009,-25.2938,-33.975,-11.4563,,adl
1.795111,0.0185,0.0041,-0.0092,0.0009,0.0013,0.0005,-25.2938,-33.975,-11.4563,,adl
1.805084,0.0185,0.0041,-0.0092,0.0009,0.0013,0.0005,-25.2938,-34.05,-11.3813,,adl
1.855056,0.0185,0.0041,-0.0092,-0.0001,-0.0076,0.0003,-25.2938,-34.05,-11.3813,,adl
1.85694,0.0185,0.0041,-0.0092,-0.0001,-0.0076,0.0003,-25.2938,-34.05,-11.3813,,adl
1.858875,-0.0088,-0.0074,0.0064,-0.0001,-0.0076,0.0003,-25.2938,-34.05,-11.3813,,adl
1.863363,-0.0088,-0.0074,0.0064,-0.0001,-0.0076,0.0003,-25.1813,-34.0688,-11.2125,,adl
1.914697,-0.0088,-0.0074,0.0064,0.0027,-0.0005,0.0003,-25.1813,-34.0688,-11.2125,,adl
1.916773,-0.0113,-0.0121,0.0061,0.0027,-0.0005,0.0003,-25.1813,-34.0688,-11.2125,,adl
1.918089,-0.0113,-0.0121,0.0061,0.0027,-0.0005,0.0003,-25.1813,-34.0688,-11.2125,,adl
1.923661,-0.0113,-0.0121,0.0061,0.0027,-0.0005,0.0003,-25.1063,-34.1625,-11.0063,,adl
1.975555,-0.0113,-0.0121,0.0061,-0.0016,0.0084,0.0013,-25.1063,-34.1625,-11.0063,,adl
1.977591,-0.0113,-0.0121,0.0061,-0.0016,0.0084,0.0013,-25.1063,-34.1625,-11.0063,,adl
1.985007,-0.0113,-0.0121,0.0061,-0.0016,0.0084,0.0013,-25.0875,-34.2375,-10.9313,,adl
1.995644,0.0231,0.0015,-0.0104,-0.0016,0.0084,0.0013,-25.0875,-34.2375,-10.9313,,adl
2.038101,0.0231,0.0015,-0.0104,-0.0016,0.0084,0.0013,-25.0875,-34.2375,-10.9313,,adl
2.040493,0.0231,0.0015,-0.0104,-0.0012,-0.0065,0.0005,-25.0875,-34.2375,-10.9313,,adl
2.046175,0.0231,0.0015,-0.0104,-0.0012,-0.0065,0.0005,-25.0125,-34.2,-10.95,,adl
2.055789,-0.0105,0.0167,0.009,-0.0012,-0.0065,0.0005,-25.0125,-34.2,-10.95,,adl
2.098867,-0.0105,0.0167,0.009,0.0005,0.0016,0.0003,-25.0125,-34.2,-10.95,,adl
2.100793,-0.0105,0.0167,0.009,0.0005,0.0016,0.0003,-25.0125,-34.2,-10.95,,adl
2.105323,-0.0105,0.0167,0.009,0.0005,0.0016,0.0003,-25.1438,-34.2188,-10.8938,,adl
2.117283,0.0003,-0.0207,-0.0054,0.0005,0.0016,0.0003,-25.1438,-34.2188,-10.8938,,adl
2.157063,0.0003,-0.0207,-0.0054,0.0005,0.0016,0.0003,-25.1438,-34.2188,-10.8938,,adl
2.158302,0.0003,-0.0207,-0.0054,0.0013,0.0009,0.0003,-25.1438,-34.2188,-10.8938,,adl
2.163962,0.0003,-0.0207,-0.0054,0.0013,0.0009,0.0003,-24.975,-34.2,-10.7063,,adl
2.199033,-0.0047,-0.0085,0.0018,0.0013,0.0009,0.0003,-24.975,-34.2,-10.7063,,adl
2.221194,-0.0047,-0.0085,0.0018,0.0003,-0.0029,0.0005,-24.975,-34.2,-10.7063,,adl
2.223566,-0.0047,-0.0085,0.0018,0.0003,-0.0029,0.0005,-24.975,-34.2,-10.7063,,adl
2.225727,-0.0047,-0.0085,0.0018,0.0003,-0.0029,0.0005,-24.9188,-34.1813,-10.7812,,adl
2.25969,-0.006,0.0071,-0.0039,0.0003,-0.0029,0.0005,-24.9188,-34.1813,-10.7812,,adl
2.27962,-0.006,0.0071,-0.0039,-0.0001,0.002,0.0003,-24.9188,-34.1813,-10.7812,,adl
2.28138,-0.006,0.0071,-0.0039,-0.0001,0.002,0.0003,-24.9188,-34.1813,-10.7812,,adl
2.283614,-0.006,0.0071,-0.0039,-0.0001,0.002,0.0003,-25.0313,-34.1813,-10.8563,,adl
2.318835,0.0059,0.0001,-0.0082,-0.0001,0.002,0.0003,-25.0313,-34.1813,-10.8563,,adl
2.339474,0.0059,0.0001,-0.0082,-0.0001,0.002,0.0003,-25.0313,-34.1813,-10.8563,,adl
2.340486,0.0059,0.0001,-0.0082,-0.0001,-0.0012,0.0009,-25.0313,-34.1813,-10.8563,,adl
2.342695,0.0059,0.0001,-0.0082,-0.0001,-0.0012,0.0009,-25.1438,-34.0125,-11.2313,,adl
2.380176,-0.0073,-0.0067,-0.0001,-0.0001,-0.0012,0.0009,-25.1438,-34.0125,-11.2313,,adl
2.401355,-0.0073,-0.0067,-0.0001,-0.0001,-0.0012,0.0009,-25.1438,-34.0125,-11.2313,,adl
2.402841,-0.0073,-0.0067,-0.0001,0.0005,-0.0012,0.0003,-25.1438,-34.0125,-11.2313,,adl
2.403998,-0.0073,-0.0067,-0.0001,0.0005,-0.0012,0.0003,-25.1813,-33.75,-11.4188,,adl
2.462812,-0.0073,-0.0067,-0.0001,-0.0001,0.0035,0.0003,-25.1813,-33.75,-11.4188,,adl
2.464232,-0.0073,-0.0067,-0.0001,-0.0001,0.0035,0.0003,-25.1813,-33.75,-11.4188,,adl
2.465344,-0.001,-0.0067,-0.0059,-0.0001,0.0035,0.0003,-25.1813,-33.75,-11.4188,,adl
2.467122,-0.001,-0.0067,-0.0059,-0.0001,0.0035,0.0003,-25.125,-33.9563,-11.3813,,adl
2.52323,-0.001,-0.0067,-0.0059,0.0003,-0.004,0.0003,-25.125,-33.9563,-11.3813,,adl
2.52532,0.0036,-0.0023,0.0051,0.0003,-0.004,0.0003,-25.125,-33.9563,-11.3813,,adl
2.526841,0.0036,-0.0023,0.0051,0.0003,-0.004,0.0003,-25.3313,-34.05,-11.3438,,adl
2.528418,0.0036,-0.0023,0.0051,0.0003,-0.004,0.0003,-25.3313,-34.05,-11.3438,,adl
2.585391,0.0036,-0.0023,0.0051,0.0009,0.0009,0.0003,-25.3313,-34.05,-11.3438,,adl
2.586972,0.0026,-0.0081,-0.002,0.0009,0.0009,0.0003,-25.3313,-34.05,-11.3438,,adl
2.588028,0.0026,-0.0081,-0.002,0.0009,0.0009,0.0003,-25.4438,-33.8813,-11.5688,,adl
2.58956,0.0026,-0.0081,-0.002,0.0009,0.0009,0.0003,-25.4438,-33.8813,-11.5688,,adl
2.643483,0.0026,-0.0081,-0.002,0.0009,0.0009,0.0003,-25.6125,-33.7875,-11.8875,,adl
2.646858,0.0026,-0.0081,-0.002,-0.0001,-0.0027,0.0003,-25.6125,-33.7875,-11.8875,,adl
2.647966,0.0026,-0.0081,-0.002,-0.0001,-0.0027,0.0003,-25.6125,-33.7875,-11.8875,,adl
2.664377,-0.0023,-0.0066,0.0009,-0.0001,-0.0027,0.0003,-25.6125,-33.7875,-11.8875,,adl
2.703815,-0.0023,-0.0066,0.0009,-0.0001,-0.0027,0.0003,-25.575,-33.7125,-11.9438,,adl
2.70542,-0.0023,-0.0066,0.0009,-0.0005,-0.0012,0.0005,-25.575,-33.7125,-11.9438,,adl
2.706527,-0.0023,-0.0066,0.0009,-0.0005,-0.0012,0.0005,-25.575,-33.7125,-11.9438,,adl
2.727198,0.0037,0.0054,0.0021,-0.0005,-0.0012,0.0005,-25.575,-33.7125,-11.9438,,adl
2.765291,0.0037,0.0054,0.0021,-0.0005,-0.0012,0.0005,-25.4625,-33.6375,-11.9062,,adl
2.769444,0.0037,0.0054,0.0021,0.0031,0.0035,0.0003,-25.4625,-33.6375,-11.9062,,adl
2.770473,0.0037,0.0054,0.0021,0.0031,0.0035,0.0003,-25.4625,-33.6375,-11.9062,,adl
2.787997,0.0049,-0.0242,0.0056,0.0031,0.0035,0.0003,-25.4625,-33.6375,-11.9062,,adl
2.824887,0.0049,-0.0242,0.0056,0.0031,0.0035,0.0003,-25.4813,-33.8625,-11.6813,,adl
2.82906,0.0049,-0.0242,0.0056,0.0024,-0.0016,-0.0016,-25.4813,-33.8625,-11.6813,,adl
2.830684,0.0049,-0.0242,0.0056,0.0024,-0.0016,-0.0016,-25.4813,-33.8625,-11.6813,,adl
2.849003,-0.0006,0.0182,-0.0173,0.0024,-0.0016,-0.0016,-25.4813,-33.8625,-11.6813,,adl
2.885301,-0.0006,0.0182,-0.0173,0.0024,-0.0016,-0.0016,-25.4438,-34.0125,-11.625,,adl
2.888506,-0.0006,0.0182,-0.0173,-0.0023,0.0091,-0.0072,-25.4438,-34.0125,-11.625,,adl
2.890546,-0.0006,0.0182,-0.0173,-0.0023,0.0091,-0.0072,-25.4438,-34.0125,-11.625,,adl
2.930356,0.0661,0.0042,-0.0309,-0.0023,0.0091,-0.0072,-25.4438,-34.0125,-11.625,,adl
2.94482,0.0661,0.0042,-0.0309,-0.0023,0.0091,-0.0072,-25.575,-33.9,-11.6625,,adl
2.949544,0.0661,0.0042,-0.0309,-0.0037,0.1611,0.0048,-25.575,-33.9,-11.6625,,adl
2.950337,0.0661,0.0042,-0.0309,-0.0037,0.1611,0.0048,-25.575,-33.9,-11.6625,,adl
2.994771,0.0514,-0.0208,0.009,-0.0037,0.1611,0.0048,-25.575,-33.9,-11.6625,,adl
3.004709,0.0514,-0.0208,0.009,-0.0037,0.1611,0.0048,-25.3688,-33.8438,-11.4938,,adl
3.011039,0.0514,-0.0208,0.009,0.0088,-0.1527,-0.0012,-25.3688,-33.8438,-11.4938,,adl
3.012524,0.0514,-0.0208,0.009,0.0088,-0.1527,-0.0012,-25.3688,-33.8438,-11.4938,,adl
3.051589,-0.1416,0.0008,0.0545,0.0088,-0.1527,-0.0012,-25.3688,-33.8438,-11.4938,,adl
3.06461,-0.1416,0.0008,0.0545,0.0088,-0.1527,-0.0012,-25.1063,-33.7875,-11.3438,,adl
3.071825,-0.1416,0.0008,0.0545,0.0088,-0.1527,-0.0012,-25.1063,-33.7875,-11.3438,,adl
3.073665,-0.1416,0.0008,0.0545,-0.0027,0.0755,0.0009,-25.1063,-33.7875,-11.3438,,adl
3.12354,-0.1416,0.0008,0.0545,-0.0027,0.0755,0.0009,-25.0313,-33.7125,-11.325,,adl
3.131753,-0.1416,0.0008,0.0545,0.002,-0.0306,-0.0012,-25.0313,-33.7125,-11.325,,adl
3.132862,0.0919,0.0075,-0.0526,0.002,-0.0306,-0.0012,-25.0313,-33.7125,-11.325,,adl
3.13363,0.0919,0.0075,-0.0526,0.002,-0.0306,-0.0012,-25.0313,-33.7125,-11.325,,adl
3.184689,0.0919,0.0075,-0.0526,0.002,-0.0306,-0.0012,-25.125,-33.825,-11.2875,,adl
3.193235,0.0919,0.0075,-0.0526,0.002,-0.0306,-0.0012,-25.125,-33.825,-11.2875,,adl
3.194516,0.0919,0.0075,-0.0526,0.0003,0.012,0.0016,-25.125,-33.825,-11.2875,,adl
3.195363,-0.0192,-0.0011,0.0156,0.0003,0.012,0.0016,-25.125,-33.825,-11.2875,,adl
3.246005,-0.0192,-0.0011,0.0156,0.0003,0.012,0.0016,-25.0875,-33.9188,-11.2875,,adl
3.254456,-0.0192,-0.0011,0.0156,0.0013,-0.0101,-0.0008,-25.0875,-33.9188,-11.2875,,adl
3.255291,-0.0118,-0.0048,0.0039,0.0013,-0.0101,-0.0008,-25.0875,-33.9188,-11.2875,,adl
3.255979,-0.0118,-0.0048,0.0039,0.0013,-0.0101,-0.0008,-25.0875,-33.9188,-11.2875,,adl
3.304825,-0.0118,-0.0048,0.0039,0.0013,-0.0101,-0.0008,-25.125,-33.8813,-11.2688,,adl
3.315126,-0.0118,-0.0048,0.0039,0.0013,-0.0101,-0.0008,-25.125,-33.8813,-11.2688,,adl
3.3165,-0.0118,-0.0048,0.0039,-0.0001,0.0084,0.0003,-25.125,-33.8813,-11.2688,,adl
3.317174,0.023,-0.0007,-0.0089,-0.0001,0.0084,0.0003,-25.125,-33.8813,-11.2688,,adl
3.364429,0.023,-0.0007,-0.0089,-0.0001,0.0084,0.0003,-25.05,-33.8625,-11.0625,,adl
3.37577,0.023,-0.0007,-0.0089,0.002,-0.0055,0.0003,-25.05,-33.8625,-11.0625,,adl
3.376726,0.023,-0.0007,-0.0089,0.002,-0.0055,0.0003,-25.05,-33.8625,-11.0625,,adl
3.39677,-0.0156,-0.006,0.0061,0.002,-0.0055,0.0003,-25.05,-33.8625,-11.0625,,adl
3.425708,-0.0156,-0.006,0.0061,0.002,-0.0055,0.0003,-24.9188,-33.8063,-10.95,,adl
3.436238,-0.0156,-0.006,0.0061,0.0013,0.0013,0.0005,-24.9188,-33.8063,-10.95,,adl
3.437258,-0.0156,-0.006,0.0061,0.0013,0.0013,0.0005,-24.9188,-33.8063,-10.95,,adl
3.457167,0.0093,-0.0052,-0.004,0.0013,0.0013,0.0005,-24.9188,-33.8063,-10.95,,adl
3.485048,0.0093,-0.0052,-0.004,0.0013,0.0013,0.0005,-24.9375,-33.6938,-11.1,,adl
3.499517,0.0093,-0.0052,-0.004,-0.0008,0.0009,0.0009,-24.9375,-33.6938,-11.1,,adl
3.50092,0.0093,-0.0052,-0.004,-0.0008,0.0009,0.0009,-24.9375,-33.6938,-11.1,,adl
3.519894,-0.0051,0.0056,-0.0004,-0.0008,0.0009,0.0009,-24.9375,-33.6938,-11.1,,adl
3.545062,-0.0051,0.0056,-0.0004,-0.0008,0.0009,0.0009,-24.9,-33.7875,-10.9688,,adl
3.56209,-0.0051,0.0056,-0.0004,0.0027,-0.008,0.0003,-24.9,-33.7875,-10.9688,,adl
3.563236,-0.0051,0.0056,-0.0004,0.0027,-0.008,0.0003,-24.9,-33.7875,-10.9688,,adl
3.581086,-0.0074,-0.0107,0.0001,0.0027,-0.008,0.0003,-24.9,-33.7875,-10.9688,,adl
3.604432,-0.0074,-0.0107,0.0001,0.0027,-0.008,0.0003,-24.9188,-34.0875,-10.7625,,adl
3.624406,-0.0074,-0.0107,0.0001,0.0003,0.0165,0.0009,-24.9188,-34.0875,-10.7625,,adl
3.626121,-0.0074,-0.0107,0.0001,0.0003,0.0165,0.0009,-24.9188,-34.0875,-10.7625,,adl
3.65992,0.0207,0.0024,-0.0053,0.0003,0.0165,0.0009,-24.9188,-34.0875,-10.7625,,adl
3.66471,0.0207,0.0024,-0.0053,0.0003,0.0165,0.0009,-24.9563,-34.2188,-10.7063,,adl
3.680687,0.0207,0.0024,-0.0053,-0.0001,-0.0037,0.0005,-24.9563,-34.2188,-10.7063,,adl
3.681732,0.0207,0.0024,-0.0053,-0.0001,-0.0037,0.0005,-24.9563,-34.2188,-10.7063,,adl
3.724569,-0.0141,0.0116,0.0068,-0.0001,-0.0037,0.0005,-24.9563,-34.2188,-10.7063,,adl
3.726433,-0.0141,0.0116,0.0068,-0.0001,-0.0037,0.0005,-24.975,-34.2563,-10.6125,,adl
3.741448,-0.0141,0.0116,0.0068,-0.0001,-0.0037,0.0005,-24.975,-34.2563,-10.6125,,adl
3.742671,-0.0141,0.0116,0.0068,0.0009,-0.0029,0.0005,-24.975,-34.2563,-10.6125,,adl
3.783753,0.0101,-0.0139,0.0046,0.0009,-0.0029,0.0005,-24.975,-34.2563,-10.6125,,adl
3.785272,0.0101,-0.0139,0.0046,0.0009,-0.0029,0.0005,-24.9563,-34.3688,-10.5563,,adl
3.80162,0.0101,-0.0139,0.0046,0.0009,-0.0029,0.0005,-24.9563,-34.3688,-10.5563,,adl
3.803106,0.0101,-0.0139,0.0046,0.0005,0.0059,0.0003,-24.9563,-34.3688,-10.5563,,adl
3.84555,0.0101,-0.0139,0.0046,0.0005,0.0059,0.0003,-25.0125,-34.4813,-10.6125,,adl
3.863253,0.0101,-0.0139,0.0046,0.0009,-0.0033,0.0003,-25.0125,-34.4813,-10.6125,,adl
3.864868,0.0101,-0.0139,0.0046,0.0009,-0.0033,0.0003,-25.0125,-34.4813,-10.6125,,adl
3.866765,-0.0008,-0.0077,-0.0099,0.0009,-0.0033,0.0003,-25.0125,-34.4813,-10.6125,,adl
3.908328,-0.0008,-0.0077,-0.0099,0.0009,-0.0033,0.0003,-25.0313,-34.6313,-10.6313,,adl
3.925697,-0.0008,-0.0077,-0.0099,0.0005,-0.0023,-0.0001,-25.0313,-34.6313,-10.6313,,adl
3.926948,-0.0023,-0.0058,0.0021,0.0005,-0.0023,-0.0001,-25.0313,-34.6313,-10.6313,,adl
3.927504,-0.0023,-0.0058,0.0021,0.0005,-0.0023,-0.0001,-25.0313,-34.6313,-10.6313,,adl
3.965784,-0.0023,-0.0058,0.0021,0.0005,-0.0023,-0.0001,-25.0313,-34.7812,-10.6688,,adl
3.987283,-0.0023,-0.0058,0.0021,0.0003,0.0031,0.0003,-25.0313,-34.7812,-10.6688,,adl
3.988659,-0.0023,-0.0058,0.0021,0.0003,0.0031,0.0003,-25.0313,-34.7812,-10.6688,,adl
3.989087,-0.0007,0.0004,-0.0034,0.0003,0.0031,0.0003,-25.0313,-34.7812,-10.6688,,adl
4.02721,-0.0007,0.0004,-0.0034,0.0003,0.0031,0.0003,-25.0688,-34.8375,-10.65,,adl
4.048142,-0.0007,0.0004,-0.0034,0.0009,-0.0029,-0.0005,-25.0688,-34.8375,-10.65,,adl
4.049418,-0.0007,0.0004,-0.0034,0.0009,-0.0029,-0.0005,-25.0688,-34.8375,-10.65,,adl
4.06648,-0.0008,-0.0048,0.0029,0.0009,-0.0029,-0.0005,-25.0688,-34.8375,-10.65,,adl
4.084689,-0.0008,-0.0048,0.0029,0.0009,-0.0029,-0.0005,-24.9563,-34.7625,-10.6875,,adl
4.107237,-0.0008,-0.0048,0.0029,0.0005,0.002,0.0003,-24.9563,-34.7625,-10.6875,,adl
4.109198,-0.0008,-0.0048,0.0029,0.0005,0.002,0.0003,-24.9563,-34.7625,-10.6875,,adl
4.127273,0.0023,-0.0021,-0.0068,0.0005,0.002,0.0003,-24.9563,-34.7625,-10.6875,,adl
4.144548,0.0023,-0.0021,-0.0068,0.0005,0.002,0.0003,-24.7688,-34.725,-10.5938,,adl
4.168985,0.0023,-0.0021,-0.0068,0.0003,-0.0001,0.0003,-24.7688,-34.725,-10.5938,,adl
4.172622,0.0023,-0.0021,-0.0068,0.0003,-0.0001,0.0003,-24.7688,-34.725,-10.5938,,adl
4.188138,0.0008,-0.0012,-0.0021,0.0003,-0.0001,0.0003,-24.7688,-34.725,-10.5938,,adl
4.204284,0.0008,-0.0012,-0.0021,0.0003,-0.0001,0.0003,-24.8438,-34.7625,-10.65,,adl
4.228637,0.0008,-0.0012,-0.0021,0.0005,-0.0012,-0.0001,-24.8438,-34.7625,-10.65,,adl
4.230219,0.0008,-0.0012,-0.0021,0.0005,-0.0012,-0.0001,-24.8438,-34.7625,-10.65,,adl
4.247669,-0.0002,-0.0071,-0.0087,0.0005,-0.0012,-0.0001,-24.8438,-34.7625,-10.65,,adl
4.263011,-0.0002,-0.0071,-0.0087,0.0005,-0.0012,-0.0001,-24.8438,-34.6125,-10.7812,,adl
4.289432,-0.0002,-0.0071,-0.0087,-0.0001,0.0048,-0.0001,-24.8438,-34.6125,-10.7812,,adl
4.290946,-0.0002,-0.0071,-0.0087,-0.0001,0.0048,-0.0001,-24.8438,-34.6125,-10.7812,,adl
4.323946,-0.0002,-0.0071,-0.0087,-0.0001,0.0048,-0.0001,-24.8063,-34.4062,-11.0438,,adl
4.331148,0.0007,-0.0017,0.003,-0.0001,0.0048,-0.0001,-24.8063,-34.4062,-11.0438,,adl
4.349647,0.0007,-0.0017,0.003,0.0003,-0.0044,0.0005,-24.8063,-34.4062,-11.0438,,adl
4.351573,0.0007,-0.0017,0.003,0.0003,-0.0044,0.0005,-24.8063,-34.4062,-11.0438,,adl
4.384276,0.0007,-0.0017,0.003,0.0003,-0.0044,0.0005,-24.8813,-34.2563,-11.1938,,adl
4.390228,-0.0085,0.0078,0.0021,0.0003,-0.0044,0.0005,-24.8813,-34.2563,-11.1938,,adl
4.411529,-0.0085,0.0078,0.0021,0.0024,0.0013,0.0003,-24.8813,-34.2563,-11.1938,,adl
4.413523,-0.0085,0.0078,0.0021,0.0024,0.0013,0.0003,-24.8813,-34.2563,-11.1938,,adl
4.444038,-0.0085,0.0078,0.0021,0.0024,0.0013,0.0003,-24.975,-34.2563,-11.1938,,adl
4.450552,0.0113,-0.0278,0.0025,0.0024,0.0013,0.0003,-24.975,-34.2563,-11.1938,,adl
4.472307,0.0113,-0.0278,0.0025,-0.0001,0.0056,0.0003,-24.975,-34.2563,-11.1938,,adl
4.474069,0.0113,-0.0278,0.0025,-0.0001,0.0056,0.0003,-24.975,-34.2563,-11.1938,,adl
4.5048,0.0113,-0.0278,0.0025,-0.0001,0.0056,0.0003,-25.0125,-34.1813,-11.2875,,adl
4.514901,-0.005,0.0092,-0.0091,-0.0001,0.0056,0.0003,-25.0125,-34.1813,-11.2875,,adl
4.532952,-0.005,0.0092,-0.0091,-0.0012,-0.0069,0.0005,-25.0125,-34.1813,-11.2875,,adl
4.535104,-0.005,0.0092,-0.0091,-0.0012,-0.0069,0.0005,-25.0125,-34.1813,-11.2875,,adl
4.564316,-0.005,0.0092,-0.0091,-0.0012,-0.0069,0.0005,-25.1063,-34.1063,-11.3625,,adl
4.59493,-0.005,0.0092,-0.0091,0.0003,0.0035,0.0005,-25.1063,-34.1063,-11.3625,,adl
4.596952,-0.005,0.0092,-0.0091,0.0003,0.0035,0.0005,-25.1063,-34.1063,-11.3625,,adl
4.598007,0.0001,0.0008,-0.0048,0.0003,0.0035,0.0005,-25.1063,-34.1063,-11.3625,,adl
4.624277,0.0001,0.0008,-0.0048,0.0003,0.0035,0.0005,-25.3688,-34.0125,-11.475,,adl
4.65528,0.0001,0.0008,-0.0048,0.0009,0.0037,0.0003,-25.3688,-34.0125,-11.475,,adl
4.657429,0.0001,0.0008,-0.0048,0.0009,0.0037,0.0003,-25.3688,-34.0125,-11.475,,adl
4.658621,0.0215,-0.0155,0.0046,0.0009,0.0037,0.0003,-25.3688,-34.0125,-11.475,,adl
4.685423,0.0215,-0.0155,0.0046,0.0009,0.0037,0.0003,-25.35,-33.8625,-11.4938,,adl
4.718922,0.0215,-0.0155,0.0046,0.0005,-0.004,0.0005,-25.35,-33.8625,-11.4938,,adl
4.721716,0.0215,-0.0155,0.0046,0.0005,-0.004,0.0005,-25.35,-33.8625,-11.4938,,adl
4.724184,-0.0042,0.0025,0.0012,0.0005,-0.004,0.0005,-25.35,-33.8625,-11.4938,,adl
4.744362,-0.0042,0.0025,0.0012,0.0005,-0.004,0.0005,-25.3688,-33.9375,-11.325,,adl
4.777601,-0.0042,0.0025,0.0012,0.0005,-0.004,0.0005,-25.3688,-33.9375,-11.325,,adl
4.779208,-0.0042,0.0025,0.0012,0.0003,0.0024,-0.0001,-25.3688,-33.9375,-11.325,,adl
4.797229,0.0071,0.0048,-0.0026,0.0003,0.0024,-0.0001,-25.3688,-33.9375,-11.325,,adl
4.804987,0.0071,0.0048,-0.0026,0.0003,0.0024,-0.0001,-25.3875,-34.05,-11.1375,,adl
4.846568,0.0071,0.0048,-0.0026,0.0003,0.0024,-0.0001,-25.3875,-34.05,-11.1375,,adl
4.849693,0.0071,0.0048,-0.0026,0.0003,0.0013,0.0003,-25.3875,-34.05,-11.1375,,adl
4.859298,-0.0003,0.0022,0.0047,0.0003,0.0013,0.0003,-25.3875,-34.05,-11.1375,,adl
4.864889,-0.0003,0.0022,0.0047,0.0003,0.0013,0.0003,-25.4063,-34.1063,-11.0063,,adl
4.900423,-0.0003,0.0022,0.0047,0.0005,-0.0029,0.0005,-25.4063,-34.1063,-11.0063,,adl
4.903206,-0.0003,0.0022,0.0047,0.0005,-0.0029,0.0005,-25.4063,-34.1063,-11.0063,,adl
4.918235,-0.0085,-0.0003,-0.0012,0.0005,-0.0029,0.0005,-25.4063,-34.1063,-11.0063,,adl
4.92252,-0.0085,-0.0003,-0.0012,0.0005,-0.0029,0.0005,-25.35,-34.0875,-10.9125,,adl
4.962999,-0.0085,-0.0003,-0.0012,0.0005,0.0035,-0.0001,-25.35,-34.0875,-10.9125,,adl
4.965557,-0.0085,-0.0003,-0.0012,0.0005,0.0035,-0.0001,-25.35,-34.0875,-10.9125,,adl
4.980641,0.0125,0.0003,-0.0065,0.0005,0.0035,-0.0001,-25.35,-34.0875,-10.9125,,adl
4.983428,0.0125,0.0003,-0.0065,0.0005,0.0035,-0.0001,-25.4063,-34.2375,-10.7812,,adl
5.022384,0.0125,0.0003,-0.0065,0.0003,-0.0005,-0.0001,-25.4063,-34.2375,-10.7812,,adl
5.025228,0.0125,0.0003,-0.0065,0.0003,-0.0005,-0.0001,-25.4063,-34.2375,-10.7812,,adl
5.04448,0.0125,0.0003,-0.0065,0.0003,-0.0005,-0.0001,-25.3688,-34.3313,-10.5938,,adl
5.061791,-0.0014,0.0001,0.0008,0.0003,-0.0005,-0.0001,-25.3688,-34.3313,-10.5938,,adl
5.081352,-0.0014,0.0001,0.0008,0.0005,-0.0012,0.0003,-25.3688,-34.3313,-10.5938,,adl
5.083599,-0.0014,0.0001,0.0008,0.0005,-0.0012,0.0003,-25.3688,-34.3313,-10.5938,,adl
5.104455,-0.0014,0.0001,0.0008,0.0005,-0.0012,0.0003,-25.2563,-34.4062,-10.5188,,adl
5.122285,0.0035,-0.0071,0.0015,0.0005,-0.0012,0.0003,-25.2563,-34.4062,-10.5188,,adl
5.142296,0.0035,-0.0071,0.0015,0.0005,0.002,0.0003,-25.2563,-34.4062,-10.5188,,adl
5.14493,0.0035,-0.0071,0.0015,0.0005,0.002,0.0003,-25.2563,-34.4062,-10.5188,,adl
5.164075,0.0035,-0.0071,0.0015,0.0005,0.002,0.0003,-25.2,-34.4813,-10.5,,adl
5.183056,0.0041,-0.0032,-0.0014,0.0005,0.002,0.0003,-25.2,-34.4813,-10.5,,adl
5.204616,0.0041,-0.0032,-0.0014,0.0003,-0.0001,-0.0001,-25.2,-34.4813,-10.5,,adl
5.206948,0.0041,-0.0032,-0.0014,0.0003,-0.0001,-0.0001,-25.2,-34.4813,-10.5,,adl
5.223962,0.0041,-0.0032,-0.0014,0.0003,-0.0001,-0.0001,-25.1063,-34.575,-10.5563,,adl
5.266826,0.0041,-0.0032,-0.0014,0.002,-0.0055,0.0003,-25.1063,-34.575,-10.5563,,adl
5.270192,0.0041,-0.0032,-0.0014,0.002,-0.0055,0.0003,-25.1063,-34.575,-10.5563,,adl
5.272013,0.0023,0.008,-0.0036,0.002,-0.0055,0.0003,-25.1063,-34.575,-10.5563,,adl
5.285606,0.0023,0.008,-0.0036,0.002,-0.0055,0.0003,-25.125,-34.6125,-10.6313,,adl
5.325444,0.0023,0.008,-0.0036,0.002,-0.0055,0.0003,-25.125,-34.6125,-10.6313,,adl
5.328208,0.0023,0.008,-0.0036,0.0009,0.0073,-0.0005,-25.125,-34.6125,-10.6313,,adl
5.329175,-0.0028,-0.0235,0.0021,0.0009,0.0073,-0.0005,-25.125,-34.6125,-10.6313,,adl
5.346546,-0.0028,-0.0235,0.0021,0.0009,0.0073,-0.0005,-25.0688,-34.5938,-10.6688,,adl
5.386214,-0.0028,-0.0235,0.0021,-0.0005,-0.004,0.0009,-25.0688,-34.5938,-10.6688,,adl
5.389443,-0.0028,-0.0235,0.0021,-0.0005,-0.004,0.0009,-25.0688,-34.5938,-10.6688,,adl
5.391553,0.0113,0.0138,-0.0032,-0.0005,-0.004,0.0009,-25.0688,-34.5938,-10.6688,,adl
5.404574,0.0113,0.0138,-0.0032,-0.0005,-0.004,0.0009,-25.125,-34.65,-10.6875,,adl
5.446908,0.0113,0.0138,-0.0032,-0.0001,-0.0005,0.0009,-25.125,-34.65,-10.6875,,adl
5.44875,0.0113,0.0138,-0.0032,-0.0001,-0.0005,0.0009,-25.125,-34.65,-10.6875,,adl
5.449773,-0.0021,0.0059,-0.0029,-0.0001,-0.0005,0.0009,-25.125,-34.65,-10.6875,,adl
5.463941,-0.0021,0.0059,-0.0029,-0.0001,-0.0005,0.0009,-25.1813,-34.575,-10.6688,,adl
5.508372,-0.0021,0.0059,-0.0029,0.0009,0.0095,0.0009,-25.1813,-34.575,-10.6688,,adl
5.511541,-0.0021,0.0059,-0.0029,0.0009,0.0095,0.0009,-25.1813,-34.575,-10.6688,,adl
5.523576,-0.0021,0.0059,-0.0029,0.0009,0.0095,0.0009,-25.2938,-34.5375,-10.7625,,adl
5.527954,0.0118,-0.0218,-0.0051,0.0009,0.0095,0.0009,-25.2938,-34.5375,-10.7625,,adl
5.569004,0.0118,-0.0218,-0.0051,0.0016,-0.0083,-0.0005,-25.2938,-34.5375,-10.7625,,adl
5.57201,0.0118,-0.0218,-0.0051,0.0016,-0.0083,-0.0005,-25.2938,-34.5375,-10.7625,,adl
5.585297,0.0118,-0.0218,-0.0051,0.0016,-0.0083,-0.0005,-25.2563,-34.5,-10.8188,,adl
5.58812,-0.0142,-0.0038,0.0041,0.0016,-0.0083,-0.0005,-25.2563,-34.5,-10.8188,,adl
5.630092,-0.0142,-0.0038,0.0041,0.0003,-0.0012,0.0005,-25.2563,-34.5,-10.8188,,adl
5.633062,-0.0142,-0.0038,0.0041,0.0003,-0.0012,0.0005,-25.2563,-34.5,-10.8188,,adl
5.646287,-0.0142,-0.0038,0.0041,0.0003,-0.0012,0.0005,-25.3688,-34.5563,-10.7812,,adl
5.648295,-0.0057,0.0002,-0.0003,0.0003,-0.0012,0.0005,-25.3688,-34.5563,-10.7812,,adl
5.692986,-0.0057,0.0002,-0.0003,-0.0005,0.0024,-0.0005,-25.3688,-34.5563,-10.7812,,adl
5.695829,-0.0057,0.0002,-0.0003,-0.0005,0.0024,-0.0005,-25.3688,-34.5563,-10.7812,,adl
5.704784,-0.0057,0.0002,-0.0003,-0.0005,0.0024,-0.0005,-25.4625,-34.4625,-10.65,,adl
5.732537,0.0092,-0.0054,-0.0025,-0.0005,0.0024,-0.0005,-25.4625,-34.4625,-10.65,,adl
5.752231,0.0092,-0.0054,-0.0025,0.0009,-0.0019,0.0003,-25.4625,-34.4625,-10.65,,adl
5.754231,0.0092,-0.0054,-0.0025,0.0009,-0.0019,0.0003,-25.4625,-34.4625,-10.65,,adl
5.76368,0.0092,-0.0054,-0.0025,0.0009,-0.0019,0.0003,-25.4625,-34.4625,-10.4438,,adl
5.793501,-0.0093,-0.0038,0.0101,0.0009,-0.0019,0.0003,-25.4625,-34.4625,-10.4438,,adl
5.812071,-0.0093,-0.0038,0.0101,0.0005,0.0027,0.0003,-25.4625,-34.4625,-10.4438,,adl
5.814316,-0.0093,-0.0038,0.0101,0.0005,0.0027,0.0003,-25.4625,-34.4625,-10.4438,,adl
5.826963,-0.0093,-0.0038,0.0101,0.0005,0.0027,0.0003,-25.4625,-34.4438,-10.4625,,adl
5.85438,0.0088,-0.0021,-0.0012,0.0005,0.0027,0.0003,-25.4625,-34.4438,-10.4625,,adl
5.873136,0.0088,-0.0021,-0.0012,-0.0005,0.0013,0.0005,-25.4625,-34.4438,-10.4625,,adl
5.876546,0.0088,-0.0021,-0.0012,-0.0005,0.0013,0.0005,-25.4625,-34.4438,-10.4625,,adl
5.88459,0.0088,-0.0021,-0.0012,-0.0005,0.0013,0.0005,-25.4063,-34.4062,-10.35,,adl
5.915976,0.0047,-0.003,0.0019,-0.0005,0.0013,0.0005,-25.4063,-34.4062,-10.35,,adl
5.935614,0.0047,-0.003,0.0019,0.0005,-0.0001,0.0003,-25.4063,-34.4062,-10.35,,adl
5.938346,0.0047,-0.003,0.0019,0.0005,-0.0001,0.0003,-25.4063,-34.4062,-10.35,,adl
5.94424,0.0047,-0.003,0.0019,0.0005,-0.0001,0.0003,-25.2563,-34.3688,-10.3688,,adl
5.995452,0.0047,-0.003,0.0019,0.0005,-0.0001,0.0003,-25.2563,-34.3688,-10.3688,,adl
5.998532,0.0047,-0.003,0.0019,0.0009,-0.0027,0.0005,-25.2563,-34.3688,-10.3688,,adl
6.000607,-0.0051,-0.0004,-0.0064,0.0009,-0.0027,0.0005,-25.2563,-34.3688,-10.3688,,adl
6.004651,-0.0051,-0.0004,-0.0064,0.0009,-0.0027,0.0005,-25.0875,-34.4438,-10.35,,adl
6.057134,-0.0051,-0.0004,-0.0064,0.0003,0.0013,0.0003,-25.0875,-34.4438,-10.35,,adl
6.061285,-0.0051,-0.0004,-0.0064,0.0003,0.0013,0.0003,-25.0875,-34.4438,-10.35,,adl
6.063571,0.004,-0.006,0.0074,0.0003,0.0013,0.0003,-25.0875,-34.4438,-10.35,,adl
6.066105,0.004,-0.006,0.0074,0.0003,0.0013,0.0003,-25.125,-34.4625,-10.2938,,adl
6.118009,0.004,-0.006,0.0074,0.0003,0.0013,0.0003,-25.125,-34.4625,-10.2938,,adl
6.123592,0.004,-0.006,0.0074,-0.0005,-0.0016,0.0005,-25.125,-34.4625,-10.2938,,adl
6.125686,0.0045,-0.0016,-0.0034,-0.0005,-0.0016,0.0005,-25.125,-34.4625,-10.2938,,adl
6.127508,0.0045,-0.0016,-0.0034,-0.0005,-0.0016,0.0005,-25.0313,-34.4438,-10.2375,,adl
6.178478,0.0045,-0.0016,-0.0034,0.002,-0.0069,0.0009,-25.0313,-34.4438,-10.2375,,adl
6.181559,0.0045,-0.0016,-0.0034,0.002,-0.0069,0.0009,-25.0313,-34.4438,-10.2375,,adl
6.186132,0.0045,-0.0016,-0.0034,0.002,-0.0069,0.0009,-25.2,-34.4813,-10.425,,adl
6.197025,-0.0058,0.0103,-0.0032,0.002,-0.0069,0.0009,-25.2,-34.4813,-10.425,,adl
6.240705,-0.0058,0.0103,-0.0032,-0.0001,0.0152,0.0003,-25.2,-34.4813,-10.425,,adl
6.243338,-0.0058,0.0103,-0.0032,-0.0001,0.0152,0.0003,-25.2,-34.4813,-10.425,,adl
6.244337,-0.0058,0.0103,-0.0032,-0.0001,0.0152,0.0003,-25.2,-34.4438,-10.5938,,adl
6.258236,0.0186,-0.0221,0.0087,-0.0001,0.0152,0.0003,-25.2,-34.4438,-10.5938,,adl
6.301539,0.0186,-0.0221,0.0087,-0.0012,-0.0083,-0.0005,-25.2,-34.4438,-10.5938,,adl
6.304651,0.0186,-0.0221,0.0087,-0.0012,-0.0083,-0.0005,-25.2,-34.4438,-10.5938,,adl
6.306472,0.0186,-0.0221,0.0087,-0.0012,-0.0083,-0.0005,-25.2,-34.4625,-10.5375,,adl
6.319143,-0.0082,0.0177,0.0022,-0.0012,-0.0083,-0.0005,-25.2,-34.4625,-10.5375,,adl
6.362472,-0.0082,0.0177,0.0022,-0.0001,0.0005,0.0009,-25.2,-34.4625,-10.5375,,adl
6.366539,-0.0082,0.0177,0.0022,-0.0001,0.0005,0.0009,-25.2,-34.4625,-10.5375,,adl
6.368369,-0.0082,0.0177,0.0022,-0.0001,0.0005,0.0009,-25.2375,-34.4625,-10.65,,adl
6.380272,-0.0036,-0.0058,-0.0023,-0.0001,0.0005,0.0009,-25.2375,-34.4625,-10.65,,adl
6.424991,-0.0036,-0.0058,-0.0023,0.0005,0.012,0.0005,-25.2375,-34.4625,-10.65,,adl
6.426897,-0.0036,-0.0058,-0.0023,0.0005,0.012,0.0005,-25.2375,-34.4625,-10.65,,adl
6.42774,-0.0036,-0.0058,-0.0023,0.0005,0.012,0.0005,-25.2563,-34.4813,-10.725,,adl
6.461909,0.0166,-0.0213,-0.0003,0.0005,0.012,0.0005,-25.2563,-34.4813,-10.725,,adl
6.482427,0.0166,-0.0213,-0.0003,0.0013,-0.0104,-0.0001,-25.2563,-34.4813,-10.725,,adl
6.484312,0.0166,-0.0213,-0.0003,0.0013,-0.0104,-0.0001,-25.2563,-34.4813,-10.725,,adl
6.485411,0.0166,-0.0213,-0.0003,0.0013,-0.0104,-0.0001,-25.4063,-34.4438,-10.725,,adl
6.52242,-0.0199,-0.0001,0.0059,0.0013,-0.0104,-0.0001,-25.4063,-34.4438,-10.725,,adl
6.544654,-0.0199,-0.0001,0.0059,-0.0005,-0.0005,0.0003,-25.4063,-34.4438,-10.725,,adl
6.548185,-0.0199,-0.0001,0.0059,-0.0005,-0.0005,0.0003,-25.4063,-34.4438,-10.725,,adl
6.54969,-0.0199,-0.0001,0.0059,-0.0005,-0.0005,0.0003,-25.3875,-34.3688,-10.8375,,adl
6.586548,0.0005,0.0086,-0.0104,-0.0005,-0.0005,0.0003,-25.3875,-34.3688,-10.8375,,adl
6.604176,0.0005,0.0086,-0.0104,0.0005,0.0024,0.0003,-25.3875,-34.3688,-10.8375,,adl
6.606183,0.0005,0.0086,-0.0104,0.0005,0.0024,0.0003,-25.2938,-34.3313,-10.8,,adl
6.607532,0.0005,0.0086,-0.0104,0.0005,0.0024,0.0003,-25.2938,-34.3313,-10.8,,adl
6.66521,0.0005,0.0086,-0.0104,0.0005,0.0024,0.0003,-25.0688,-34.275,-10.7812,,adl
6.669484,0.0005,0.0086,-0.0104,0.0005,0.0024,0.0003,-25.0688,-34.275,-10.7812,,adl
6.671548,-0.003,-0.005,0.0016,0.0005,0.0024,0.0003,-25.0688,-34.275,-10.7812,,adl
6.673544,-0.003,-0.005,0.0016,0.0009,-0.0044,0.0003,-25.0688,-34.275,-10.7812,,adl
6.728429,-0.003,-0.005,0.0016,0.0009,-0.0044,0.0003,-24.975,-34.275,-10.7812,,adl
6.730303,-0.003,-0.005,0.0016,-0.0001,0.0024,-0.0001,-24.975,-34.275,-10.7812,,adl
6.731166,-0.003,-0.005,0.0016,-0.0001,0.0024,-0.0001,-24.975,-34.275,-10.7812,,adl
6.731982,-0.0072,-0.004,0.0036,-0.0001,0.0024,-0.0001,-24.975,-34.275,-10.7812,,adl
6.78827,-0.0072,-0.004,0.0036,-0.0001,0.0024,-0.0001,-24.8813,-34.2938,-10.6313,,adl
6.791469,-0.0072,-0.004,0.0036,-0.0001,-0.0001,0.0005,-24.8813,-34.2938,-10.6313,,adl
6.793353,-0.0072,-0.004,0.0036,-0.0001,-0.0001,0.0005,-24.8813,-34.2938,-10.6313,,adl
6.795866,0.0087,0.0017,-0.0022,-0.0001,-0.0001,0.0005,-24.8813,-34.2938,-10.6313,,adl
6.844629,0.0087,0.0017,-0.0022,-0.0001,-0.0001,0.0005,-24.8438,-34.2938,-10.7063,,adl
6.847859,0.0087,0.0017,-0.0022,0.0005,0.0009,0.0003,-24.8438,-34.2938,-10.7063,,adl
6.849622,0.0087,0.0017,-0.0022,0.0005,0.0009,0.0003,-24.8438,-34.2938,-10.7063,,adl
6.851331,-0.007,-0.0067,0.0068,0.0005,0.0009,0.0003,-24.8438,-34.2938,-10.7063,,adl
6.906324,-0.007,-0.0067,0.0068,0.0005,0.0009,0.0003,-24.8063,-34.2563,-10.8188,,adl
6.910076,-0.007,-0.0067,0.0068,0.0003,-0.0012,-0.0005,-24.8063,-34.2563,-10.8188,,adl
6.91203,-0.007,-0.0067,0.0068,0.0003,-0.0012,-0.0005,-24.8063,-34.2563,-10.8188,,adl
6.927732,0.0026,-0.0093,-0.0014,0.0003,-0.0012,-0.0005,-24.8063,-34.2563,-10.8188,,adl
6.967659,0.0026,-0.0093,-0.0014,0.0003,-0.0012,-0.0005,-24.7313,-34.2188,-10.8188,,adl
6.971613,0.0026,-0.0093,-0.0014,0.0003,-0.0023,0.0005,-24.7313,-34.2188,-10.8188,,adl
6.97324,0.0026,-0.0093,-0.0014,0.0003,-0.0023,0.0005,-24.7313,-34.2188,-10.8188,,adl
6.989167,0.0004,0.0016,0.0017,0.0003,-0.0023,0.0005,-24.7313,-34.2188,-10.8188,,adl
7.023662,0.0004,0.0016,0.0017,0.0003,-0.0023,0.0005,-24.7313,-34.3125,-10.7438,,adl
7.028902,0.0004,0.0016,0.0017,-0.0005,0.0035,-0.0001,-24.7313,-34.3125,-10.7438,,adl
7.029316,0.0004,0.0016,0.0017,-0.0005,0.0035,-0.0001,-24.7313,-34.3125,-10.7438,,adl
7.050182,0.0077,0.004,0.006,-0.0005,0.0035,-0.0001,-24.7313,-34.3125,-10.7438,,adl
7.087149,0.0077,0.004,0.006,-0.0005,0.0035,-0.0001,-24.9188,-34.4062,-10.7625,,adl
7.089511,0.0077,0.004,0.006,0.0024,-0.0019,0.0003,-24.9188,-34.4062,-10.7625,,adl
7.09126,0.0077,0.004,0.006,0.0024,-0.0019,0.0003,-24.9188,-34.4062,-10.7625,,adl
7.133334,0.0011,-0.0215,0.0073,0.0024,-0.0019,0.0003,-24.9188,-34.4062,-10.7625,,adl
7.14426,0.0011,-0.0215,0.0073,0.0024,-0.0019,0.0003,-25.1063,-34.35,-10.7438,,adl
7.151348,0.0011,-0.0215,0.0073,-0.0012,0.0024,0.0005,-25.1063,-34.35,-10.7438,,adl
7.154554,0.0011,-0.0215,0.0073,-0.0012,0.0024,0.0005,-25.1063,-34.35,-10.7438,,adl
7.192811,0.0009,0.0174,-0.0125,-0.0012,0.0024,0.0005,-25.1063,-34.35,-10.7438,,adl
7.204291,0.0009,0.0174,-0.0125,-0.0012,0.0024,0.0005,-25.1063,-34.2,-10.8563,,adl
7.21274,0.0009,0.0174,-0.0125,-0.0008,-0.0019,0.0013,-25.1063,-34.2,-10.8563,,adl
7.213742,0.0009,0.0174,-0.0125,-0.0008,-0.0019,0.0013,-25.1063,-34.2,-10.8563,,adl
7.253421,-0.008,0.0101,0.0032,-0.0008,-0.0019,0.0013,-25.1063,-34.2,-10.8563,,adl
7.265512,-0.008,0.0101,0.0032,-0.0008,-0.0019,0.0013,-25.1625,-34.2188,-10.9875,,adl
7.273598,-0.008,0.0101,0.0032,0.0009,-0.0001,-0.0001,-25.1625,-34.2188,-10.9875,,adl
7.275332,-0.008,0.0101,0.0032,0.0009,-0.0001,-0.0001,-25.1625,-34.2188,-10.9875,,adl
7.315565,0.0185,-0.0242,0.0048,0.0009,-0.0001,-0.0001,-25.1625,-34.2188,-10.9875,,adl
7.325132,0.0185,-0.0242,0.0048,0.0009,-0.0001,-0.0001,-25.1438,-34.275,-10.9125,,adl
7.334712,0.0185,-0.0242,0.0048,0.0005,0.0052,0.0003,-25.1438,-34.275,-10.9125,,adl
7.336417,0.0185,-0.0242,0.0048,0.0005,0.0052,0.0003,-25.1438,-34.275,-10.9125,,adl
7.385132,0.0185,-0.0242,0.0048,0.0005,0.0052,0.0003,-25.2563,-34.3313,-10.8,,adl
7.395532,0.0185,-0.0242,0.0048,0.0005,0.0052,0.0003,-25.2563,-34.3313,-10.8,,adl
7.397027,0.0185,-0.0242,0.0048,0.0013,-0.0055,-0.0001,-25.2563,-34.3313,-10.8,,adl
7.397774,-0.0115,-0.0033,0.0035,0.0013,-0.0055,-0.0001,-25.2563,-34.3313,-10.8,,adl
7.445332,-0.0115,-0.0033,0.0035,0.0013,-0.0055,-0.0001,-25.2938,-34.3875,-10.875,,adl
7.45775,-0.0115,-0.0033,0.0035,0.0003,0.0027,-0.0001,-25.2938,-34.3875,-10.875,,adl
7.459867,-0.0115,-0.0033,0.0035,0.0003,0.0027,-0.0001,-25.2938,-34.3875,-10.875,,adl
7.461517,0.0064,0.0047,0.0032,0.0003,0.0027,-0.0001,-25.2938,-34.3875,-10.875,,adl
7.506043,0.0064,0.0047,0.0032,0.0003,0.0027,-0.0001,-25.2375,-34.3125,-10.875,,adl
7.517201,0.0064,0.0047,0.0032,0.0013,0.0009,-0.0001,-25.2375,-34.3125,-10.875,,adl
7.519909,0.0055,-0.0025,0.0047,0.0013,0.0009,-0.0001,-25.2375,-34.3125,-10.875,,adl
7.521529,0.0055,-0.0025,0.0047,0.0013,0.0009,-0.0001,-25.2375,-34.3125,-10.875,,adl
7.565718,0.0055,-0.0025,0.0047,0.0013,0.0009,-0.0001,-25.1438,-34.2563,-10.875,,adl
7.579014,0.0055,-0.0025,0.0047,0.0003,0.0003,0.0003,-25.1438,-34.2563,-10.875,,adl
7.580147,0.0055,-0.0025,0.0047,0.0003,0.0003,0.0003,-25.1438,-34.2563,-10.875,,adl
7.59804,-0.0091,-0.0041,-0.0003,0.0003,0.0003,0.0003,-25.1438,-34.2563,-10.875,,adl
7.625729,-0.0091,-0.0041,-0.0003,0.0003,0.0003,0.0003,-25.0125,-34.3875,-10.9313,,adl
7.638858,-0.0091,-0.0041,-0.0003,0.0003,0.0056,0.0003,-25.0125,-34.3875,-10.9313,,adl
7.640199,-0.0091,-0.0041,-0.0003,0.0003,0.0056,0.0003,-25.0125,-34.3875,-10.9313,,adl
7.662084,0.0097,-0.0008,-0.0095,0.0003,0.0056,0.0003,-25.0125,-34.3875,-10.9313,,adl
7.685471,0.0097,-0.0008,-0.0095,0.0003,0.0056,0.0003,-25.1438,-34.6313,-10.8563,,adl
7.699967,0.0097,-0.0008,-0.0095,0.0016,-0.0051,-0.0005,-25.1438,-34.6313,-10.8563,,adl
7.701378,0.0097,-0.0008,-0.0095,0.0016,-0.0051,-0.0005,-25.1438,-34.6313,-10.8563,,adl
7.720441,0.001,-0.0004,0.0014,0.0016,-0.0051,-0.0005,-25.1438,-34.6313,-10.8563,,adl
7.744138,0.001,-0.0004,0.0014,0.0016,-0.0051,-0.0005,-25.0875,-34.65,-10.8938,,adl
7.760251,0.001,-0.0004,0.0014,0.0016,-0.0051,-0.0005,-25.0875,-34.65,-10.8938,,adl
7.762339,0.001,-0.0004,0.0014,0.0003,0.0013,-0.0005,-25.0875,-34.65,-10.8938,,adl
7.780521,0.0063,-0.0006,0.0014,0.0003,0.0013,-0.0005,-25.0875,-34.65,-10.8938,,adl
7.804515,0.0063,-0.0006,0.0014,0.0003,0.0013,-0.0005,-25.2,-34.5375,-11.2125,,adl
7.822401,0.0063,-0.0006,0.0014,0.0005,-0.0001,0.0003,-25.2,-34.5375,-11.2125,,adl
7.824982,0.0063,-0.0006,0.0014,0.0005,-0.0001,0.0003,-25.2,-34.5375,-11.2125,,adl
7.864042,-0.0001,-0.0033,0.0056,0.0005,-0.0001,0.0003,-25.2,-34.5375,-11.2125,,adl
7.868013,-0.0001,-0.0033,0.0056,0.0005,-0.0001,0.0003,-25.1063,-34.4813,-11.2875,,adl
7.883228,-0.0001,-0.0033,0.0056,0.0005,-0.0027,0.0003,-25.1063,-34.4813,-11.2875,,adl
7.884528,-0.0001,-0.0033,0.0056,0.0005,-0.0027,0.0003,-25.1063,-34.4813,-11.2875,,adl
7.923815,-0.0033,0.0078,-0.0039,0.0005,-0.0027,0.0003,-25.1063,-34.4813,-11.2875,,adl
7.925137,-0.0033,0.0078,-0.0039,0.0005,-0.0027,0.0003,-25.05,-34.3688,-11.175,,adl
7.946322,-0.0033,0.0078,-0.0039,0.0024,-0.0005,0.0005,-25.05,-34.3688,-11.175,,adl
7.949457,-0.0033,0.0078,-0.0039,0.0024,-0.0005,0.0005,-25.05,-34.3688,-11.175,,adl
7.987923,0.008,-0.0243,0.0008,0.0024,-0.0005,0.0005,-25.05,-34.3688,-11.175,,adl
7.990578,0.008,-0.0243,0.0008,0.0024,-0.0005,0.0005,-25.1063,-34.4062,-11.1375,,adl
8.003996,0.008,-0.0243,0.0008,0.0005,0.0059,0.0003,-25.1063,-34.4062,-11.1375,,adl
8.005535,0.008,-0.0243,0.0008,0.0005,0.0059,0.0003,-25.1063,-34.4062,-11.1375,,adl
8.04481,0.008,-0.0243,0.0008,0.0005,0.0059,0.0003,-25.0688,-34.425,-11.1938,,adl
8.067427,0.008,-0.0243,0.0008,0.0005,0.0059,0.0003,-25.0688,-34.425,-11.1938,,adl
8.07101,0.0008,0.0081,-0.0031,0.0005,0.0059,0.0003,-25.0688,-34.425,-11.1938,,adl
8.072996,0.0008,0.0081,-0.0031,-0.0012,-0.0029,0.0003,-25.0688,-34.425,-11.1938,,adl
8.105172,0.0008,0.0081,-0.0031,-0.0012,-0.0029,0.0003,-25.0875,-34.5375,-11.1375,,adl
8.127963,-0.0027,0.0074,-0.0021,-0.0012,-0.0029,0.0003,-25.0875,-34.5375,-11.1375,,adl
8.130769,-0.0027,0.0074,-0.0021,0.0005,0.0024,0.0009,-25.0875,-34.5375,-11.1375,,adl
8.132195,-0.0027,0.0074,-0.0021,0.0005,0.0024,0.0009,-25.0875,-34.5375,-11.1375,,adl
8.165067,-0.0027,0.0074,-0.0021,0.0005,0.0024,0.0009,-25.0688,-34.4813,-11.0063,,adl
8.188025,-0.0027,0.0074,-0.0021,0.0013,0.0095,0.0005,-25.0688,-34.4813,-11.0063,,adl
8.19027,0.0104,-0.016,0.0039,0.0013,0.0095,0.0005,-25.0688,-34.4813,-11.0063,,adl
8.191315,0.0104,-0.016,0.0039,0.0013,0.0095,0.0005,-25.0688,-34.4813,-11.0063,,adl
8.226341,0.0104,-0.016,0.0039,0.0013,0.0095,0.0005,-25.0313,-34.4062,-10.9875,,adl
8.250478,0.0104,-0.016,0.0039,0.0013,-0.0051,-0.0001,-25.0313,-34.4062,-10.9875,,adl
8.253025,0.0104,-0.016,0.0039,0.0013,-0.0051,-0.0001,-25.0313,-34.4062,-10.9875,,adl
8.254928,-0.01,-0.0043,0.0054,0.0013,-0.0051,-0.0001,-25.0313,-34.4062,-10.9875,,adl
8.286817,-0.01,-0.0043,0.0054,0.0013,-0.0051,-0.0001,-24.9,-34.4813,-10.575,,adl
8.311036,-0.01,-0.0043,0.0054,-0.0001,-0.0027,0.0003,-24.9,-34.4813,-10.575,,adl
8.313082,-0.01,-0.0043,0.0054,-0.0001,-0.0027,0.0003,-24.9,-34.4813,-10.575,,adl
8.329044,0.0001,0.0033,-0.0047,-0.0001,-0.0027,0.0003,-24.9,-34.4813,-10.575,,adl
8.346019,0.0001,0.0033,-0.0047,-0.0001,-0.0027,0.0003,-25.0688,-34.575,-10.5938,,adl
8.370102,0.0001,0.0033,-0.0047,0.0009,0.0031,-0.0001,-25.0688,-34.575,-10.5938,,adl
8.372555,0.0001,0.0033,-0.0047,0.0009,0.0031,-0.0001,-25.0688,-34.575,-10.5938,,adl
8.39462,0.0087,-0.0053,0.0042,0.0009,0.0031,-0.0001,-25.0688,-34.575,-10.5938,,adl
8.404216,0.0087,-0.0053,0.0042,0.0009,0.0031,-0.0001,-25.1438,-34.6125,-10.7063,,adl
8.431751,0.0087,-0.0053,0.0042,0.0013,-0.0023,0.0005,-25.1438,-34.6125,-10.7063,,adl
8.433144,0.0087,-0.0053,0.0042,0.0013,-0.0023,0.0005,-25.1438,-34.6125,-10.7063,,adl
8.450468,-0.0125,-0.0024,0.0004,0.0013,-0.0023,0.0005,-25.1438,-34.6125,-10.7063,,adl
8.463435,-0.0125,-0.0024,0.0004,0.0013,-0.0023,0.0005,-25.2563,-34.575,-10.9313,,adl
8.490935,-0.0125,-0.0024,0.0004,0.0005,-0.0016,-0.0001,-25.2563,-34.575,-10.9313,,adl
8.492473,-0.0125,-0.0024,0.0004,0.0005,-0.0016,-0.0001,-25.2563,-34.575,-10.9313,,adl
8.524384,-0.0125,-0.0024,0.0004,0.0005,-0.0016,-0.0001,-25.3125,-34.5375,-10.8938,,adl
8.534046,0.0048,0.0001,-0.0035,0.0005,-0.0016,-0.0001,-25.3125,-34.5375,-10.8938,,adl
8.552117,0.0048,0.0001,-0.0035,0.0005,-0.0012,-0.0005,-25.3125,-34.5375,-10.8938,,adl
8.553452,0.0048,0.0001,-0.0035,0.0005,-0.0012,-0.0005,-25.3125,-34.5375,-10.8938,,adl
8.588958,0.0048,0.0001,-0.0035,0.0005,-0.0012,-0.0005,-25.3125,-34.3688,-10.9688,,adl
8.595612,0.0029,-0.0074,0.0029,0.0005,-0.0012,-0.0005,-25.3125,-34.3688,-10.9688,,adl
8.613351,0.0029,-0.0074,0.0029,0.0003,-0.0016,0.0003,-25.3125,-34.3688,-10.9688,,adl
8.615779,0.0029,-0.0074,0.0029,0.0003,-0.0016,0.0003,-25.3125,-34.3688,-10.9688,,adl
8.645062,0.0029,-0.0074,0.0029,0.0003,-0.0016,0.0003,-25.2563,-34.425,-11.0625,,adl
8.65357,-0.0055,-0.0044,-0.0038,0.0003,-0.0016,0.0003,-25.2563,-34.425,-11.0625,,adl
8.676133,-0.0055,-0.0044,-0.0038,-0.0005,-0.0001,0.0013,-25.2563,-34.425,-11.0625,,adl
8.67773,-0.0055,-0.0044,-0.0038,-0.0005,-0.0001,0.0013,-25.2563,-34.425,-11.0625,,adl
8.705769,-0.0055,-0.0044,-0.0038,-0.0005,-0.0001,0.0013,-25.3688,-34.35,-11.1,,adl
8.718541,0.0038,0.0036,-0.0018,-0.0005,-0.0001,0.0013,-25.3688,-34.35,-11.1,,adl
8.737001,0.0038,0.0036,-0.0018,-0.0001,0.0005,0.0005,-25.3688,-34.35,-11.1,,adl
8.739404,0.0038,0.0036,-0.0018,-0.0001,0.0005,0.0005,-25.3688,-34.35,-11.1,,adl
8.7643,0.0038,0.0036,-0.0018,-0.0001,0.0005,0.0005,-25.425,-34.35,-11.175,,adl
8.798372,0.0038,0.0036,-0.0018,0.0003,-0.0029,0.0003,-25.425,-34.35,-11.175,,adl
8.800949,-0.0012,-0.0023,0.0066,0.0003,-0.0029,0.0003,-25.425,-34.35,-11.175,,adl
8.802709,-0.0012,-0.0023,0.0066,0.0003,-0.0029,0.0003,-25.425,-34.35,-11.175,,adl
8.825023,-0.0012,-0.0023,0.0066,0.0003,-0.0029,0.0003,-25.4438,-34.3313,-11.025,,adl
8.860212,-0.0012,-0.0023,0.0066,0.0027,0.002,-0.0008,-25.4438,-34.3313,-11.025,,adl
8.862898,-0.0012,-0.0023,0.0066,0.0027,0.002,-0.0008,-25.4438,-34.3313,-11.025,,adl
8.864497,-0.0022,-0.0079,0.0033,0.0027,0.002,-0.0008,-25.4438,-34.3313,-11.025,,adl
8.887559,-0.0022,-0.0079,0.0033,0.0027,0.002,-0.0008,-25.4438,-34.3125,-11.025,,adl
8.92004,-0.0022,-0.0079,0.0033,0.0027,0.002,-0.0008,-25.4438,-34.3125,-11.025,,adl
8.923053,-0.0022,-0.0079,0.0033,-0.0019,0.0027,0.0009,-25.4438,-34.3125,-11.025,,adl
8.92474,0.0148,-0.0005,-0.007,-0.0019,0.0027,0.0009,-25.4438,-34.3125,-11.025,,adl
8.945481,0.0148,-0.0005,-0.007,-0.0019,0.0027,0.0009,-25.35,-34.4625,-10.8,,adl
8.981666,0.0148,-0.0005,-0.007,-0.0008,-0.0029,0.0013,-25.35,-34.4625,-10.8,,adl
8.985118,0.0148,-0.0005,-0.007,-0.0008,-0.0029,0.0013,-25.35,-34.4625,-10.8,,adl
9.001053,-0.013,0.0085,0.0023,-0.0008,-0.0029,0.0013,-25.35,-34.4625,-10.8,,adl
9.006858,-0.013,0.0085,0.0023,-0.0008,-0.0029,0.0013,-25.4063,-34.3688,-10.8375,,adl
9.039972,-0.013,0.0085,0.0023,0.0013,0.0041,0.0005,-25.4063,-34.3688,-10.8375,,adl
9.043559,-0.013,0.0085,0.0023,0.0013,0.0041,0.0005,-25.4063,-34.3688,-10.8375,,adl
9.060704,0.0124,-0.016,0.005,0.0013,0.0041,0.0005,-25.4063,-34.3688,-10.8375,,adl
9.063702,0.0124,-0.016,0.005,0.0013,0.0041,0.0005,-25.3875,-34.5,-10.725,,adl
9.102792,0.0124,-0.016,0.005,0.0013,0.0041,0.0005,-25.3875,-34.5,-10.725,,adl
9.105486,0.0124,-0.016,0.005,0.0013,0.0009,-0.0001,-25.3875,-34.5,-10.725,,adl
9.121174,0.0039,-0.0057,-0.0033,0.0013,0.0009,-0.0001,-25.3875,-34.5,-10.725,,adl
9.123624,0.0039,-0.0057,-0.0033,0.0013,0.0009,-0.0001,-25.4625,-34.4625,-10.7438,,adl
9.162865,0.0039,-0.0057,-0.0033,0.0013,0.0009,-0.0001,-25.4625,-34.4625,-10.7438,,adl
9.165598,0.0039,-0.0057,-0.0033,0.0005,-0.0027,0.0003,-25.4625,-34.4625,-10.7438,,adl
9.182904,-0.007,0.0004,0.0047,0.0005,-0.0027,0.0003,-25.4625,-34.4625,-10.7438,,adl
9.184328,-0.007,0.0004,0.0047,0.0005,-0.0027,0.0003,-25.3688,-34.5938,-10.6875,,adl
9.224615,-0.007,0.0004,0.0047,0.0005,-0.0008,-0.0005,-25.3688,-34.5938,-10.6875,,adl
9.227538,-0.007,0.0004,0.0047,0.0005,-0.0008,-0.0005,-25.3688,-34.5938,-10.6875,,adl
9.244472,-0.007,0.0004,0.0047,0.0005,-0.0008,-0.0005,-25.3688,-34.5188,-10.8188,,adl
9.26357,0.0083,-0.0017,-0.0051,0.0005,-0.0008,-0.0005,-25.3688,-34.5188,-10.8188,,adl
9.286943,0.0083,-0.0017,-0.0051,0.0013,0.0003,-0.0005,-25.3688,-34.5188,-10.8188,,adl
9.289626,0.0083,-0.0017,-0.0051,0.0013,0.0003,-0.0005,-25.3688,-34.5188,-10.8188,,adl
9.307533,0.0083,-0.0017,-0.0051,0.0013,0.0003,-0.0005,-25.0875,-34.35,-11.025,,adl
9.326113,-0.0015,-0.0023,0.0068,0.0013,0.0003,-0.0005,-25.0875,-34.35,-11.025,,adl
9.346117,-0.0015,-0.0023,0.0068,0.0009,-0.0012,-0.0001,-25.0875,-34.35,-11.025,,adl
9.348306,-0.0015,-0.0023,0.0068,0.0009,-0.0012,-0.0001,-25.0875,-34.35,-11.025,,adl
9.365557,-0.0015,-0.0023,0.0068,0.0009,-0.0012,-0.0001,-24.9375,-34.4062,-10.7625,,adl
9.385557,-0.0001,0.0001,-0.004,0.0009,-0.0012,-0.0001,-24.9375,-34.4062,-10.7625,,adl
9.408612,-0.0001,0.0001,-0.004,0.0009,-0.0012,-0.0001,-24.9375,-34.4062,-10.7625,,adl
9.41108,-0.0001,0.0001,-0.004,0.0003,0.0037,0.0003,-24.9375,-34.4062,-10.7625,,adl
9.426614,-0.0001,0.0001,-0.004,0.0003,0.0037,0.0003,-24.9375,-34.2938,-10.7812,,adl
9.468659,-0.0001,0.0001,-0.004,0.0005,0.0027,0.0003,-24.9375,-34.2938,-10.7812,,adl
9.471923,-0.0001,0.0001,-0.004,0.0005,0.0027,0.0003,-24.9375,-34.2938,-10.7812,,adl
9.473414,0.0006,0.0014,-0.004,0.0005,0.0027,0.0003,-24.9375,-34.2938,-10.7812,,adl
9.486401,0.0006,0.0014,-0.004,0.0005,0.0027,0.0003,-24.8813,-34.4625,-10.65,,adl
9.530038,0.0006,0.0014,-0.004,0.0009,0.002,-0.0001,-24.8813,-34.4625,-10.65,,adl
9.533354,0.0006,0.0014,-0.004,0.0009,0.002,-0.0001,-24.8813,-34.4625,-10.65,,adl
9.535486,0.0035,-0.0063,0.0046,0.0009,0.002,-0.0001,-24.8813,-34.4625,-10.65,,adl
9.545264,0.0035,-0.0063,0.0046,0.0009,0.002,-0.0001,-24.9188,-34.35,-10.6875,,adl
9.590392,0.0035,-0.0063,0.0046,0.0016,0.0041,0.0003,-24.9188,-34.35,-10.6875,,adl
9.593658,0.0035,-0.0063,0.0046,0.0016,0.0041,0.0003,-24.9188,-34.35,-10.6875,,adl
9.596726,0.0091,0.0023,-0.0031,0.0016,0.0041,0.0003,-24.9188,-34.35,-10.6875,,adl
9.607103,0.0091,0.0023,-0.0031,0.0016,0.0041,0.0003,-24.8063,-34.2,-10.5938,,adl
9.651185,0.0091,0.0023,-0.0031,-0.0001,0.0024,0.0005,-24.8063,-34.2,-10.5938,,adl
9.653715,0.0091,0.0023,-0.0031,-0.0001,0.0024,0.0005,-24.8063,-34.2,-10.5938,,adl
9.65532,0.0034,-0.0053,0.0013,-0.0001,0.0024,0.0005,-24.8063,-34.2,-10.5938,,adl
9.663846,0.0034,-0.0053,0.0013,-0.0001,0.0024,0.0005,-24.8813,-34.2,-10.5563,,adl
9.711457,0.0034,-0.0053,0.0013,0.0027,-0.015,0.0005,-24.8813,-34.2,-10.5563,,adl
9.7149,0.0034,-0.0053,0.0013,0.0027,-0.015,0.0005,-24.8813,-34.2,-10.5563,,adl
9.724267,0.0034,-0.0053,0.0013,0.0027,-0.015,0.0005,-24.8625,-34.2563,-10.4062,,adl
9.730368,-0.017,0.0078,-0.0061,0.0027,-0.015,0.0005,-24.8625,-34.2563,-10.4062,,adl
9.773571,-0.017,0.0078,-0.0061,-0.0001,0.0169,-0.0005,-24.8625,-34.2563,-10.4062,,adl
9.77659,-0.017,0.0078,-0.0061,-0.0001,0.0169,-0.0005,-24.8625,-34.2563,-10.4062,,adl
9.78667,-0.017,0.0078,-0.0061,-0.0001,0.0169,-0.0005,-25.0125,-34.425,-10.275,,adl
9.793664,0.0154,-0.0242,0.0088,-0.0001,0.0169,-0.0005,-25.0125,-34.425,-10.275,,adl
9.833357,0.0154,-0.0242,0.0088,-0.0001,0.0169,-0.0005,-25.0125,-34.425,-10.275,,adl
9.836528,0.0154,-0.0242,0.0088,-0.0016,-0.0048,0.0005,-25.0125,-34.425,-10.275,,adl
9.846269,0.0154,-0.0242,0.0088,-0.0016,-0.0048,0.0005,-25.1625,-34.4625,-10.5188,,adl
9.853411,-0.0112,0.0252,-0.004,-0.0016,-0.0048,0.0005,-25.1625,-34.4625,-10.5188,,adl
9.89553,-0.0112,0.0252,-0.004,-0.0001,0.0013,0.0009,-25.1625,-34.4625,-10.5188,,adl
9.898846,-0.0112,0.0252,-0.004,-0.0001,0.0013,0.0009,-25.1625,-34.4625,-10.5188,,adl
9.904349,-0.0112,0.0252,-0.004,-0.0001,0.0013,0.0009,-25.1625,-34.6313,-10.5,,adl
9.912941,0.0011,-0.0154,-0.002,-0.0001,0.0013,0.0009,-25.1625,-34.6313,-10.5,,adl
9.955824,0.0011,-0.0154,-0.002,0.0013,0.0109,0.0005,-25.1625,-34.6313,-10.5,,adl
9.959489,0.0011,-0.0154,-0.002,0.0013,0.0109,0.0005,-25.1625,-34.6313,-10.5,,adl
9.96833,0.0011,-0.0154,-0.002,0.0013,0.0109,0.0005,-25.0875,-34.4062,-10.65,,adl
9.998248,0.0165,-0.0171,0.0057,0.0013,0.0109,0.0005,-25.0875,-34.4062,-10.65,,adl
10.016655,0.0165,-0.0171,0.0057,0.0009,-0.0083,0.0005,-25.0875,-34.4062,-10.65,,adl
10.018182,0.0165,-0.0171,0.0057,0.0009,-0.0083,0.0005,-25.0875,-34.4062,-10.65,,adl
10.024513,0.0165,-0.0171,0.0057,0.0009,-0.0083,0.0005,-25.1063,-34.4438,-10.6875,,adl
10.057391,-0.0159,0.0145,0.0041,0.0009,-0.0083,0.0005,-25.1063,-34.4438,-10.6875,,adl
10.076417,-0.0159,0.0145,0.0041,0.0013,-0.0029,-0.0001,-25.1063,-34.4438,-10.6875,,adl
10.079459,-0.0159,0.0145,0.0041,0.0013,-0.0029,-0.0001,-25.1063,-34.4438,-10.6875,,adl
10.084282,-0.0159,0.0145,0.0041,0.0013,-0.0029,-0.0001,-25.0875,-34.5,-10.7812,,adl
10.116687,0.0156,-0.0168,-0.0015,0.0013,-0.0029,-0.0001,-25.0875,-34.5,-10.7812,,adl
10.138771,0.0156,-0.0168,-0.0015,0.0013,-0.0029,-0.0001,-25.0875,-34.5,-10.7812,,adl
10.14145,0.0156,-0.0168,-0.0015,0.0013,0.0052,-0.0005,-25.0875,-34.5,-10.7812,,adl
10.145485,0.0156,-0.0168,-0.0015,0.0013,0.0052,-0.0005,-24.975,-34.4438,-10.8938,,adl
10.198424,0.0156,-0.0168,-0.0015,-0.0001,-0.0065,0.0003,-24.975,-34.4438,-10.8938,,adl
10.201153,0.0156,-0.0168,-0.0015,-0.0001,-0.0065,0.0003,-24.975,-34.4438,-10.8938,,adl
10.203218,0.002,-0.0031,-0.004,-0.0001,-0.0065,0.0003,-24.975,-34.4438,-10.8938,,adl
10.205316,0.002,-0.0031,-0.004,-0.0001,-0.0065,0.0003,-24.9375,-34.4438,-10.875,,adl
10.260581,0.002,-0.0031,-0.004,0.0009,0.0003,0.0003,-24.9375,-34.4438,-10.875,,adl
10.263547,0.002,-0.0031,-0.004,0.0009,0.0003,0.0003,-24.9375,-34.4438,-10.875,,adl
10.265099,-0.0123,0.0078,0.0085,0.0009,0.0003,0.0003,-24.9375,-34.4438,-10.875,,adl
10.267323,-0.0123,0.0078,0.0085,0.0009,0.0003,0.0003,-24.8625,-34.3875,-10.8938,,adl
10.321729,-0.0123,0.0078,0.0085,0.0013,0.0031,0.0005,-24.8625,-34.3875,-10.8938,,adl
10.325096,-0.0123,0.0078,0.0085,0.0013,0.0031,0.0005,-24.8625,-34.3875,-10.8938,,adl
10.326785,0.0087,-0.0078,0.0,0.0013,0.0031,0.0005,-24.8625,-34.3875,-10.8938,,adl
10.328312,0.0087,-0.0078,0.0,0.0013,0.0031,0.0005,-24.8813,-34.3688,-10.6875,,adl
10.381661,0.0087,-0.0078,0.0,0.0005,-0.0051,-0.0001,-24.8813,-34.3688,-10.6875,,adl
10.384542,0.0087,-0.0078,0.0,0.0005,-0.0051,-0.0001,-24.8813,-34.3688,-10.6875,,adl
10.385727,-0.006,-0.0078,0.0106,0.0005,-0.0051,-0.0001,-24.8813,-34.3688,-10.6875,,adl
10.39001,-0.006,-0.0078,0.0106,0.0005,-0.0051,-0.0001,-24.7875,-34.1438,-10.6875,,adl
10.443137,-0.006,-0.0078,0.0106,-0.0001,0.002,0.0003,-24.7875,-34.1438,-10.6875,,adl
10.446065,-0.006,-0.0078,0.0106,-0.0001,0.002,0.0003,-24.7875,-34.1438,-10.6875,,adl
10.447378,-0.006,-0.0078,0.0106,-0.0001,0.002,0.0003,-24.7688,-34.3313,-10.5563,,adl
10.462507,0.0051,0.0031,-0.0042,-0.0001,0.002,0.0003,-24.7688,-34.3313,-10.5563,,adl
10.505217,0.0051,0.0031,-0.0042,0.0009,-0.0005,0.0005,-24.7688,-34.3313,-10.5563,,adl
10.508493,0.0051,0.0031,-0.0042,0.0009,-0.0005,0.0005,-24.7688,-34.3313,-10.5563,,adl
10.510424,0.0051,0.0031,-0.0042,0.0009,-0.0005,0.0005,-24.7125,-34.2938,-10.575,,adl
10.523022,-0.0012,-0.0054,0.0055,0.0009,-0.0005,0.0005,-24.7125,-34.2938,-10.575,,adl
10.564299,-0.0012,-0.0054,0.0055,0.0009,-0.0016,0.0003,-24.7125,-34.2938,-10.575,,adl
10.567365,-0.0012,-0.0054,0.0055,0.0009,-0.0016,0.0003,-24.7125,-34.2938,-10.575,,adl
10.569241,-0.0012,-0.0054,0.0055,0.0009,-0.0016,0.0003,-24.8438,-34.3688,-10.5,,adl
10.582901,0.0029,0.0009,0.0001,0.0009,-0.0016,0.0003,-24.8438,-34.3688,-10.5,,adl
10.628293,0.0029,0.0009,0.0001,0.0035,0.0035,-0.0005,-24.8438,-34.3688,-10.5,,adl
10.63141,0.0029,0.0009,0.0001,0.0035,0.0035,-0.0005,-24.8438,-34.3688,-10.5,,adl
10.633313,0.0029,0.0009,0.0001,0.0035,0.0035,-0.0005,-24.9,-34.4438,-10.3688,,adl
10.665786,0.0093,-0.0138,0.0037,0.0035,0.0035,-0.0005,-24.9,-34.4438,-10.3688,,adl
10.685328,0.0093,-0.0138,0.0037,0.0035,0.0035,-0.0005,-24.9375,-34.4625,-10.3313,,adl
10.688054,0.0093,-0.0138,0.0037,-0.0001,0.0003,0.0005,-24.9375,-34.4625,-10.3313,,adl
10.689659,0.0093,-0.0138,0.0037,-0.0001,0.0003,0.0005,-24.9375,-34.4625,-10.3313,,adl
10.728332,-0.0037,0.0119,-0.0055,-0.0001,0.0003,0.0005,-24.9375,-34.4625,-10.3313,,adl
10.746682,-0.0037,0.0119,-0.0055,-0.0001,0.0003,0.0005,-25.0125,-34.6688,-10.2938,,adl
10.748826,-0.0037,0.0119,-0.0055,-0.0012,0.0009,0.0003,-25.0125,-34.6688,-10.2938,,adl
10.750255,-0.0037,0.0119,-0.0055,-0.0012,0.0009,0.0003,-25.0125,-34.6688,-10.2938,,adl
10.788217,-0.0005,0.0058,-0.0021,-0.0012,0.0009,0.0003,-25.0125,-34.6688,-10.2938,,adl
10.803553,-0.0005,0.0058,-0.0021,-0.0012,0.0009,0.0003,-24.9,-34.8,-10.3125,,adl
10.806461,-0.0005,0.0058,-0.0021,0.0005,0.0016,0.0013,-24.9,-34.8,-10.3125,,adl
10.807945,-0.0005,0.0058,-0.0021,0.0005,0.0016,0.0013,-24.9,-34.8,-10.3125,,adl
10.848607,0.0063,-0.0171,0.0045,0.0005,0.0016,0.0013,-24.9,-34.8,-10.3125,,adl
10.86462,0.0063,-0.0171,0.0045,0.0005,0.0016,0.0013,-25.0125,-34.8563,-10.275,,adl
10.866541,0.0063,-0.0171,0.0045,0.0013,0.0037,0.0005,-25.0125,-34.8563,-10.275,,adl
10.867437,0.0063,-0.0171,0.0045,0.0013,0.0037,0.0005,-25.0125,-34.8563,-10.275,,adl
10.929738,0.0063,-0.0171,0.0045,0.0005,-0.004,-0.0001,-25.0125,-34.8563,-10.275,,adl
10.933303,0.0063,-0.0171,0.0045,0.0005,-0.004,-0.0001,-25.0125,-34.8563,-10.275,,adl
10.935294,0.0063,-0.0171,0.0045,0.0005,-0.004,-0.0001,-25.1438,-34.8563,-10.4438,,adl
10.938225,-0.0062,-0.0022,-0.006,0.0005,-0.004,-0.0001,-25.1438,-34.8563,-10.4438,,adl
10.985622,-0.0062,-0.0022,-0.006,0.0005,-0.004,-0.0001,-25.1625,-34.8938,-10.2938,,adl
10.989686,-0.0062,-0.0022,-0.006,0.0003,-0.0023,0.0003,-25.1625,-34.8938,-10.2938,,adl
10.991767,-0.0062,-0.0022,-0.006,0.0003,-0.0023,0.0003,-25.1625,-34.8938,-10.2938,,adl
10.9935,-0.0037,0.002,-0.0014,0.0003,-0.0023,0.0003,-25.1625,-34.8938,-10.2938,,adl
11.046608,-0.0037,0.002,-0.0014,0.0003,-0.0023,0.0003,-24.975,-34.875,-10.35,,adl
11.050568,-0.0037,0.002,-0.0014,-0.0001,0.0016,0.0005,-24.975,-34.875,-10.35,,adl
11.052442,-0.0037,0.002,-0.0014,-0.0001,0.0016,0.0005,-24.975,-34.875,-10.35,,adl
11.054345,-0.0005,-0.0063,-0.0026,-0.0001,0.0016,0.0005,-24.975,-34.875,-10.35,,adl
11.106186,-0.0005,-0.0063,-0.0026,-0.0001,0.0016,0.0005,-24.8438,-34.7625,-10.4062,,adl
11.110441,-0.0005,-0.0063,-0.0026,-0.0001,-0.0037,0.0005,-24.8438,-34.7625,-10.4062,,adl
11.111879,-0.0005,-0.0063,-0.0026,-0.0001,-0.0037,0.0005,-24.8438,-34.7625,-10.4062,,adl
11.132434,-0.0059,-0.0114,0.0038,-0.0001,-0.0037,0.0005,-24.8438,-34.7625,-10.4062,,adl
11.165115,-0.0059,-0.0114,0.0038,-0.0001,-0.0037,0.0005,-24.7125,-34.8,-10.4062,,adl
11.172964,-0.0059,-0.0114,0.0038,0.0003,-0.0005,0.0003,-24.7125,-34.8,-10.4062,,adl
11.17496,-0.0059,-0.0114,0.0038,0.0003,-0.0005,0.0003,-24.7125,-34.8,-10.4062,,adl
11.192074,-0.006,-0.006,0.0073,0.0003,-0.0005,0.0003,-24.7125,-34.8,-10.4062,,adl
11.227523,-0.006,-0.006,0.0073,0.0003,-0.0005,0.0003,-24.7875,-34.65,-10.5,,adl
11.232128,-0.006,-0.006,0.0073,-0.0008,0.0013,0.0009,-24.7875,-34.65,-10.5,,adl
11.234591,-0.006,-0.006,0.0073,-0.0008,0.0013,0.0009,-24.7875,-34.65,-10.5,,adl
11.254727,0.0033,0.0038,-0.0033,-0.0008,0.0013,0.0009,-24.7875,-34.65,-10.5,,adl
11.285164,0.0033,0.0038,-0.0033,-0.0008,0.0013,0.0009,-24.8438,-34.4438,-10.6125,,adl
11.297671,0.0033,0.0038,-0.0033,0.0003,-0.0027,0.0005,-24.8438,-34.4438,-10.6125,,adl
11.300516,0.0033,0.0038,-0.0033,0.0003,-0.0027,0.0005,-24.8438,-34.4438,-10.6125,,adl
11.31366,0.0013,-0.01,0.0038,0.0003,-0.0027,0.0005,-24.8438,-34.4438,-10.6125,,adl
11.346849,0.0013,-0.01,0.0038,0.0003,-0.0027,0.0005,-24.825,-34.5,-10.7063,,adl
11.356073,0.0013,-0.01,0.0038,0.0003,0.0024,0.0005,-24.825,-34.5,-10.7063,,adl
11.358786,0.0013,-0.01,0.0038,0.0003,0.0024,0.0005,-24.825,-34.5,-10.7063,,adl
11.396882,0.0064,0.0005,-0.0019,0.0003,0.0024,0.0005,-24.825,-34.5,-10.7063,,adl
11.406968,0.0064,0.0005,-0.0019,0.0003,0.0024,0.0005,-24.75,-34.3875,-10.425,,adl
11.415829,0.0064,0.0005,-0.0019,0.0005,-0.0016,-0.0001,-24.75,-34.3875,-10.425,,adl
11.418218,0.0064,0.0005,-0.0019,0.0005,-0.0016,-0.0001,-24.75,-34.3875,-10.425,,adl
11.458439,0.007,0.0117,-0.0027,0.0005,-0.0016,-0.0001,-24.75,-34.3875,-10.425,,adl
11.465789,0.007,0.0117,-0.0027,0.0005,-0.0016,-0.0001,-24.75,-34.425,-10.4438,,adl
11.477304,0.007,0.0117,-0.0027,0.0013,-0.0069,0.0003,-24.75,-34.425,-10.4438,,adl
11.478328,0.007,0.0117,-0.0027,0.0013,-0.0069,0.0003,-24.75,-34.425,-10.4438,,adl
11.518838,-0.0076,-0.0188,0.0009,0.0013,-0.0069,0.0003,-24.75,-34.425,-10.4438,,adl
11.526482,-0.0076,-0.0188,0.0009,0.0013,-0.0069,0.0003,-24.9188,-34.3125,-10.3875,,adl
11.538554,-0.0076,-0.0188,0.0009,0.0009,0.0123,-0.0001,-24.9188,-34.3125,-10.3875,,adl
11.540215,-0.0076,-0.0188,0.0009,0.0009,0.0123,-0.0001,-24.9188,-34.3125,-10.3875,,adl
11.585198,-0.0076,-0.0188,0.0009,0.0009,0.0123,-0.0001,-25.0875,-34.3313,-10.4813,,adl
11.599823,-0.0076,-0.0188,0.0009,0.0009,0.0123,-0.0001,-25.0875,-34.3313,-10.4813,,adl
11.60257,-0.0076,-0.0188,0.0009,-0.0019,-0.008,0.0003,-25.0875,-34.3313,-10.4813,,adl
11.603742,0.0202,0.005,-0.0131,-0.0019,-0.008,0.0003,-25.0875,-34.3313,-10.4813,,adl
11.645229,0.0202,0.005,-0.0131,-0.0019,-0.008,0.0003,-25.35,-34.425,-10.6125,,adl
11.660459,0.0202,0.005,-0.0131,-0.0019,-0.008,0.0003,-25.35,-34.425,-10.6125,,adl
11.662826,0.0202,0.005,-0.0131,-0.0005,-0.0027,0.0016,-25.35,-34.425,-10.6125,,adl
11.66409,-0.012,0.0167,0.0097,-0.0005,-0.0027,0.0016,-25.35,-34.425,-10.6125,,adl
11.70731,-0.012,0.0167,0.0097,-0.0005,-0.0027,0.0016,-25.2375,-34.35,-10.5563,,adl
11.722379,-0.012,0.0167,0.0097,0.0005,0.0127,0.0005,-25.2375,-34.35,-10.5563,,adl
11.726089,-0.012,0.0167,0.0097,0.0005,0.0127,0.0005,-25.2375,-34.35,-10.5563,,adl
11.727572,0.0133,-0.0282,0.0076,0.0005,0.0127,0.0005,-25.2375,-34.35,-10.5563,,adl
11.766437,0.0133,-0.0282,0.0076,0.0005,0.0127,0.0005,-25.2563,-34.4438,-10.5563,,adl
11.781075,0.0133,-0.0282,0.0076,0.002,-0.0091,-0.0001,-25.2563,-34.4438,-10.5563,,adl
11.783599,0.0133,-0.0282,0.0076,0.002,-0.0091,-0.0001,-25.2563,-34.4438,-10.5563,,adl
11.78546,-0.0031,-0.0085,-0.0032,0.002,-0.0091,-0.0001,-25.2563,-34.4438,-10.5563,,adl
11.826729,-0.0031,-0.0085,-0.0032,0.002,-0.0091,-0.0001,-25.2375,-34.3875,-10.575,,adl
11.843603,-0.0031,-0.0085,-0.0032,0.002,-0.0091,-0.0001,-25.2375,-34.3875,-10.575,,adl
11.845031,-0.0031,-0.0085,-0.0032,-0.0001,0.0009,-0.0001,-25.2375,-34.3875,-10.575,,adl
11.862297,-0.0042,0.0016,-0.0023,-0.0001,0.0009,-0.0001,-25.2375,-34.3875,-10.575,,adl
11.887535,-0.0042,0.0016,-0.0023,-0.0001,0.0009,-0.0001,-25.2563,-34.4438,-10.6875,,adl
11.905007,-0.0042,0.0016,-0.0023,-0.0001,0.0009,-0.0001,-25.2563,-34.4438,-10.6875,,adl
11.907585,-0.0042,0.0016,-0.0023,-0.0001,0.0035,0.0003,-25.2563,-34.4438,-10.6875,,adl
11.92419,0.0088,0.0053,-0.0013,-0.0001,0.0035,0.0003,-25.2563,-34.4438,-10.6875,,adl
11.944845,0.0088,0.0053,-0.0013,-0.0001,0.0035,0.0003,-25.3313,-34.3688,-10.8,,adl
11.964362,0.0088,0.0053,-0.0013,-0.0001,0.0035,0.0003,-25.3313,-34.3688,-10.8,,adl
11.967447,0.0088,0.0053,-0.0013,0.0013,-0.0033,0.0003,-25.3313,-34.3688,-10.8,,adl
11.984837,-0.0037,-0.0052,0.011,0.0013,-0.0033,0.0003,-25.3313,-34.3688,-10.8,,adl
12.006638,-0.0037,-0.0052,0.011,0.0013,-0.0033,0.0003,-25.1813,-34.4062,-10.95,,adl
12.025736,-0.0037,-0.0052,0.011,0.0013,-0.0033,0.0003,-25.1813,-34.4062,-10.95,,adl
12.028129,-0.0037,-0.0052,0.011,0.0005,0.0024,-0.0005,-25.1813,-34.4062,-10.95,,adl
12.066662,-0.0037,-0.0052,0.011,0.0005,0.0024,-0.0005,-25.0313,-34.3688,-10.875,,adl
12.068826,0.0065,0.0008,-0.0013,0.0005,0.0024,-0.0005,-25.0313,-34.3688,-10.875,,adl
12.087529,0.0065,0.0008,-0.0013,0.0005,0.0009,-0.0005,-25.0313,-34.3688,-10.875,,adl
12.088856,0.0065,0.0008,-0.0013,0.0005,0.0009,-0.0005,-25.0313,-34.3688,-10.875,,adl
12.126069,0.0065,0.0008,-0.0013,0.0005,0.0009,-0.0005,-24.9188,-34.2563,-10.8188,,adl
12.128187,0.0015,0.0002,-0.0,0.0005,0.0009,-0.0005,-24.9188,-34.2563,-10.8188,,adl
12.146443,0.0015,0.0002,-0.0,0.0003,0.0013,0.0003,-24.9188,-34.2563,-10.8188,,adl
12.148536,0.0015,0.0002,-0.0,0.0003,0.0013,0.0003,-24.9188,-34.2563,-10.8188,,adl
12.184937,0.0015,0.0002,-0.0,0.0003,0.0013,0.0003,-24.9563,-34.2563,-10.8563,,adl
12.188213,0.0066,-0.007,-0.0023,0.0003,0.0013,0.0003,-24.9563,-34.2563,-10.8563,,adl
12.20746,0.0066,-0.007,-0.0023,0.0005,0.002,0.0003,-24.9563,-34.2563,-10.8563,,adl
12.21003,0.0066,-0.007,-0.0023,0.0005,0.002,0.0003,-24.9563,-34.2563,-10.8563,,adl
12.248192,0.0066,-0.007,-0.0023,0.0005,0.002,0.0003,-24.9,-34.1438,-10.875,,adl
12.251387,-0.001,-0.0044,-0.0013,0.0005,0.002,0.0003,-24.9,-34.1438,-10.875,,adl
12.267904,-0.001,-0.0044,-0.0013,0.0005,-0.004,0.0003,-24.9,-34.1438,-10.875,,adl
12.270728,-0.001,-0.0044,-0.0013,0.0005,-0.004,0.0003,-24.9,-34.1438,-10.875,,adl
12.306225,-0.001,-0.0044,-0.0013,0.0005,-0.004,0.0003,-24.825,-34.125,-10.7625,,adl
12.330304,-0.001,-0.0044,-0.0013,0.0005,0.0027,0.0005,-24.825,-34.125,-10.7625,,adl
12.333585,-0.001,-0.0044,-0.0013,0.0005,0.0027,0.0005,-24.825,-34.125,-10.7625,,adl
12.335281,0.0024,0.007,-0.0015,0.0005,0.0027,0.0005,-24.825,-34.125,-10.7625,,adl
12.365671,0.0024,0.007,-0.0015,0.0005,0.0027,0.0005,-24.6938,-34.1063,-10.8188,,adl
12.389523,0.0024,0.007,-0.0015,0.0024,0.0056,-0.0001,-24.6938,-34.1063,-10.8188,,adl
12.391556,0.0024,0.007,-0.0015,0.0024,0.0056,-0.0001,-24.6938,-34.1063,-10.8188,,adl
12.392582,0.0021,-0.0232,0.0003,0.0024,0.0056,-0.0001,-24.6938,-34.1063,-10.8188,,adl
12.425526,0.0021,-0.0232,0.0003,0.0024,0.0056,-0.0001,-24.7125,-34.1063,-10.9313,,adl
12.452731,0.0021,-0.0232,0.0003,-0.0005,-0.0019,0.0003,-24.7125,-34.1063,-10.9313,,adl
12.455382,0.0021,-0.0232,0.0003,-0.0005,-0.0019,0.0003,-24.7125,-34.1063,-10.9313,,adl
12.456899,0.004,0.0129,-0.0126,-0.0005,-0.0019,0.0003,-24.7125,-34.1063,-10.9313,,adl
12.485003,0.004,0.0129,-0.0126,-0.0005,-0.0019,0.0003,-24.7688,-34.0875,-10.7812,,adl
12.512692,0.004,0.0129,-0.0126,-0.0001,-0.0023,0.0003,-24.7688,-34.0875,-10.7812,,adl
12.515943,0.004,0.0129,-0.0126,-0.0001,-0.0023,0.0003,-24.7688,-34.0875,-10.7812,,adl
12.534306,-0.0074,0.0127,-0.0032,-0.0001,-0.0023,0.0003,-24.7688,-34.0875,-10.7812,,adl
12.545516,-0.0074,0.0127,-0.0032,-0.0001,-0.0023,0.0003,-24.9563,-34.1063,-10.8563,,adl
12.573541,-0.0074,0.0127,-0.0032,0.0013,0.0084,0.0005,-24.9563,-34.1063,-10.8563,,adl
12.576676,-0.0074,0.0127,-0.0032,0.0013,0.0084,0.0005,-24.9563,-34.1063,-10.8563,,adl
12.592912,0.0081,-0.0151,0.0061,0.0013,0.0084,0.0005,-24.9563,-34.1063,-10.8563,,adl
12.604713,0.0081,-0.0151,0.0061,0.0013,0.0084,0.0005,-24.9563,-34.125,-10.9688,,adl
12.635232,0.0081,-0.0151,0.0061,0.0016,-0.0061,-0.0005,-24.9563,-34.125,-10.9688,,adl
12.638015,0.0081,-0.0151,0.0061,0.0016,-0.0061,-0.0005,-24.9563,-34.125,-10.9688,,adl
12.654179,-0.0027,-0.0012,-0.0025,0.0016,-0.0061,-0.0005,-24.9563,-34.125,-10.9688,,adl
12.664438,-0.0027,-0.0012,-0.0025,0.0016,-0.0061,-0.0005,-24.9,-34.1625,-10.9125,,adl
12.695598,-0.0027,-0.0012,-0.0025,0.0013,-0.004,-0.0001,-24.9,-34.1625,-10.9125,,adl
12.698866,-0.0027,-0.0012,-0.0025,0.0013,-0.004,-0.0001,-24.9,-34.1625,-10.9125,,adl
12.715242,-0.0054,-0.0026,0.0007,0.0013,-0.004,-0.0001,-24.9,-34.1625,-10.9125,,adl
12.723553,-0.0054,-0.0026,0.0007,0.0013,-0.004,-0.0001,-24.975,-34.3875,-10.8188,,adl
12.757291,-0.0054,-0.0026,0.0007,0.0003,0.0052,0.0005,-24.975,-34.3875,-10.8188,,adl
12.759852,-0.0054,-0.0026,0.0007,0.0003,0.0052,0.0005,-24.975,-34.3875,-10.8188,,adl
12.786505,-0.0054,-0.0026,0.0007,0.0003,0.0052,0.0005,-25.0688,-34.4813,-10.9125,,adl
12.799062,0.0029,-0.002,0.0008,0.0003,0.0052,0.0005,-25.0688,-34.4813,-10.9125,,adl
12.816584,0.0029,-0.002,0.0008,0.0013,-0.004,0.0005,-25.0688,-34.4813,-10.9125,,adl
12.819088,0.0029,-0.002,0.0008,0.0013,-0.004,0.0005,-25.0688,-34.4813,-10.9125,,adl
12.84665,0.0029,-0.002,0.0008,0.0013,-0.004,0.0005,-25.2375,-34.4625,-10.8,,adl
12.859773,-0.0087,-0.006,0.0064,0.0013,-0.004,0.0005,-25.2375,-34.4625,-10.8,,adl
12.876575,-0.0087,-0.006,0.0064,0.0009,0.0003,0.0005,-25.2375,-34.4625,-10.8,,adl
12.880272,-0.0087,-0.006,0.0064,0.0009,0.0003,0.0005,-25.2375,-34.4625,-10.8,,adl
12.905216,-0.0087,-0.006,0.0064,0.0009,0.0003,0.0005,-25.1063,-34.4813,-10.65,,adl
12.917561,0.0068,-0.0016,-0.0061,0.0009,0.0003,0.0005,-25.1063,-34.4813,-10.65,,adl
12.9382,0.0068,-0.0016,-0.0061,0.0005,0.0005,-0.0001,-25.1063,-34.4813,-10.65,,adl
12.940125,0.0068,-0.0016,-0.0061,0.0005,0.0005,-0.0001,-25.1063,-34.4813,-10.65,,adl
12.966867,0.0068,-0.0016,-0.0061,0.0005,0.0005,-0.0001,-25.0688,-34.4813,-10.7438,,adl
12.9998,0.0068,-0.0016,-0.0061,0.0005,0.0013,-0.0001,-25.0688,-34.4813,-10.7438,,adl
13.002627,0.0029,-0.0024,-0.0081,0.0005,0.0013,-0.0001,-25.0688,-34.4813,-10.7438,,adl
13.003546,0.0029,-0.0024,-0.0081,0.0005,0.0013,-0.0001,-25.0688,-34.4813,-10.7438,,adl
13.024739,0.0029,-0.0024,-0.0081,0.0005,0.0013,-0.0001,-24.9938,-34.3875,-10.575,,adl
13.059605,0.0029,-0.0024,-0.0081,0.0013,-0.0008,-0.0001,-24.9938,-34.3875,-10.575,,adl
13.062127,0.0029,-0.0024,-0.0081,0.0013,-0.0008,-0.0001,-24.9938,-34.3875,-10.575,,adl
13.063466,-0.0009,0.0033,-0.0012,0.0013,-0.0008,-0.0001,-24.9938,-34.3875,-10.575,,adl
13.084372,-0.0009,0.0033,-0.0012,0.0013,-0.0008,-0.0001,-25.1063,-34.2563,-10.575,,adl
13.122516,-0.0009,0.0033,-0.0012,0.0003,0.0003,0.0005,-25.1063,-34.2563,-10.575,,adl
13.125307,-0.0009,0.0033,-0.0012,0.0003,0.0003,0.0005,-25.1063,-34.2563,-10.575,,adl
13.128001,0.001,-0.0057,0.0036,0.0003,0.0003,0.0005,-25.1063,-34.2563,-10.575,,adl
13.144869,0.001,-0.0057,0.0036,0.0003,0.0003,0.0005,-25.05,-34.2188,-10.5938,,adl
13.184527,0.001,-0.0057,0.0036,0.0003,0.0003,0.0005,-25.05,-34.2188,-10.5938,,adl
13.186137,-0.002,0.0042,-0.0065,0.0003,0.0003,0.0005,-25.05,-34.2188,-10.5938,,adl
13.186964,-0.002,0.0042,-0.0065,0.0003,-0.0005,0.0005,-25.05,-34.2188,-10.5938,,adl
13.205581,-0.002,0.0042,-0.0065,0.0003,-0.0005,0.0005,-24.8813,-34.0688,-10.65,,adl
13.242887,-0.002,0.0042,-0.0065,0.0027,0.0027,0.0005,-24.8813,-34.0688,-10.65,,adl
13.245327,-0.002,0.0042,-0.0065,0.0027,0.0027,0.0005,-24.8813,-34.0688,-10.65,,adl
13.262276,0.002,-0.0137,0.001,0.0027,0.0027,0.0005,-24.8813,-34.0688,-10.65,,adl
13.266113,0.002,-0.0137,0.001,0.0027,0.0027,0.0005,-24.75,-33.8625,-10.5938,,adl
13.306535,0.002,-0.0137,0.001,0.0027,0.0027,0.0005,-24.75,-33.8625,-10.5938,,adl
13.309783,0.002,-0.0137,0.001,-0.0001,0.0035,0.0009,-24.75,-33.8625,-10.5938,,adl
13.324085,0.0092,-0.0036,-0.0047,-0.0001,0.0035,0.0009,-24.75,-33.8625,-10.5938,,adl
13.325989,0.0092,-0.0036,-0.0047,-0.0001,0.0035,0.0009,-24.5438,-33.9188,-10.7625,,adl
13.367192,0.0092,-0.0036,-0.0047,-0.0012,-0.0005,0.0013,-24.5438,-33.9188,-10.7625,,adl
13.370353,0.0092,-0.0036,-0.0047,-0.0012,-0.0005,0.0013,-24.5438,-33.9188,-10.7625,,adl
13.385551,0.0092,-0.0036,-0.0047,-0.0012,-0.0005,0.0013,-24.6375,-34.0125,-10.8563,,adl
13.387883,-0.0042,0.0167,0.0072,-0.0012,-0.0005,0.0013,-24.6375,-34.0125,-10.8563,,adl
13.427596,-0.0042,0.0167,0.0072,0.0009,0.0063,0.0013,-24.6375,-34.0125,-10.8563,,adl
13.430882,-0.0042,0.0167,0.0072,0.0009,0.0063,0.0013,-24.6375,-34.0125,-10.8563,,adl
13.446022,-0.0042,0.0167,0.0072,0.0009,0.0063,0.0013,-24.7313,-33.9938,-10.6688,,adl
13.465273,0.0113,-0.0168,0.0063,0.0009,0.0063,0.0013,-24.7313,-33.9938,-10.6688,,adl
13.486779,0.0113,-0.0168,0.0063,0.0003,0.0003,0.0005,-24.7313,-33.9938,-10.6688,,adl
13.489623,0.0113,-0.0168,0.0063,0.0003,0.0003,0.0005,-24.7313,-33.9938,-10.6688,,adl
13.505986,0.0113,-0.0168,0.0063,0.0003,0.0003,0.0005,-24.8625,-34.2375,-10.725,,adl
13.528173,-0.0028,-0.0072,0.0069,0.0003,0.0003,0.0005,-24.8625,-34.2375,-10.725,,adl
13.548652,-0.0028,-0.0072,0.0069,0.0003,-0.0005,-0.0001,-24.8625,-34.2375,-10.725,,adl
13.552082,-0.0028,-0.0072,0.0069,0.0003,-0.0005,-0.0001,-24.8625,-34.2375,-10.725,,adl
13.564228,-0.0028,-0.0072,0.0069,0.0003,-0.0005,-0.0001,-24.6938,-34.2,-10.65,,adl
13.587832,0.0003,-0.0024,-0.0067,0.0003,-0.0005,-0.0001,-24.6938,-34.2,-10.65,,adl
13.608787,0.0003,-0.0024,-0.0067,-0.0008,-0.0016,-0.0005,-24.6938,-34.2,-10.65,,adl
13.611489,0.0003,-0.0024,-0.0067,-0.0008,-0.0016,-0.0005,-24.6938,-34.2,-10.65,,adl
13.627172,0.0003,-0.0024,-0.0067,-0.0008,-0.0016,-0.0005,-24.7875,-34.3875,-10.7063,,adl
13.648796,0.0027,-0.0001,-0.0054,-0.0008,-0.0016,-0.0005,-24.7875,-34.3875,-10.7063,,adl
13.669199,0.0027,-0.0001,-0.0054,0.0003,-0.0008,0.0009,-24.7875,-34.3875,-10.7063,,adl
13.672189,0.0027,-0.0001,-0.0054,0.0003,-0.0008,0.0009,-24.7875,-34.3875,-10.7063,,adl
13.68461,0.0027,-0.0001,-0.0054,0.0003,-0.0008,0.0009,-24.8063,-34.4062,-10.7625,,adl
13.732344,0.0027,-0.0001,-0.0054,0.0003,-0.0008,0.0009,-24.8063,-34.4062,-10.7625,,adl
13.735246,0.0027,-0.0001,-0.0054,0.0009,-0.0012,0.0003,-24.8063,-34.4062,-10.7625,,adl
13.737004,-0.0028,-0.0067,0.0034,0.0009,-0.0012,0.0003,-24.8063,-34.4062,-10.7625,,adl
13.744495,-0.0028,-0.0067,0.0034,0.0009,-0.0012,0.0003,-24.8813,-34.7063,-10.65,,adl
13.79307,-0.0028,-0.0067,0.0034,-0.0005,0.0005,0.0005,-24.8813,-34.7063,-10.65,,adl
13.795889,-0.0028,-0.0067,0.0034,-0.0005,0.0005,0.0005,-24.8813,-34.7063,-10.65,,adl
13.797739,0.0067,0.001,0.0014,-0.0005,0.0005,0.0005,-24.8813,-34.7063,-10.65,,adl
13.806269,0.0067,0.001,0.0014,-0.0005,0.0005,0.0005,-25.0313,-34.65,-10.6875,,adl
13.853474,0.0067,0.001,0.0014,0.0003,-0.0001,0.0009,-25.0313,-34.65,-10.6875,,adl
13.857127,0.0067,0.001,0.0014,0.0003,-0.0001,0.0009,-25.0313,-34.65,-10.6875,,adl
13.858653,-0.0075,0.0044,0.0009,0.0003,-0.0001,0.0009,-25.0313,-34.65,-10.6875,,adl
13.865089,-0.0075,0.0044,0.0009,0.0003,-0.0001,0.0009,-25.05,-34.6688,-10.6688,,adl
13.914425,-0.0075,0.0044,0.0009,0.0003,-0.0001,0.0009,-25.05,-34.6688,-10.6688,,adl
13.917499,-0.0075,0.0044,0.0009,0.0005,-0.0005,0.0003,-25.05,-34.6688,-10.6688,,adl
13.923836,-0.0075,0.0044,0.0009,0.0005,-0.0005,0.0003,-25.0313,-34.7438,-10.725,,adl
13.932245,0.0071,-0.0049,-0.0029,0.0005,-0.0005,0.0003,-25.0313,-34.7438,-10.725,,adl
13.976529,0.0071,-0.0049,-0.0029,0.0005,-0.0005,0.0003,-25.0313,-34.7438,-10.725,,adl
13.980532,0.0071,-0.0049,-0.0029,0.0003,-0.0008,0.0005,-25.0313,-34.7438,-10.725,,adl
13.986321,0.0071,-0.0049,-0.0029,0.0003,-0.0008,0.0005,-24.9938,-34.7438,-10.6313,,adl
13.99631,-0.0013,-0.0025,-0.0015,0.0003,-0.0008,0.0005,-24.9938,-34.7438,-10.6313,,adl
14.036653,-0.0013,-0.0025,-0.0015,0.0003,-0.0008,0.0005,-24.9938,-34.7438,-10.6313,,adl
14.039399,-0.0013,-0.0025,-0.0015,-0.0005,-0.0029,-0.0001,-24.9938,-34.7438,-10.6313,,adl
14.04748,-0.0013,-0.0025,-0.0015,-0.0005,-0.0029,-0.0001,-25.0875,-34.8,-10.4813,,adl
14.056193,0.0012,-0.005,0.0046,-0.0005,-0.0029,-0.0001,-25.0875,-34.8,-10.4813,,adl
14.097189,0.0012,-0.005,0.0046,0.0003,-0.0019,0.0005,-25.0875,-34.8,-10.4813,,adl
14.100363,0.0012,-0.005,0.0046,0.0003,-0.0019,0.0005,-25.0875,-34.8,-10.4813,,adl
14.1074,0.0012,-0.005,0.0046,0.0003,-0.0019,0.0005,-25.1625,-34.65,-10.3688,,adl
14.11495,-0.0043,0.0013,-0.0035,0.0003,-0.0019,0.0005,-25.1625,-34.65,-10.3688,,adl
14.157604,-0.0043,0.0013,-0.0035,0.0013,0.0067,-0.0001,-25.1625,-34.65,-10.3688,,adl
14.161111,-0.0043,0.0013,-0.0035,0.0013,0.0067,-0.0001,-25.1625,-34.65,-10.3688,,adl
14.167529,-0.0043,0.0013,-0.0035,0.0013,0.0067,-0.0001,-25.3125,-34.6688,-10.4062,,adl
14.196438,0.0198,-0.024,0.0122,0.0013,0.0067,-0.0001,-25.3125,-34.6688,-10.4062,,adl
14.216954,0.0198,-0.024,0.0122,-0.0012,-0.0023,0.0009,-25.3125,-34.6688,-10.4062,,adl
14.219185,0.0198,-0.024,0.0122,-0.0012,-0.0023,0.0009,-25.3125,-34.6688,-10.4062,,adl
14.22361,0.0198,-0.024,0.0122,-0.0012,-0.0023,0.0009,-25.4813,-34.5188,-10.65,,adl
14.256878,-0.0032,0.0232,-0.0087,-0.0012,-0.0023,0.0009,-25.4813,-34.5188,-10.65,,adl
14.277897,-0.0032,0.0232,-0.0087,-0.0008,-0.0023,0.0003,-25.4813,-34.5188,-10.65,,adl
14.279413,-0.0032,0.0232,-0.0087,-0.0008,-0.0023,0.0003,-25.4813,-34.5188,-10.65,,adl
14.28411,-0.0032,0.0232,-0.0087,-0.0008,-0.0023,0.0003,-25.4625,-34.4813,-10.7063,,adl
14.319749,-0.0059,-0.0058,0.0006,-0.0008,-0.0023,0.0003,-25.4625,-34.4813,-10.7063,,adl
14.337447,-0.0059,-0.0058,0.0006,0.0009,0.0084,0.0009,-25.4625,-34.4813,-10.7063,,adl
14.339512,-0.0059,-0.0058,0.0006,0.0009,0.0084,0.0009,-25.4625,-34.4813,-10.7063,,adl
14.345144,-0.0059,-0.0058,0.0006,0.0009,0.0084,0.0009,-25.4063,-34.3875,-10.5938,,adl
14.398731,-0.0059,-0.0058,0.0006,0.0009,-0.0061,0.0003,-25.4063,-34.3875,-10.5938,,adl
14.400557,-0.0059,-0.0058,0.0006,0.0009,-0.0061,0.0003,-25.4063,-34.3875,-10.5938,,adl
14.402153,0.0157,-0.0115,0.0013,0.0009,-0.0061,0.0003,-25.4063,-34.3875,-10.5938,,adl
14.405755,0.0157,-0.0115,0.0013,0.0009,-0.0061,0.0003,-25.3875,-34.2563,-10.7063,,adl
14.458952,0.0157,-0.0115,0.0013,0.0003,-0.0008,0.0005,-25.3875,-34.2563,-10.7063,,adl
14.460688,0.0157,-0.0115,0.0013,0.0003,-0.0008,0.0005,-25.3875,-34.2563,-10.7063,,adl
14.461467,-0.0153,-0.0016,0.0065,0.0003,-0.0008,0.0005,-25.3875,-34.2563,-10.7063,,adl
14.463128,-0.0153,-0.0016,0.0065,0.0003,-0.0008,0.0005,-25.275,-33.975,-10.9125,,adl
14.523831,-0.0153,-0.0016,0.0065,-0.0005,0.0005,-0.0001,-25.275,-33.975,-10.9125,,adl
14.527911,-0.0153,-0.0016,0.0065,-0.0005,0.0005,-0.0001,-25.275,-33.975,-10.9125,,adl
14.529056,0.0054,0.0022,-0.0059,-0.0005,0.0005,-0.0001,-25.275,-33.975,-10.9125,,adl
14.530422,0.0054,0.0022,-0.0059,-0.0005,0.0005,-0.0001,-25.275,-34.1063,-11.1562,,adl
14.58441,0.0054,0.0022,-0.0059,0.0016,-0.0023,0.0005,-25.275,-34.1063,-11.1562,,adl
14.588699,0.0054,0.0022,-0.0059,0.0016,-0.0023,0.0005,-25.275,-34.1063,-11.1562,,adl
14.590652,-0.0077,-0.0112,0.0096,0.0016,-0.0023,0.0005,-25.275,-34.1063,-11.1562,,adl
14.592142,-0.0077,-0.0112,0.0096,0.0016,-0.0023,0.0005,-25.2,-34.1813,-11.2313,,adl
14.644835,-0.0077,-0.0112,0.0096,0.0003,0.002,0.0005,-25.2,-34.1813,-11.2313,,adl
14.646898,-0.0077,-0.0112,0.0096,0.0003,0.002,0.0005,-25.2,-34.1813,-11.2313,,adl
14.64778,-0.0077,-0.0112,0.0096,0.0003,0.002,0.0005,-25.1813,-34.05,-11.2688,,adl
14.662528,0.0052,-0.0006,0.0036,0.0003,0.002,0.0005,-25.1813,-34.05,-11.2688,,adl
14.704954,0.0052,-0.0006,0.0036,0.0003,-0.0001,0.0009,-25.1813,-34.05,-11.2688,,adl
14.707793,0.0052,-0.0006,0.0036,0.0003,-0.0001,0.0009,-25.1813,-34.05,-11.2688,,adl
14.708883,0.0052,-0.0006,0.0036,0.0003,-0.0001,0.0009,-25.0688,-34.05,-11.1938,,adl
14.724633,0.009,-0.0001,-0.0063,0.0003,-0.0001,0.0009,-25.0688,-34.05,-11.1938,,adl
14.766085,0.009,-0.0001,-0.0063,0.0013,-0.0008,0.0005,-25.0688,-34.05,-11.1938,,adl
14.768013,0.009,-0.0001,-0.0063,0.0013,-0.0008,0.0005,-25.0125,-34.0688,-11.025,,adl
14.768729,0.009,-0.0001,-0.0063,0.0013,-0.0008,0.0005,-25.0125,-34.0688,-11.025,,adl
14.784866,-0.0011,-0.0041,-0.0035,0.0013,-0.0008,0.0005,-25.0125,-34.0688,-11.025,,adl
14.827484,-0.0011,-0.0041,-0.0035,0.0013,-0.0008,0.0005,-24.9938,-34.1438,-11.1938,,adl
14.831101,-0.0011,-0.0041,-0.0035,0.0016,0.0016,-0.0001,-24.9938,-34.1438,-11.1938,,adl
14.833026,-0.0011,-0.0041,-0.0035,0.0016,0.0016,-0.0001,-24.9938,-34.1438,-11.1938,,adl
14.868796,0.0097,-0.0064,0.0031,0.0016,0.0016,-0.0001,-24.9938,-34.1438,-11.1938,,adl
14.885379,0.0097,-0.0064,0.0031,0.0016,0.0016,-0.0001,-25.1063,-34.2375,-11.1375,,adl
14.886916,0.0097,-0.0064,0.0031,0.0005,0.0005,-0.0001,-25.1063,-34.2375,-11.1375,,adl
14.887767,0.0097,-0.0064,0.0031,0.0005,0.0005,-0.0001,-25.1063,-34.2375,-11.1375,,adl
14.92924,0.0014,0.0012,-0.0039,0.0005,0.0005,-0.0001,-25.1063,-34.2375,-11.1375,,adl
14.944808,0.0014,0.0012,-0.0039,0.0005,0.0005,-0.0001,-25.1625,-34.3313,-11.0438,,adl
14.947579,0.0014,0.0012,-0.0039,0.0005,-0.0023,0.0005,-25.1625,-34.3313,-11.0438,,adl
14.948742,0.0014,0.0012,-0.0039,0.0005,-0.0023,0.0005,-25.1625,-34.3313,-11.0438,,adl
14.990836,-0.004,0.0069,0.0006,0.0005,-0.0023,0.0005,-25.1625,-34.3313,-11.0438,,adl
15.005632,-0.004,0.0069,0.0006,0.0005,-0.0023,0.0005,-25.0875,-34.2188,-11.0063,,adl
15.007371,-0.004,0.0069,0.0006,0.0031,0.0009,-0.0001,-25.0875,-34.2188,-11.0063,,adl
15.008358,-0.004,0.0069,0.0006,0.0031,0.0009,-0.0001,-25.0875,-34.2188,-11.0063,,adl
15.048962,0.0078,-0.0247,0.004,0.0031,0.0009,-0.0001,-25.0875,-34.2188,-11.0063,,adl
15.065582,0.0078,-0.0247,0.004,0.0031,0.0009,-0.0001,-25.2563,-34.275,-11.025,,adl
15.070262,0.0078,-0.0247,0.004,0.0031,0.0009,-0.0001,-25.2563,-34.275,-11.025,,adl
15.071566,0.0078,-0.0247,0.004,-0.0001,0.0045,0.0005,-25.2563,-34.275,-11.025,,adl
15.127037,0.0078,-0.0247,0.004,-0.0001,0.0045,0.0005,-25.2938,-34.2,-10.9313,,adl
15.132384,0.0078,-0.0247,0.004,-0.0001,0.0045,0.0005,-25.2938,-34.2,-10.9313,,adl
15.134089,-0.0062,0.0166,-0.0085,-0.0001,0.0045,0.0005,-25.2938,-34.2,-10.9313,,adl
15.135433,-0.0062,0.0166,-0.0085,-0.0008,-0.0037,0.0009,-25.2938,-34.2,-10.9313,,adl
15.187964,-0.0062,0.0166,-0.0085,-0.0008,-0.0037,0.0009,-25.2375,-34.2375,-10.8188,,adl
15.194611,-0.0062,0.0166,-0.0085,0.0016,0.0045,0.0005,-25.2375,-34.2375,-10.8188,,adl
15.195362,-0.004,-0.0038,-0.0045,0.0016,0.0045,0.0005,-25.2375,-34.2375,-10.8188,,adl
15.195897,-0.004,-0.0038,-0.0045,0.0016,0.0045,0.0005,-25.2375,-34.2375,-10.8188,,adl
15.247523,-0.004,-0.0038,-0.0045,0.0016,0.0045,0.0005,-25.4063,-34.275,-10.8938,,adl
15.253465,-0.004,-0.0038,-0.0045,0.0009,0.0003,0.0005,-25.4063,-34.275,-10.8938,,adl
15.255605,-0.004,-0.0038,-0.0045,0.0009,0.0003,0.0005,-25.4063,-34.275,-10.8938,,adl
15.257556,0.0154,-0.0129,0.0003,0.0009,0.0003,0.0005,-25.4063,-34.275,-10.8938,,adl
15.306993,0.0154,-0.0129,0.0003,0.0009,0.0003,0.0005,-25.4063,-34.275,-10.8188,,adl
15.315684,0.0154,-0.0129,0.0003,0.0009,-0.0012,-0.0005,-25.4063,-34.275,-10.8188,,adl
15.318222,-0.0041,0.0053,0.0011,0.0009,-0.0012,-0.0005,-25.4063,-34.275,-10.8188,,adl
15.320074,-0.0041,0.0053,0.0011,0.0009,-0.0012,-0.0005,-25.4063,-34.275,-10.8188,,adl
15.366412,-0.0041,0.0053,0.0011,0.0009,-0.0012,-0.0005,-25.3875,-34.275,-10.8375,,adl
15.37323,-0.0041,0.0053,0.0011,0.0009,-0.0023,0.0003,-25.3875,-34.275,-10.8375,,adl
15.375571,-0.0041,0.0053,0.0011,0.0009,-0.0023,0.0003,-25.3875,-34.275,-10.8375,,adl
15.39394,-0.0048,-0.0014,0.0009,0.0009,-0.0023,0.0003,-25.3875,-34.275,-10.8375,,adl
15.425177,-0.0048,-0.0014,0.0009,0.0009,-0.0023,0.0003,-25.3688,-34.2375,-10.9875,,adl
15.435625,-0.0048,-0.0014,0.0009,0.0005,0.0013,0.0005,-25.3688,-34.2375,-10.9875,,adl
15.437603,-0.0048,-0.0014,0.0009,0.0005,0.0013,0.0005,-25.3688,-34.2375,-10.9875,,adl
15.457073,0.0008,-0.0048,-0.0034,0.0005,0.0013,0.0005,-25.3688,-34.2375,-10.9875,,adl
15.486172,0.0008,-0.0048,-0.0034,0.0005,0.0013,0.0005,-25.4438,-34.275,-10.9688,,adl
15.496942,0.0008,-0.0048,-0.0034,0.0005,0.0013,0.0005,-25.4438,-34.275,-10.9688,,adl
15.499959,0.0008,-0.0048,-0.0034,0.0013,-0.0016,0.0005,-25.4438,-34.275,-10.9688,,adl
15.516468,-0.0048,-0.0034,0.0076,0.0013,-0.0016,0.0005,-25.4438,-34.275,-10.9688,,adl
15.545075,-0.0048,-0.0034,0.0076,0.0013,-0.0016,0.0005,-25.35,-34.0875,-11.025,,adl
15.558113,-0.0048,-0.0034,0.0076,0.0005,0.0013,-0.0005,-25.35,-34.0875,-11.025,,adl
15.559417,-0.0048,-0.0034,0.0076,0.0005,0.0013,-0.0005,-25.35,-34.0875,-11.025,,adl
15.598776,0.0059,-0.0039,-0.0004,0.0005,0.0013,-0.0005,-25.35,-34.0875,-11.025,,adl
15.604229,0.0059,-0.0039,-0.0004,0.0005,0.0013,-0.0005,-25.2375,-34.3125,-10.9688,,adl
15.618816,0.0059,-0.0039,-0.0004,0.0005,0.0005,0.0005,-25.2375,-34.3125,-10.9688,,adl
15.620324,0.0059,-0.0039,-0.0004,0.0005,0.0005,0.0005,-25.2375,-34.3125,-10.9688,,adl
15.660534,0.0029,-0.0029,0.0022,0.0005,0.0005,0.0005,-25.2375,-34.3125,-10.9688,,adl
15.668103,0.0029,-0.0029,0.0022,0.0005,0.0005,0.0005,-25.275,-34.2563,-10.9875,,adl
15.678905,0.0029,-0.0029,0.0022,0.0005,0.0005,0.0005,-25.275,-34.2563,-10.9875,,adl
15.680434,0.0029,-0.0029,0.0022,0.0005,-0.0033,0.0003,-25.275,-34.2563,-10.9875,,adl
15.7213,-0.004,-0.0058,0.0049,0.0005,-0.0033,0.0003,-25.275,-34.2563,-10.9875,,adl
15.726388,-0.004,-0.0058,0.0049,0.0005,-0.0033,0.0003,-25.2,-34.2563,-10.9125,,adl
15.741054,-0.004,-0.0058,0.0049,0.0005,0.0016,-0.0005,-25.2,-34.2563,-10.9125,,adl
15.742547,-0.004,-0.0058,0.0049,0.0005,0.0016,-0.0005,-25.2,-34.2563,-10.9125,,adl
15.781655,0.0109,-0.0052,-0.0012,0.0005,0.0016,-0.0005,-25.2,-34.2563,-10.9125,,adl
15.787544,0.0109,-0.0052,-0.0012,0.0005,0.0016,-0.0005,-25.275,-34.2563,-11.025,,adl
15.800551,0.0109,-0.0052,-0.0012,0.0003,0.0003,0.0003,-25.275,-34.2563,-11.025,,adl
15.802494,0.0109,-0.0052,-0.0012,0.0003,0.0003,0.0003,-25.275,-34.2563,-11.025,,adl
15.846974,0.0109,-0.0052,-0.0012,0.0003,0.0003,0.0003,-25.2,-34.275,-11.1375,,adl
15.863287,0.0109,-0.0052,-0.0012,0.0003,0.0003,0.0003,-25.2,-34.275,-11.1375,,adl
15.866615,0.0109,-0.0052,-0.0012,0.0005,-0.0059,0.0013,-25.2,-34.275,-11.1375,,adl
15.867785,0.0046,0.0019,-0.0045,0.0005,-0.0059,0.0013,-25.2,-34.275,-11.1375,,adl
15.906766,0.0046,0.0019,-0.0045,0.0005,-0.0059,0.0013,-25.2188,-34.4813,-10.9688,,adl
15.923585,0.0046,0.0019,-0.0045,0.0005,-0.0059,0.0013,-25.2188,-34.4813,-10.9688,,adl
15.92629,0.002,-0.009,0.0055,0.0005,-0.0059,0.0013,-25.2188,-34.4813,-10.9688,,adl
15.927819,0.002,-0.009,0.0055,0.0016,0.0109,-0.0005,-25.2188,-34.4813,-10.9688,,adl
15.966368,0.002,-0.009,0.0055,0.0016,0.0109,-0.0005,-25.1438,-34.5938,-10.8938,,adl
15.984856,0.002,-0.009,0.0055,-0.0008,-0.0027,0.0009,-25.1438,-34.5938,-10.8938,,adl
15.986783,0.002,-0.009,0.0055,-0.0008,-0.0027,0.0009,-25.1438,-34.5938,-10.8938,,adl
15.987547,0.0082,0.0099,-0.0087,-0.0008,-0.0027,0.0009,-25.1438,-34.5938,-10.8938,,adl
16.026892,0.0082,0.0099,-0.0087,-0.0008,-0.0027,0.0009,-25.125,-34.8,-10.7812,,adl
16.046789,0.0082,0.0099,-0.0087,-0.0008,-0.0005,0.0013,-25.125,-34.8,-10.7812,,adl
16.0493,0.0082,0.0099,-0.0087,-0.0008,-0.0005,0.0013,-25.125,-34.8,-10.7812,,adl
16.068837,-0.0025,0.0047,0.0046,-0.0008,-0.0005,0.0013,-25.125,-34.8,-10.7812,,adl
16.087202,-0.0025,0.0047,0.0046,-0.0008,-0.0005,0.0013,-25.125,-34.6313,-10.9688,,adl
16.106585,-0.0025,0.0047,0.0046,-0.0012,0.0088,0.0009,-25.125,-34.6313,-10.9688,,adl
16.108792,-0.0025,0.0047,0.0046,-0.0012,0.0088,0.0009,-25.125,-34.6313,-10.9688,,adl
16.127036,0.0089,-0.0064,0.0023,-0.0012,0.0088,0.0009,-25.125,-34.6313,-10.9688,,adl
16.146679,0.0089,-0.0064,0.0023,-0.0012,0.0088,0.0009,-25.1438,-34.7063,-10.9875,,adl
16.16825,0.0089,-0.0064,0.0023,-0.0012,-0.0091,0.0005,-25.1438,-34.7063,-10.9875,,adl
16.17078,0.0089,-0.0064,0.0023,-0.0012,-0.0091,0.0005,-25.1438,-34.7063,-10.9875,,adl
16.188024,-0.0034,0.0044,0.004,-0.0012,-0.0091,0.0005,-25.1438,-34.7063,-10.9875,,adl
16.20717,-0.0034,0.0044,0.004,-0.0012,-0.0091,0.0005,-25.2,-34.7625,-11.0063,,adl
16.22621,-0.0034,0.0044,0.004,-0.0051,0.0013,0.0027,-25.2,-34.7625,-11.0063,,adl
16.228766,-0.0034,0.0044,0.004,-0.0051,0.0013,0.0027,-25.2,-34.7625,-11.0063,,adl
16.246781,0.0026,0.0034,-0.0006,-0.0051,0.0013,0.0027,-25.2,-34.7625,-11.0063,,adl
16.268332,0.0026,0.0034,-0.0006,-0.0051,0.0013,0.0027,-25.1438,-34.7812,-10.9125,,adl
16.288697,0.0026,0.0034,-0.0006,-0.0059,-0.014,0.0077,-25.1438,-34.7812,-10.9125,,adl
16.290952,0.0026,0.0034,-0.0006,-0.0059,-0.014,0.0077,-25.1438,-34.7812,-10.9125,,adl
16.32655,0.0026,0.0034,-0.0006,-0.0059,-0.014,0.0077,-25.2188,-34.7812,-10.8563,,adl
16.328597,-0.0295,0.0182,0.0077,-0.0059,-0.014,0.0077,-25.2188,-34.7812,-10.8563,,adl
16.349971,-0.0295,0.0182,0.0077,0.0005,-0.0302,0.0016,-25.2188,-34.7812,-10.8563,,adl
16.351919,-0.0295,0.0182,0.0077,0.0005,-0.0302,0.0016,-25.2188,-34.7812,-10.8563,,adl
16.385422,-0.0295,0.0182,0.0077,0.0005,-0.0302,0.0016,-25.2938,-34.7063,-10.8188,,adl
16.388296,0.0008,-0.0404,0.0098,0.0005,-0.0302,0.0016,-25.2938,-34.7063,-10.8188,,adl
16.409682,0.0008,-0.0404,0.0098,0.0013,0.0261,-0.0027,-25.2938,-34.7063,-10.8188,,adl
16.412722,0.0008,-0.0404,0.0098,0.0013,0.0261,-0.0027,-25.2938,-34.7063,-10.8188,,adl
16.444248,0.0008,-0.0404,0.0098,0.0013,0.0261,-0.0027,-25.4625,-34.6688,-10.875,,adl
16.451286,0.0258,-0.0193,-0.0161,0.0013,0.0261,-0.0027,-25.4625,-34.6688,-10.875,,adl
16.470398,0.0258,-0.0193,-0.0161,0.0024,-0.0249,-0.0001,-25.4625,-34.6688,-10.875,,adl
16.472722,0.0258,-0.0193,-0.0161,0.0024,-0.0249,-0.0001,-25.4625,-34.6688,-10.875,,adl
16.506289,0.0258,-0.0193,-0.0161,0.0024,-0.0249,-0.0001,-25.5375,-34.5938,-10.9688,,adl
16.531088,0.0258,-0.0193,-0.0161,-0.0048,-0.0029,0.0027,-25.5375,-34.5938,-10.9688,,adl
16.533364,-0.0382,0.0244,0.0017,-0.0048,-0.0029,0.0027,-25.5375,-34.5938,-10.9688,,adl
16.535383,-0.0382,0.0244,0.0017,-0.0048,-0.0029,0.0027,-25.5375,-34.5938,-10.9688,,adl
16.565113,-0.0382,0.0244,0.0017,-0.0048,-0.0029,0.0027,-25.65,-34.7063,-10.95,,adl
16.593287,-0.0382,0.0244,0.0017,-0.0048,-0.0029,0.0027,-25.65,-34.7063,-10.95,,adl
16.59548,0.0407,0.0077,-0.021,-0.0048,-0.0029,0.0027,-25.65,-34.7063,-10.95,,adl
16.596624,0.0407,0.0077,-0.021,0.0005,0.0133,-0.0012,-25.65,-34.7063,-10.95,,adl
16.626491,0.0407,0.0077,-0.021,0.0005,0.0133,-0.0012,-25.6688,-34.6688,-10.9688,,adl
16.655271,0.0407,0.0077,-0.021,0.0041,-0.008,-0.0019,-25.6688,-34.6688,-10.9688,,adl
16.657581,-0.0068,-0.0362,0.0103,0.0041,-0.008,-0.0019,-25.6688,-34.6688,-10.9688,,adl
16.659438,-0.0068,-0.0362,0.0103,0.0041,-0.008,-0.0019,-25.6688,-34.6688,-10.9688,,adl
16.686617,-0.0068,-0.0362,0.0103,0.0041,-0.008,-0.0019,-25.6125,-34.575,-10.9125,,adl
16.714607,-0.0068,-0.0362,0.0103,0.0041,-0.008,-0.0019,-25.6125,-34.575,-10.9125,,adl
16.716925,-0.0068,-0.0362,0.0103,0.0003,0.0056,-0.0005,-25.6125,-34.575,-10.9125,,adl
16.718603,-0.0099,-0.0003,0.0055,0.0003,0.0056,-0.0005,-25.6125,-34.575,-10.9125,,adl
16.744976,-0.0099,-0.0003,0.0055,0.0003,0.0056,-0.0005,-25.5375,-34.4625,-10.9125,,adl
16.776707,-0.0099,-0.0003,0.0055,0.0031,-0.0033,0.0013,-25.5375,-34.4625,-10.9125,,adl
16.779529,-0.0099,-0.0003,0.0055,0.0031,-0.0033,0.0013,-25.5375,-34.4625,-10.9125,,adl
16.796607,0.0107,0.0051,-0.0075,0.0031,-0.0033,0.0013,-25.5375,-34.4625,-10.9125,,adl
16.803469,0.0107,0.0051,-0.0075,0.0031,-0.0033,0.0013,-25.5,-34.4813,-10.6875,,adl
16.837522,0.0107,0.0051,-0.0075,0.0005,0.0024,-0.0001,-25.5,-34.4813,-10.6875,,adl
16.840024,0.0107,0.0051,-0.0075,0.0005,0.0024,-0.0001,-25.5,-34.4813,-10.6875,,adl
16.856114,0.0003,-0.0102,0.0135,0.0005,0.0024,-0.0001,-25.5,-34.4813,-10.6875,,adl
16.864967,0.0003,-0.0102,0.0135,0.0005,0.0024,-0.0001,-25.4063,-34.4813,-10.6875,,adl
16.897654,0.0003,-0.0102,0.0135,-0.0012,-0.0044,-0.0001,-25.4063,-34.4813,-10.6875,,adl
16.900949,0.0003,-0.0102,0.0135,-0.0012,-0.0044,-0.0001,-25.4063,-34.4813,-10.6875,,adl
16.918254,-0.0015,0.0193,-0.0072,-0.0012,-0.0044,-0.0001,-25.4063,-34.4813,-10.6875,,adl
16.92562,-0.0015,0.0193,-0.0072,-0.0012,-0.0044,-0.0001,-25.3313,-34.5,-10.6125,,adl
16.960546,-0.0015,0.0193,-0.0072,-0.0001,-0.0008,-0.0008,-25.3313,-34.5,-10.6125,,adl
16.963652,-0.0015,0.0193,-0.0072,-0.0001,-0.0008,-0.0008,-25.3313,-34.5,-10.6125,,adl
16.984631,-0.0015,0.0193,-0.0072,-0.0001,-0.0008,-0.0008,-25.2375,-34.4813,-10.4813,,adl
16.998209,0.0014,-0.0079,0.0028,-0.0001,-0.0008,-0.0008,-25.2375,-34.4813,-10.4813,,adl
17.018926,0.0014,-0.0079,0.0028,0.0003,0.0067,-0.0008,-25.2375,-34.4813,-10.4813,,adl
17.020631,0.0014,-0.0079,0.0028,0.0003,0.0067,-0.0008,-25.2375,-34.4813,-10.4813,,adl
17.045008,0.0014,-0.0079,0.0028,0.0003,0.0067,-0.0008,-25.1625,-34.3313,-10.4625,,adl
17.060018,0.0106,-0.011,-0.005,0.0003,0.0067,-0.0008,-25.1625,-34.3313,-10.4625,,adl
17.081014,0.0106,-0.011,-0.005,0.002,-0.0055,0.0003,-25.1625,-34.3313,-10.4625,,adl
17.083123,0.0106,-0.011,-0.005,0.002,-0.0055,0.0003,-25.1625,-34.3313,-10.4625,,adl
17.106191,0.0106,-0.011,-0.005,0.002,-0.0055,0.0003,-25.2375,-34.3688,-10.5,,adl
17.119638,-0.0088,0.0008,0.0067,0.002,-0.0055,0.0003,-25.2375,-34.3688,-10.5,,adl
17.141169,-0.0088,0.0008,0.0067,-0.0016,0.0041,-0.0008,-25.2375,-34.3688,-10.5,,adl
17.145242,-0.0088,0.0008,0.0067,-0.0016,0.0041,-0.0008,-25.2375,-34.3688,-10.5,,adl
17.164663,-0.0088,0.0008,0.0067,-0.0016,0.0041,-0.0008,-25.2,-34.3875,-10.575,,adl
17.180688,0.0103,0.0088,-0.0083,-0.0016,0.0041,-0.0008,-25.2,-34.3875,-10.575,,adl
17.201701,0.0103,0.0088,-0.0083,0.0003,-0.0012,0.0003,-25.2,-34.3875,-10.575,,adl
17.203027,0.0103,0.0088,-0.0083,0.0003,-0.0012,0.0003,-25.2,-34.3875,-10.575,,adl
17.225501,0.0103,0.0088,-0.0083,0.0003,-0.0012,0.0003,-25.35,-34.425,-10.5563,,adl
17.262841,0.0103,0.0088,-0.0083,0.0003,0.0016,-0.0001,-25.35,-34.425,-10.5563,,adl
17.266588,0.0103,0.0088,-0.0083,0.0003,0.0016,-0.0001,-25.35,-34.425,-10.5563,,adl
17.268783,-0.0059,-0.0026,0.0062,0.0003,0.0016,-0.0001,-25.35,-34.425,-10.5563,,adl
17.285181,-0.0059,-0.0026,0.0062,0.0003,0.0016,-0.0001,-25.2,-34.4438,-10.6688,,adl
17.323269,-0.0059,-0.0026,0.0062,0.0003,0.0016,-0.0001,-25.2,-34.4438,-10.6688,,adl
17.324639,-0.0059,-0.0026,0.0062,0.0003,0.0045,0.0003,-25.2,-34.4438,-10.6688,,adl
17.325628,0.0127,-0.0022,-0.002,0.0003,0.0045,0.0003,-25.2,-34.4438,-10.6688,,adl
17.345305,0.0127,-0.0022,-0.002,0.0003,0.0045,0.0003,-25.125,-34.3875,-10.5563,,adl
17.386911,0.0127,-0.0022,-0.002,0.0003,-0.0012,-0.0008,-25.125,-34.3875,-10.5563,,adl
17.389209,0.0127,-0.0022,-0.002,0.0003,-0.0012,-0.0008,-25.125,-34.3875,-10.5563,,adl
17.390294,-0.0092,-0.0009,0.0068,0.0003,-0.0012,-0.0008,-25.125,-34.3875,-10.5563,,adl
17.404774,-0.0092,-0.0009,0.0068,0.0003,-0.0012,-0.0008,-25.0313,-34.3313,-10.65,,adl
17.445108,-0.0092,-0.0009,0.0068,-0.0008,0.002,0.0005,-25.0313,-34.3313,-10.65,,adl
17.446865,-0.0092,-0.0009,0.0068,-0.0008,0.002,0.0005,-25.0313,-34.3313,-10.65,,adl
17.464832,-0.0092,-0.0009,0.0068,-0.0008,0.002,0.0005,-24.9938,-34.2375,-10.6313,,adl
17.466841,0.0111,-0.01,0.003,-0.0008,0.002,0.0005,-24.9938,-34.2375,-10.6313,,adl
17.506452,0.0111,-0.01,0.003,0.0005,-0.0023,-0.0001,-24.9938,-34.2375,-10.6313,,adl
17.509705,0.0111,-0.01,0.003,0.0005,-0.0023,-0.0001,-24.9938,-34.2375,-10.6313,,adl
17.524677,0.0111,-0.01,0.003,0.0005,-0.0023,-0.0001,-24.9,-34.2563,-10.5188,,adl
17.526458,-0.002,0.0044,-0.0071,0.0005,-0.0023,-0.0001,-24.9,-34.2563,-10.5188,,adl
17.566991,-0.002,0.0044,-0.0071,0.0016,0.002,-0.0001,-24.9,-34.2563,-10.5188,,adl
17.570951,-0.002,0.0044,-0.0071,0.0016,0.002,-0.0001,-24.9,-34.2563,-10.5188,,adl
17.586204,0.0043,-0.0207,0.007,0.0016,0.002,-0.0001,-24.9,-34.2563,-10.5188,,adl
17.587914,0.0043,-0.0207,0.007,0.0016,0.002,-0.0001,-24.7875,-34.3313,-10.4813,,adl
17.62861,0.0043,-0.0207,0.007,0.0016,0.002,-0.0001,-24.7875,-34.3313,-10.4813,,adl
17.631563,0.0043,-0.0207,0.007,-0.0008,-0.0008,0.0013,-24.7875,-34.3313,-10.4813,,adl
17.644774,0.0043,-0.0207,0.007,-0.0008,-0.0008,0.0013,-24.8063,-34.275,-10.5938,,adl
17.647237,0.0054,0.0178,-0.0074,-0.0008,-0.0008,0.0013,-24.8063,-34.275,-10.5938,,adl
17.689002,0.0054,0.0178,-0.0074,-0.0012,-0.0101,0.0013,-24.8063,-34.275,-10.5938,,adl
17.691601,0.0054,0.0178,-0.0074,-0.0012,-0.0101,0.0013,-24.8063,-34.275,-10.5938,,adl
17.704397,0.0054,0.0178,-0.0074,-0.0012,-0.0101,0.0013,-24.6563,-34.35,-10.5375,,adl
17.728434,-0.0238,0.0049,-0.0017,-0.0012,-0.0101,0.0013,-24.6563,-34.35,-10.5375,,adl
17.749781,-0.0238,0.0049,-0.0017,-0.0005,0.0105,0.0003,-24.6563,-34.35,-10.5375,,adl
17.751753,-0.0238,0.0049,-0.0017,-0.0005,0.0105,0.0003,-24.6563,-34.35,-10.5375,,adl
17.765166,-0.0238,0.0049,-0.0017,-0.0005,0.0105,0.0003,-24.7875,-34.2563,-10.5563,,adl
17.789693,0.0327,-0.0188,-0.0125,-0.0005,0.0105,0.0003,-24.7875,-34.2563,-10.5563,,adl
17.811203,0.0327,-0.0188,-0.0125,0.0013,-0.0142,0.0005,-24.7875,-34.2563,-10.5563,,adl
17.813315,0.0327,-0.0188,-0.0125,0.0013,-0.0142,0.0005,-24.7875,-34.2563,-10.5563,,adl
17.825311,0.0327,-0.0188,-0.0125,0.0013,-0.0142,0.0005,-24.7688,-34.1625,-10.8938,,adl
17.85152,-0.015,-0.0028,0.0101,0.0013,-0.0142,0.0005,-24.7688,-34.1625,-10.8938,,adl
17.871532,-0.015,-0.0028,0.0101,0.0016,0.012,0.0003,-24.7688,-34.1625,-10.8938,,adl
17.874963,-0.015,-0.0028,0.0101,0.0016,0.012,0.0003,-24.7688,-34.1625,-10.8938,,adl
17.887007,-0.015,-0.0028,0.0101,0.0016,0.012,0.0003,-24.7875,-34.2188,-10.8563,,adl
17.933637,-0.015,-0.0028,0.0101,0.0045,-0.0115,0.0005,-24.7875,-34.2188,-10.8563,,adl
17.937489,-0.015,-0.0028,0.0101,0.0045,-0.0115,0.0005,-24.7875,-34.2188,-10.8563,,adl
17.939693,0.0281,0.0036,-0.0015,0.0045,-0.0115,0.0005,-24.7875,-34.2188,-10.8563,,adl
17.945566,0.0281,0.0036,-0.0015,0.0045,-0.0115,0.0005,-24.825,-34.1438,-10.9875,,adl
17.994255,0.0281,0.0036,-0.0015,0.0045,-0.0115,0.0005,-24.825,-34.1438,-10.9875,,adl
17.997312,0.0281,0.0036,-0.0015,0.0045,0.0009,0.0005,-24.825,-34.1438,-10.9875,,adl
17.999264,-0.0354,-0.0355,0.0262,0.0045,0.0009,0.0005,-24.825,-34.1438,-10.9875,,adl
18.005778,-0.0354,-0.0355,0.0262,0.0045,0.0009,0.0005,-24.8813,-34.2188,-10.9688,,adl
18.054888,-0.0354,-0.0355,0.0262,-0.0005,0.012,-0.0005,-24.8813,-34.2188,-10.9688,,adl
18.058266,-0.0354,-0.0355,0.0262,-0.0005,0.012,-0.0005,-24.8813,-34.2188,-10.9688,,adl
18.060276,0.0325,0.0296,-0.0296,-0.0005,0.012,-0.0005,-24.8813,-34.2188,-10.9688,,adl
18.066681,0.0325,0.0296,-0.0296,-0.0005,0.012,-0.0005,-24.9375,-34.0312,-11.025,,adl
18.117341,0.0325,0.0296,-0.0296,0.0027,-0.0101,-0.0008,-24.9375,-34.0312,-11.025,,adl
18.119104,-0.012,-0.0083,0.0125,0.0027,-0.0101,-0.0008,-24.9375,-34.0312,-11.025,,adl
18.119943,-0.012,-0.0083,0.0125,0.0027,-0.0101,-0.0008,-24.9375,-34.0312,-11.025,,adl
18.124076,-0.012,-0.0083,0.0125,0.0027,-0.0101,-0.0008,-24.7688,-33.9938,-10.8375,,adl
18.176853,-0.012,-0.0083,0.0125,0.0016,0.0059,0.0009,-24.7688,-33.9938,-10.8375,,adl
18.178617,-0.012,-0.0083,0.0125,0.0016,0.0059,0.0009,-24.7688,-33.9938,-10.8375,,adl
18.187416,-0.012,-0.0083,0.0125,0.0016,0.0059,0.0009,-24.7875,-33.8813,-10.7625,,adl
18.195262,-0.0025,-0.0045,0.0008,0.0016,0.0059,0.0009,-24.7875,-33.8813,-10.7625,,adl
18.237374,-0.0025,-0.0045,0.0008,0.0016,0.0059,0.0009,-24.7875,-33.8813,-10.7625,,adl
18.241122,-0.0025,-0.0045,0.0008,0.0024,-0.0059,0.0013,-24.7875,-33.8813,-10.7625,,adl
18.24633,-0.0025,-0.0045,0.0008,0.0024,-0.0059,0.0013,-24.8625,-34.0125,-10.8375,,adl
18.256225,-0.001,0.0041,-0.0147,0.0024,-0.0059,0.0013,-24.8625,-34.0125,-10.8375,,adl
18.297182,-0.001,0.0041,-0.0147,-0.0005,0.0105,0.0003,-24.8625,-34.0125,-10.8375,,adl
18.300129,-0.001,0.0041,-0.0147,-0.0005,0.0105,0.0003,-24.8625,-34.0125,-10.8375,,adl
18.303848,-0.001,0.0041,-0.0147,-0.0005,0.0105,0.0003,-24.9188,-34.1625,-10.7063,,adl
18.316075,0.0084,-0.0101,-0.0001,-0.0005,0.0105,0.0003,-24.9188,-34.1625,-10.7063,,adl
18.359849,0.0084,-0.0101,-0.0001,0.0013,-0.0044,-0.0001,-24.9188,-34.1625,-10.7063,,adl
18.363177,0.0084,-0.0101,-0.0001,0.0013,-0.0044,-0.0001,-24.9188,-34.1625,-10.7063,,adl
18.36508,0.0084,-0.0101,-0.0001,0.0013,-0.0044,-0.0001,-24.8625,-34.0875,-10.8375,,adl
18.399741,-0.013,-0.0019,0.0004,0.0013,-0.0044,-0.0001,-24.8625,-34.0875,-10.8375,,adl
18.419578,-0.013,-0.0019,0.0004,0.0003,-0.0012,0.0005,-24.8625,-34.0875,-10.8375,,adl
18.421112,-0.013,-0.0019,0.0004,0.0003,-0.0012,0.0005,-24.8625,-34.0875,-10.8375,,adl
18.426347,-0.013,-0.0019,0.0004,0.0003,-0.0012,0.0005,-24.9563,-34.275,-10.7812,,adl
18.460101,0.0108,0.0072,-0.0122,0.0003,-0.0012,0.0005,-24.9563,-34.275,-10.7812,,adl
18.482309,0.0108,0.0072,-0.0122,0.0003,0.0105,0.0009,-24.9563,-34.275,-10.7812,,adl
18.484811,0.0108,0.0072,-0.0122,0.0003,0.0105,0.0009,-24.9563,-34.275,-10.7812,,adl
18.486443,0.0108,0.0072,-0.0122,0.0003,0.0105,0.0009,-24.9375,-34.2188,-10.8563,,adl
18.52114,0.0081,-0.0068,0.0026,0.0003,0.0105,0.0009,-24.9375,-34.2188,-10.8563,,adl
18.541324,0.0081,-0.0068,0.0026,0.0003,0.0105,0.0009,-24.9375,-34.2188,-10.8563,,adl
18.542975,0.0081,-0.0068,0.0026,0.002,-0.0121,0.0013,-24.9375,-34.2188,-10.8563,,adl
18.543782,0.0081,-0.0068,0.0026,0.002,-0.0121,0.0013,-25.0875,-34.4625,-10.8188,,adl
18.584342,-0.0169,-0.01,0.0081,0.002,-0.0121,0.0013,-25.0875,-34.4625,-10.8188,,adl
18.604398,-0.0169,-0.01,0.0081,0.0013,0.0088,-0.0001,-25.0875,-34.4625,-10.8188,,adl
18.606937,-0.0169,-0.01,0.0081,0.0013,0.0088,-0.0001,-25.0875,-34.4625,-10.8188,,adl
18.608539,-0.0169,-0.01,0.0081,0.0013,0.0088,-0.0001,-25.3875,-34.5188,-10.9313,,adl
18.665293,-0.0169,-0.01,0.0081,0.0013,0.0088,-0.0001,-25.3875,-34.5188,-10.9313,,adl
18.667874,-0.0169,-0.01,0.0081,0.0005,0.0003,0.0003,-25.3875,-34.5188,-10.9313,,adl
18.668932,0.0085,-0.0044,-0.0002,0.0005,0.0003,0.0003,-25.3875,-34.5188,-10.9313,,adl
18.670011,0.0085,-0.0044,-0.0002,0.0005,0.0003,0.0003,-25.5,-34.575,-10.9688,,adl
18.725792,0.0085,-0.0044,-0.0002,0.0005,0.0003,0.0003,-25.425,-34.4813,-10.8563,,adl
18.7292,0.0085,-0.0044,-0.0002,0.0016,-0.0072,0.0005,-25.425,-34.4813,-10.8563,,adl
18.731402,0.0085,-0.0044,-0.0002,0.0016,-0.0072,0.0005,-25.425,-34.4813,-10.8563,,adl
18.733325,-0.0028,0.0075,0.0016,0.0016,-0.0072,0.0005,-25.425,-34.4813,-10.8563,,adl
18.787148,-0.0028,0.0075,0.0016,0.0016,-0.0072,0.0005,-25.3875,-34.4438,-10.7812,,adl
18.788751,-0.0028,0.0075,0.0016,0.0016,0.0052,-0.0008,-25.3875,-34.4438,-10.7812,,adl
18.78962,-0.0028,0.0075,0.0016,0.0016,0.0052,-0.0008,-25.3875,-34.4438,-10.7812,,adl
18.790686,0.0013,-0.0103,0.0036,0.0016,0.0052,-0.0008,-25.3875,-34.4438,-10.7812,,adl
18.84617,0.0013,-0.0103,0.0036,0.0016,0.0052,-0.0008,-25.4625,-34.5,-10.6313,,adl
18.849218,0.0013,-0.0103,0.0036,0.0016,-0.0005,-0.0001,-25.4625,-34.5,-10.6313,,adl
18.850767,0.0013,-0.0103,0.0036,0.0016,-0.0005,-0.0001,-25.4625,-34.5,-10.6313,,adl
18.865351,0.0025,-0.007,-0.0017,0.0016,-0.0005,-0.0001,-25.4625,-34.5,-10.6313,,adl
18.906527,0.0025,-0.007,-0.0017,0.0016,-0.0005,-0.0001,-25.3313,-34.3688,-10.7812,,adl
18.909183,0.0025,-0.007,-0.0017,0.0003,-0.0019,0.0005,-25.3313,-34.3688,-10.7812,,adl
18.91144,0.0025,-0.007,-0.0017,0.0003,-0.0019,0.0005,-25.3313,-34.3688,-10.7812,,adl
18.926068,-0.004,0.0095,0.0019,0.0003,-0.0019,0.0005,-25.3313,-34.3688,-10.7812,,adl
18.964462,-0.004,0.0095,0.0019,0.0003,-0.0019,0.0005,-25.425,-34.4625,-10.7438,,adl
18.967722,-0.004,0.0095,0.0019,0.0003,-0.0019,0.0005,-25.425,-34.4625,-10.7438,,adl
18.96952,-0.004,0.0095,0.0019,-0.0001,0.0037,0.0005,-25.425,-34.4625,-10.7438,,adl
18.987017,0.01,0.0061,-0.0034,-0.0001,0.0037,0.0005,-25.425,-34.4625,-10.7438,,adl
19.02518,0.01,0.0061,-0.0034,-0.0001,0.0037,0.0005,-25.3125,-34.4062,-10.7625,,adl
19.028859,0.01,0.0061,-0.0034,-0.0001,0.0037,0.0005,-25.3125,-34.4062,-10.7625,,adl
19.032055,0.01,0.0061,-0.0034,0.0009,-0.0037,-0.0001,-25.3125,-34.4062,-10.7625,,adl
19.048021,-0.0064,-0.0077,0.0101,0.0009,-0.0037,-0.0001,-25.3125,-34.4062,-10.7625,,adl
19.085228,-0.0064,-0.0077,0.0101,0.0009,-0.0037,-0.0001,-25.1625,-34.3688,-10.6125,,adl
19.088295,-0.0064,-0.0077,0.0101,0.0009,0.0041,0.0003,-25.1625,-34.3688,-10.6125,,adl
19.090141,-0.0064,-0.0077,0.0101,0.0009,0.0041,0.0003,-25.1625,-34.3688,-10.6125,,adl
19.130873,0.0059,0.0002,-0.0048,0.0009,0.0041,0.0003,-25.1625,-34.3688,-10.6125,,adl
19.145182,0.0059,0.0002,-0.0048,0.0009,0.0041,0.0003,-24.9563,-34.3875,-10.5375,,adl
19.15176,0.0059,0.0002,-0.0048,0.0009,0.0041,0.0003,-24.9563,-34.3875,-10.5375,,adl
19.154372,0.0059,0.0002,-0.0048,0.0003,0.0016,0.0003,-24.9563,-34.3875,-10.5375,,adl
19.192171,0.0019,-0.0002,-0.0015,0.0003,0.0016,0.0003,-24.9563,-34.3875,-10.5375,,adl
19.205075,0.0019,-0.0002,-0.0015,0.0003,0.0016,0.0003,-24.9375,-34.425,-10.5938,,adl
19.210775,0.0019,-0.0002,-0.0015,0.0005,-0.0023,0.0009,-24.9375,-34.425,-10.5938,,adl
19.212591,0.0019,-0.0002,-0.0015,0.0005,-0.0023,0.0009,-24.9375,-34.425,-10.5938,,adl
19.2511,0.0024,-0.0084,0.001,0.0005,-0.0023,0.0009,-24.9375,-34.425,-10.5938,,adl
19.263362,0.0024,-0.0084,0.001,0.0005,-0.0023,0.0009,-25.0313,-34.2938,-10.7438,,adl
19.275974,0.0024,-0.0084,0.001,0.0016,-0.0005,-0.0001,-25.0313,-34.2938,-10.7438,,adl
19.277095,0.0024,-0.0084,0.001,0.0016,-0.0005,-0.0001,-25.0313,-34.2938,-10.7438,,adl
19.324077,0.0024,-0.0084,0.001,0.0016,-0.0005,-0.0001,-24.9563,-34.125,-10.9875,,adl
19.332966,0.0024,-0.0084,0.001,0.0016,-0.0005,-0.0001,-24.9563,-34.125,-10.9875,,adl
19.333699,0.0094,-0.0139,0.0067,0.0016,-0.0005,-0.0001,-24.9563,-34.125,-10.9875,,adl
19.334167,0.0094,-0.0139,0.0067,0.0005,0.0059,0.0003,-24.9563,-34.125,-10.9875,,adl
19.38475,0.0094,-0.0139,0.0067,0.0005,0.0059,0.0003,-25.0688,-34.2563,-10.8375,,adl
19.393982,0.0094,-0.0139,0.0067,0.0005,0.0059,0.0003,-25.0688,-34.2563,-10.8375,,adl
19.395388,-0.0013,0.004,0.0014,0.0005,0.0059,0.0003,-25.0688,-34.2563,-10.8375,,adl
19.396267,-0.0013,0.004,0.0014,-0.0012,0.0013,0.0005,-25.0688,-34.2563,-10.8375,,adl
19.444257,-0.0013,0.004,0.0014,-0.0012,0.0013,0.0005,-24.9938,-34.1625,-10.9313,,adl
19.45462,-0.0013,0.004,0.0014,-0.0001,-0.0008,0.0003,-24.9938,-34.1625,-10.9313,,adl
19.456081,-0.0013,0.004,0.0014,-0.0001,-0.0008,0.0003,-24.9938,-34.1625,-10.9313,,adl
19.457124,0.0045,0.0053,-0.0112,-0.0001,-0.0008,0.0003,-24.9938,-34.1625,-10.9313,,adl
19.50426,0.0045,0.0053,-0.0112,-0.0001,-0.0008,0.0003,-24.975,-34.1625,-10.8938,,adl
19.51488,0.0045,0.0053,-0.0112,0.0013,0.0056,0.0003,-24.975,-34.1625,-10.8938,,adl
19.515642,0.0045,0.0053,-0.0112,0.0013,0.0056,0.0003,-24.975,-34.1625,-10.8938,,adl
19.515982,0.0012,-0.0088,0.0083,0.0013,0.0056,0.0003,-24.975,-34.1625,-10.8938,,adl
19.564561,0.0012,-0.0088,0.0083,0.0013,0.0056,0.0003,-24.9188,-34.125,-11.0063,,adl
19.576228,0.0012,-0.0088,0.0083,0.0016,0.0009,-0.0001,-24.9188,-34.125,-11.0063,,adl
19.577606,0.0012,-0.0088,0.0083,0.0016,0.0009,-0.0001,-24.9188,-34.125,-11.0063,,adl
19.596535,0.0055,-0.0067,-0.0049,0.0016,0.0009,-0.0001,-24.9188,-34.125,-11.0063,,adl
19.624773,0.0055,-0.0067,-0.0049,0.0016,0.0009,-0.0001,-24.9375,-33.9,-11.175,,adl
19.636795,0.0055,-0.0067,-0.0049,0.0003,-0.0033,0.0003,-24.9375,-33.9,-11.175,,adl
19.638288,0.0055,-0.0067,-0.0049,0.0003,-0.0033,0.0003,-24.9375,-33.9,-11.175,,adl
19.657748,-0.0025,0.0003,0.0036,0.0003,-0.0033,0.0003,-24.9375,-33.9,-11.175,,adl
19.685159,-0.0025,0.0003,0.0036,0.0003,-0.0033,0.0003,-24.9563,-33.8438,-11.1938,,adl
19.7002,-0.0025,0.0003,0.0036,0.0009,0.0005,-0.0008,-24.9563,-33.8438,-11.1938,,adl
19.702527,-0.0025,0.0003,0.0036,0.0009,0.0005,-0.0008,-24.9563,-33.8438,-11.1938,,adl
19.718649,0.0057,-0.0019,0.0019,0.0009,0.0005,-0.0008,-24.9563,-33.8438,-11.1938,,adl
19.743752,0.0057,-0.0019,0.0019,0.0009,0.0005,-0.0008,-24.9563,-33.7875,-11.25,,adl
19.760345,0.0057,-0.0019,0.0019,0.0009,0.0005,-0.0008,-24.9563,-33.7875,-11.25,,adl
19.762724,0.0057,-0.0019,0.0019,0.0013,-0.0012,0.0009,-24.9563,-33.7875,-11.25,,adl
19.799901,0.0019,-0.0141,-0.002,0.0013,-0.0012,0.0009,-24.9563,-33.7875,-11.25,,adl
19.802501,0.0019,-0.0141,-0.002,0.0013,-0.0012,0.0009,-25.1063,-33.7125,-11.175,,adl
19.820571,0.0019,-0.0141,-0.002,0.0005,0.0003,-0.0001,-25.1063,-33.7125,-11.175,,adl
19.822218,0.0019,-0.0141,-0.002,0.0005,0.0003,-0.0001,-25.1063,-33.7125,-11.175,,adl
19.860052,0.0059,-0.0087,-0.0076,0.0005,0.0003,-0.0001,-25.1063,-33.7125,-11.175,,adl
19.864381,0.0059,-0.0087,-0.0076,0.0005,0.0003,-0.0001,-25.0313,-33.6375,-11.2875,,adl
19.880826,0.0059,-0.0087,-0.0076,0.0013,-0.0012,-0.0005,-25.0313,-33.6375,-11.2875,,adl
19.882391,0.0059,-0.0087,-0.0076,0.0013,-0.0012,-0.0005,-25.0313,-33.6375,-11.2875,,adl
19.923032,0.0026,-0.0059,-0.0007,0.0013,-0.0012,-0.0005,-25.0313,-33.6375,-11.2875,,adl
19.924814,0.0026,-0.0059,-0.0007,0.0013,-0.0012,-0.0005,-24.975,-33.6562,-11.1938,,adl
19.944559,0.0026,-0.0059,-0.0007,0.0009,-0.0016,-0.0001,-24.975,-33.6562,-11.1938,,adl
19.947433,0.0026,-0.0059,-0.0007,0.0009,-0.0016,-0.0001,-24.975,-33.6562,-11.1938,,adl
19.983784,0.0016,-0.0068,-0.0032,0.0009,-0.0016,-0.0001,-24.975,-33.6562,-11.1938,,adl
19.985436,0.0016,-0.0068,-0.0032,0.0009,-0.0016,-0.0001,-24.7875,-33.5438,-11.0813,,adl
20.002487,0.0016,-0.0068,-0.0032,-0.0101,0.2268,-0.0044,-24.7875,-33.5438,-11.0813,,adl
20.003921,0.0016,-0.0068,-0.0032,-0.0101,0.2268,-0.0044,-24.7875,-33.5438,-11.0813,,adl
