time,ax,ay,az,wx,wy,wz,Bx,By,Bz,Unnamed: 10,label
0.144951,0.0,0.0,0.0,0.0,0.0,0.0,-18.075,1.125,-26.4188,,adl
0.163499,0.0,0.0,0.0,0.002,0.0144,-0.0051,-18.075,1.125,-26.4188,,adl
0.20454,0.0,0.0,0.0,0.002,0.0144,-0.0051,-17.475,1.0312,-25.875,,adl
0.222761,0.0,0.0,0.0,-0.0061,-0.0012,-0.015,-17.475,1.0312,-25.875,,adl
0.243456,0.0,0.0,0.0,-0.0061,-0.0012,-0.015,-17.475,1.0312,-25.875,,adl
0.264728,0.0,0.0,0.0,-0.0061,-0.0012,-0.015,-17.5125,1.1625,-25.7438,,adl
0.284761,0.0,0.0,0.0,-0.0104,-0.0029,-0.0112,-17.5125,1.1625,-25.7438,,adl
0.305067,0.0,0.0,0.0,-0.0104,-0.0029,-0.0112,-17.5125,1.1625,-25.7438,,adl
0.325824,0.0,0.0,0.0,-0.0104,-0.0029,-0.0112,-17.0813,1.575,-25.6125,,adl
0.344549,0.0,0.0,0.0,-0.0112,-0.008,-0.0061,-17.0813,1.575,-25.6125,,adl
0.345213,0.0,0.0,0.0,-0.0112,-0.008,-0.0061,-17.0813,1.575,-25.6125,,adl
0.366528,0.0,0.0,0.0,-0.0112,-0.008,-0.0061,-17.0813,1.575,-25.6125,,adl
0.385539,0.0,0.0,0.0,-0.0112,-0.008,-0.0061,-17.0813,1.7063,-25.6688,,adl
0.404953,0.0,0.0,0.0,-0.0104,-0.0005,0.0013,-17.0813,1.7063,-25.6688,,adl
0.40665,0.0003,-0.0031,-0.0064,-0.0104,-0.0005,0.0013,-17.0813,1.7063,-25.6688,,adl
0.425248,0.0003,-0.0031,-0.0064,-0.0104,-0.0005,0.0013,-17.0813,1.7063,-25.6688,,adl
0.445869,0.0003,-0.0031,-0.0064,-0.0104,-0.0005,0.0013,-17.1188,1.7438,-25.6313,,adl
0.469442,0.0121,-0.0034,0.0055,-0.0104,-0.0005,0.0013,-17.1188,1.7438,-25.6313,,adl
0.470979,0.0121,-0.0034,0.0055,-0.0133,0.0056,0.0099,-17.1188,1.7438,-25.6313,,adl
0.486946,0.0121,-0.0034,0.0055,-0.0133,0.0056,0.0099,-17.1188,1.7438,-25.6313,,adl
0.504559,0.0121,-0.0034,0.0055,-0.0133,0.0056,0.0099,-17.0063,1.7813,-25.575,,adl
0.528545,0.0121,-0.0034,0.0055,-0.0225,-0.0101,0.0073,-17.0063,1.7813,-25.575,,adl
0.547877,0.0121,-0.0034,0.0055,-0.0225,-0.0101,0.0073,-17.0063,1.7813,-25.575,,adl
0.54886,-0.0022,0.0085,0.0053,-0.0225,-0.0101,0.0073,-17.0063,1.7813,-25.575,,adl
0.56571,-0.0022,0.0085,0.0053,-0.0225,-0.0101,0.0073,-16.9875,1.8,-25.575,,adl
0.588412,-0.0022,0.0085,0.0053,-0.0378,-0.0387,-0.0029,-16.9875,1.8,-25.575,,adl
0.608748,-0.0022,0.0085,0.0053,-0.0378,-0.0387,-0.0029,-16.9875,1.8,-25.575,,adl
0.609739,-0.0292,-0.0132,0.0267,-0.0378,-0.0387,-0.0029,-16.9875,1.8,-25.575,,adl
0.623844,-0.0292,-0.0132,0.0267,-0.0378,-0.0387,-0.0029,-16.9125,1.875,-25.4063,,adl
0.648487,-0.0292,-0.0132,0.0267,-0.0306,-0.0217,0.0088,-16.9125,1.875,-25.4063,,adl
0.668505,0.0173,0.0216,-0.0101,-0.0306,-0.0217,0.0088,-16.9125,1.875,-25.4063,,adl
0.670289,0.0173,0.0216,-0.0101,-0.0306,-0.0217,0.0088,-16.9125,1.875,-25.4063,,adl
0.685816,0.0173,0.0216,-0.0101,-0.0306,-0.0217,0.0088,-16.9875,2.0625,-25.4438,,adl
0.710471,0.0173,0.0216,-0.0101,-0.0204,-0.0061,0.0077,-16.9875,2.0625,-25.4438,,adl
0.73051,0.0173,0.0216,-0.0101,-0.0204,-0.0061,0.0077,-16.9875,2.0625,-25.4438,,adl
0.730942,-0.0014,-0.0079,-0.0141,-0.0204,-0.0061,0.0077,-16.9875,2.0625,-25.4438,,adl
0.744229,-0.0014,-0.0079,-0.0141,-0.0204,-0.0061,0.0077,-16.8563,2.2125,-25.5375,,adl
0.771144,-0.0014,-0.0079,-0.0141,-0.03,0.0013,0.0218,-16.8563,2.2125,-25.5375,,adl
0.791716,-0.0014,-0.0079,-0.0141,-0.03,0.0013,0.0218,-16.8563,2.2125,-25.5375,,adl
0.804656,-0.0014,-0.0079,-0.0141,-0.03,0.0013,0.0218,-17.025,2.2125,-25.5375,,adl
0.81259,0.028,-0.0148,0.0026,-0.03,0.0013,0.0218,-17.025,2.2125,-25.5375,,adl
0.832114,0.028,-0.0148,0.0026,-0.0626,0.0123,0.0427,-17.025,2.2125,-25.5375,,adl
0.853009,0.028,-0.0148,0.0026,-0.0626,0.0123,0.0427,-17.025,2.2125,-25.5375,,adl
0.865719,0.028,-0.0148,0.0026,-0.0626,0.0123,0.0427,-17.0813,2.2125,-25.5188,,adl
0.874947,0.0658,0.0072,0.0316,-0.0626,0.0123,0.0427,-17.0813,2.2125,-25.5188,,adl
0.892823,0.0658,0.0072,0.0316,-0.0815,0.0073,0.0598,-17.0813,2.2125,-25.5188,,adl
0.913117,0.0658,0.0072,0.0316,-0.0815,0.0073,0.0598,-17.0813,2.2125,-25.5188,,adl
0.924541,0.0658,0.0072,0.0316,-0.0815,0.0073,0.0598,-16.9875,2.2688,-25.4625,,adl
0.933777,0.0147,0.02,0.0677,-0.0815,0.0073,0.0598,-16.9875,2.2688,-25.4625,,adl
0.953641,0.0147,0.02,0.0677,-0.069,0.0244,0.0864,-16.9875,2.2688,-25.4625,,adl
0.974191,0.0147,0.02,0.0677,-0.069,0.0244,0.0864,-16.9875,2.2688,-25.4625,,adl
0.984608,0.0147,0.02,0.0677,-0.069,0.0244,0.0864,-17.0625,2.3813,-25.425,,adl
1.015718,0.0147,0.02,0.0677,-0.1056,-0.0711,0.1411,-17.0625,2.3813,-25.425,,adl
1.017534,0.0868,0.0037,-0.0446,-0.1056,-0.0711,0.1411,-17.0625,2.3813,-25.425,,adl
1.035696,0.0868,0.0037,-0.0446,-0.1056,-0.0711,0.1411,-17.0625,2.3813,-25.425,,adl
1.043497,0.0868,0.0037,-0.0446,-0.1056,-0.0711,0.1411,-17.1188,2.6063,-25.3313,,adl
1.075117,0.0868,0.0037,-0.0446,-0.1453,-0.1105,0.1908,-17.1188,2.6063,-25.3313,,adl
1.076711,0.1299,0.0484,0.0794,-0.1453,-0.1105,0.1908,-17.1188,2.6063,-25.3313,,adl
1.095485,0.1299,0.0484,0.0794,-0.1453,-0.1105,0.1908,-17.1188,2.6063,-25.3313,,adl
1.105718,0.1299,0.0484,0.0794,-0.1453,-0.1105,0.1908,-17.1188,2.9625,-25.425,,adl
1.1363,0.1299,0.0484,0.0794,-0.1634,-0.1776,0.2272,-17.1188,2.9625,-25.425,,adl
1.138669,0.0855,0.0384,0.0851,-0.1634,-0.1776,0.2272,-17.1188,2.9625,-25.425,,adl
1.157562,0.0855,0.0384,0.0851,-0.1634,-0.1776,0.2272,-17.1188,2.9625,-25.425,,adl
1.166026,0.0855,0.0384,0.0851,-0.1634,-0.1776,0.2272,-17.0063,3.3375,-25.3313,,adl
1.19854,0.0855,0.0384,0.0851,-0.1581,-0.2473,0.2613,-17.0063,3.3375,-25.3313,,adl
1.200558,-0.0173,0.015,0.108,-0.1581,-0.2473,0.2613,-17.0063,3.3375,-25.3313,,adl
1.218026,-0.0173,0.015,0.108,-0.1581,-0.2473,0.2613,-17.0063,3.3375,-25.3313,,adl
1.224553,-0.0173,0.015,0.108,-0.1581,-0.2473,0.2613,-17.0813,3.7125,-24.9563,,adl
1.258858,-0.0173,0.015,0.108,-0.1634,-0.2824,0.2882,-17.0813,3.7125,-24.9563,,adl
1.279057,-0.0173,0.015,0.108,-0.1634,-0.2824,0.2882,-17.0813,3.7125,-24.9563,,adl
1.280538,0.1789,-0.0303,-0.0399,-0.1634,-0.2824,0.2882,-17.0813,3.7125,-24.9563,,adl
1.284949,0.1789,-0.0303,-0.0399,-0.1634,-0.2824,0.2882,-17.1,4.2,-24.75,,adl
1.320295,0.1789,-0.0303,-0.0399,-0.2109,-0.2639,0.2996,-17.1,4.2,-24.75,,adl
1.34025,0.1789,-0.0303,-0.0399,-0.2109,-0.2639,0.2996,-17.1,4.2,-24.75,,adl
1.341019,0.0928,-0.0496,0.0195,-0.2109,-0.2639,0.2996,-17.1,4.2,-24.75,,adl
1.34446,0.0928,-0.0496,0.0195,-0.2109,-0.2639,0.2996,-17.1938,4.7812,-24.3563,,adl
1.381138,0.0928,-0.0496,0.0195,-0.2139,-0.2976,0.2977,-17.1938,4.7812,-24.3563,,adl
1.401995,0.0928,-0.0496,0.0195,-0.2139,-0.2976,0.2977,-17.1938,4.7812,-24.3563,,adl
1.403413,0.0528,0.0296,0.0947,-0.2139,-0.2976,0.2977,-17.1938,4.7812,-24.3563,,adl
1.405704,0.0528,0.0296,0.0947,-0.2139,-0.2976,0.2977,-17.3813,5.4563,-24.1125,,adl
1.442292,0.0528,0.0296,0.0947,-0.163,-0.2143,0.2694,-17.3813,5.4563,-24.1125,,adl
1.461911,0.0528,0.0296,0.0947,-0.163,-0.2143,0.2694,-17.3813,5.4563,-24.1125,,adl
1.466425,0.0528,0.0296,0.0947,-0.163,-0.2143,0.2694,-17.55,6.1875,-23.6438,,adl
1.482057,0.0867,-0.0794,-0.1006,-0.163,-0.2143,0.2694,-17.55,6.1875,-23.6438,,adl
1.501387,0.0867,-0.0794,-0.1006,-0.1265,-0.0009,0.2278,-17.55,6.1875,-23.6438,,adl
1.52212,0.0867,-0.0794,-0.1006,-0.1265,-0.0009,0.2278,-17.55,6.1875,-23.6438,,adl
1.524072,0.0867,-0.0794,-0.1006,-0.1265,-0.0009,0.2278,-17.7188,6.975,-23.3625,,adl
1.542986,0.1864,-0.1243,-0.1893,-0.1265,-0.0009,0.2278,-17.7188,6.975,-23.3625,,adl
1.563471,0.1864,-0.1243,-0.1893,-0.1005,0.0257,0.1637,-17.7188,6.975,-23.3625,,adl
1.584918,0.1864,-0.1243,-0.1893,-0.1005,0.0257,0.1637,-17.775,7.425,-22.6875,,adl
1.587016,0.1864,-0.1243,-0.1893,-0.1005,0.0257,0.1637,-17.775,7.425,-22.6875,,adl
1.60499,-0.1903,-0.0156,0.0249,-0.1005,0.0257,0.1637,-17.775,7.425,-22.6875,,adl
1.624722,-0.1903,-0.0156,0.0249,-0.1357,0.1656,0.1242,-17.775,7.425,-22.6875,,adl
1.646362,-0.1903,-0.0156,0.0249,-0.1357,0.1656,0.1242,-17.85,8.025,-22.4062,,adl
1.647113,-0.1903,-0.0156,0.0249,-0.1357,0.1656,0.1242,-17.85,8.025,-22.4062,,adl
1.667578,-0.0132,-0.0137,0.007,-0.1357,0.1656,0.1242,-17.85,8.025,-22.4062,,adl
1.688322,-0.0132,-0.0137,0.007,-0.2294,0.2178,0.1029,-17.85,8.025,-22.4062,,adl
1.706105,-0.0132,-0.0137,0.007,-0.2294,0.2178,0.1029,-17.85,8.025,-22.4062,,adl
1.707056,-0.0132,-0.0137,0.007,-0.2294,0.2178,0.1029,-17.625,8.6625,-22.125,,adl
1.746612,-0.0132,-0.0137,0.007,-0.2812,0.2671,0.0957,-17.625,8.6625,-22.125,,adl
1.748205,-0.1343,0.0983,0.243,-0.2812,0.2671,0.0957,-17.625,8.6625,-22.125,,adl
1.766037,-0.1343,0.0983,0.243,-0.2812,0.2671,0.0957,-17.2875,9.2438,-21.9188,,adl
1.767466,-0.1343,0.0983,0.243,-0.2812,0.2671,0.0957,-17.2875,9.2438,-21.9188,,adl
1.807309,-0.1343,0.0983,0.243,-0.3132,0.2842,0.0855,-17.2875,9.2438,-21.9188,,adl
1.808491,-0.0766,-0.0261,0.1398,-0.3132,0.2842,0.0855,-17.2875,9.2438,-21.9188,,adl
1.825608,-0.0766,-0.0261,0.1398,-0.3132,0.2842,0.0855,-17.0063,9.8438,-21.6562,,adl
1.827292,-0.0766,-0.0261,0.1398,-0.3132,0.2842,0.0855,-17.0063,9.8438,-21.6562,,adl
1.867829,-0.0766,-0.0261,0.1398,-0.3626,0.3485,0.0883,-17.0063,9.8438,-21.6562,,adl
1.86954,-0.092,-0.0449,0.1926,-0.3626,0.3485,0.0883,-17.0063,9.8438,-21.6562,,adl
1.88515,-0.092,-0.0449,0.1926,-0.3626,0.3485,0.0883,-16.3313,10.4625,-21.375,,adl
1.886539,-0.092,-0.0449,0.1926,-0.3626,0.3485,0.0883,-16.3313,10.4625,-21.375,,adl
1.929036,-0.092,-0.0449,0.1926,-0.4609,0.429,0.0795,-16.3313,10.4625,-21.375,,adl
1.945874,-0.092,-0.0449,0.1926,-0.4609,0.429,0.0795,-15.5813,11.0625,-21.225,,adl
1.950614,-0.092,-0.0449,0.1926,-0.4609,0.429,0.0795,-15.5813,11.0625,-21.225,,adl
1.953843,-0.1048,-0.1187,0.2372,-0.4609,0.429,0.0795,-15.5813,11.0625,-21.225,,adl
1.989422,-0.1048,-0.1187,0.2372,-0.7328,0.598,-0.0085,-15.5813,11.0625,-21.225,,adl
2.003959,-0.1048,-0.1187,0.2372,-0.7328,0.598,-0.0085,-14.6813,11.7938,-20.7188,,adl
2.009433,-0.1048,-0.1187,0.2372,-0.7328,0.598,-0.0085,-14.6813,11.7938,-20.7188,,adl
2.009892,-0.2075,-0.2728,0.4534,-0.7328,0.598,-0.0085,-14.6813,11.7938,-20.7188,,adl
2.051265,-0.2075,-0.2728,0.4534,-1.1794,0.9023,0.0752,-14.6813,11.7938,-20.7188,,adl
2.06789,-0.2075,-0.2728,0.4534,-1.1794,0.9023,0.0752,-13.5938,13.0313,-20.3438,,adl
2.072198,-0.2075,-0.2728,0.4534,-1.1794,0.9023,0.0752,-13.5938,13.0313,-20.3438,,adl
2.073092,-0.1165,-0.6083,1.0455,-1.1794,0.9023,0.0752,-13.5938,13.0313,-20.3438,,adl
2.119845,-0.1165,-0.6083,1.0455,-1.8305,0.9562,-0.0249,-13.5938,13.0313,-20.3438,,adl
2.125833,-0.1165,-0.6083,1.0455,-1.8305,0.9562,-0.0249,-12.5063,14.4188,-19.2563,,adl
2.132205,-0.1165,-0.6083,1.0455,-1.8305,0.9562,-0.0249,-12.5063,14.4188,-19.2563,,adl
2.13277,-0.0431,-2.999,1.8828,-1.8305,0.9562,-0.0249,-12.5063,14.4188,-19.2563,,adl
2.17194,-0.0431,-2.999,1.8828,-1.835,0.057,0.0834,-12.5063,14.4188,-19.2563,,adl
2.184998,-0.0431,-2.999,1.8828,-1.835,0.057,0.0834,-11.6625,16.0875,-18.0188,,adl
2.192481,-0.0431,-2.999,1.8828,-1.835,0.057,0.0834,-11.6625,16.0875,-18.0188,,adl
2.213973,1.9432,-3.667,3.879,-1.835,0.057,0.0834,-11.6625,16.0875,-18.0188,,adl
2.232828,1.9432,-3.667,3.879,-1.3004,-0.9179,-0.0242,-11.6625,16.0875,-18.0188,,adl
2.244962,1.9432,-3.667,3.879,-1.3004,-0.9179,-0.0242,-11.1188,17.775,-16.2,,adl
2.253443,1.9432,-3.667,3.879,-1.3004,-0.9179,-0.0242,-11.1188,17.775,-16.2,,adl
2.274187,0.5062,-1.3596,3.5266,-1.3004,-0.9179,-0.0242,-11.1188,17.775,-16.2,,adl
2.294728,0.5062,-1.3596,3.5266,1.0028,-0.167,-0.6294,-11.1188,17.775,-16.2,,adl
2.304557,0.5062,-1.3596,3.5266,1.0028,-0.167,-0.6294,-10.6313,19.1063,-14.775,,adl
2.313637,0.5062,-1.3596,3.5266,1.0028,-0.167,-0.6294,-10.6313,19.1063,-14.775,,adl
2.334633,-0.2098,0.8024,7.3078,1.0028,-0.167,-0.6294,-10.6313,19.1063,-14.775,,adl
2.355121,-0.2098,0.8024,7.3078,2.6855,0.789,-0.861,-10.6313,19.1063,-14.775,,adl
2.365022,-0.2098,0.8024,7.3078,2.6855,0.789,-0.861,-6.075,36.0563,-33.1875,,adl
2.375337,-0.2098,0.8024,7.3078,2.6855,0.789,-0.861,-6.075,36.0563,-33.1875,,adl
2.416464,-0.2098,0.8024,7.3078,3.4267,0.2483,-0.3859,-6.075,36.0563,-33.1875,,adl
2.419357,-1.371,0.7204,1.6637,3.4267,0.2483,-0.3859,-6.075,36.0563,-33.1875,,adl
2.425688,-1.371,0.7204,1.6637,3.4267,0.2483,-0.3859,-12.7875,9.6375,-7.35,,adl
2.437523,-1.371,0.7204,1.6637,3.4267,0.2483,-0.3859,-12.7875,9.6375,-7.35,,adl
2.477389,-1.371,0.7204,1.6637,3.5317,0.5526,0.0578,-12.7875,9.6375,-7.35,,adl
2.478647,-2.2323,-1.4596,-3.5968,3.5317,0.5526,0.0578,-12.7875,9.6375,-7.35,,adl
2.486491,-2.2323,-1.4596,-3.5968,3.5317,0.5526,0.0578,-13.2563,7.3313,-7.9875,,adl
2.496993,-2.2323,-1.4596,-3.5968,3.5317,0.5526,0.0578,-13.2563,7.3313,-7.9875,,adl
2.538572,-2.2323,-1.4596,-3.5968,3.3178,0.6357,0.1324,-13.2563,7.3313,-7.9875,,adl
2.540892,-0.0514,-2.6078,-5.6824,3.3178,0.6357,0.1324,-13.2563,7.3313,-7.9875,,adl
2.545715,-0.0514,-2.6078,-5.6824,3.3178,0.6357,0.1324,-13.9688,3.45,-9.1875,,adl
2.557986,-0.0514,-2.6078,-5.6824,3.3178,0.6357,0.1324,-13.9688,3.45,-9.1875,,adl
2.598787,-0.0514,-2.6078,-5.6824,2.1126,0.4983,0.3887,-13.9688,3.45,-9.1875,,adl
2.600781,0.8565,-2.9073,-7.0391,2.1126,0.4983,0.3887,-13.9688,3.45,-9.1875,,adl
2.604823,0.8565,-2.9073,-7.0391,2.1126,0.4983,0.3887,-14.6813,-1.7063,-10.7812,,adl
2.618969,0.8565,-2.9073,-7.0391,2.1126,0.4983,0.3887,-14.6813,-1.7063,-10.7812,,adl
2.660018,0.8565,-2.9073,-7.0391,-0.1715,0.389,0.3762,-14.6813,-1.7063,-10.7812,,adl
2.664607,0.8565,-2.9073,-7.0391,-0.1715,0.389,0.3762,-15.225,-7.2375,-12.6938,,adl
2.679886,0.2041,-1.1916,-9.7732,-0.1715,0.389,0.3762,-15.225,-7.2375,-12.6938,,adl
2.681208,0.2041,-1.1916,-9.7732,-0.1715,0.389,0.3762,-15.225,-7.2375,-12.6938,,adl
2.720792,0.2041,-1.1916,-9.7732,-1.2504,-0.9615,0.4454,-15.225,-7.2375,-12.6938,,adl
2.724846,0.2041,-1.1916,-9.7732,-1.2504,-0.9615,0.4454,-15.6938,-12.5813,-15.0375,,adl
2.74078,0.2041,-1.1916,-9.7732,-1.2504,-0.9615,0.4454,-15.6938,-12.5813,-15.0375,,adl
2.741494,0.7986,0.9574,-8.3814,-1.2504,-0.9615,0.4454,-15.6938,-12.5813,-15.0375,,adl
2.781448,0.7986,0.9574,-8.3814,-1.3842,-1.4482,0.2566,-15.6938,-12.5813,-15.0375,,adl
2.783663,0.7986,0.9574,-8.3814,-1.3842,-1.4482,0.2566,-16.5938,-17.0063,-17.0813,,adl
2.801508,0.7986,0.9574,-8.3814,-1.3842,-1.4482,0.2566,-16.5938,-17.0063,-17.0813,,adl
2.802376,-0.8976,-2.463,0.8914,-1.3842,-1.4482,0.2566,-16.5938,-17.0063,-17.0813,,adl
2.84299,-0.8976,-2.463,0.8914,-0.8883,-0.1678,0.2178,-16.5938,-17.0063,-17.0813,,adl
2.844647,-0.8976,-2.463,0.8914,-0.8883,-0.1678,0.2178,-17.3063,-20.3063,-18.2063,,adl
2.862158,-0.8976,-2.463,0.8914,-0.8883,-0.1678,0.2178,-17.3063,-20.3063,-18.2063,,adl
2.885055,2.7489,-1.1894,0.4005,-0.8883,-0.1678,0.2178,-17.3063,-20.3063,-18.2063,,adl
2.903557,2.7489,-1.1894,0.4005,-0.791,-0.0623,0.3947,-17.3063,-20.3063,-18.2063,,adl
2.904972,2.7489,-1.1894,0.4005,-0.791,-0.0623,0.3947,-17.7,-22.2563,-18.6188,,adl
2.923789,2.7489,-1.1894,0.4005,-0.791,-0.0623,0.3947,-17.7,-22.2563,-18.6188,,adl
2.944829,-0.1915,0.3778,1.9349,-0.791,-0.0623,0.3947,-17.7,-22.2563,-18.6188,,adl
2.964355,-0.1915,0.3778,1.9349,-0.6842,-0.0137,0.3344,-17.7,-22.2563,-18.6188,,adl
2.96584,-0.1915,0.3778,1.9349,-0.6842,-0.0137,0.3344,-18.225,-22.7438,-18.7313,,adl
2.987109,-0.1915,0.3778,1.9349,-0.6842,-0.0137,0.3344,-18.225,-22.7438,-18.7313,,adl
3.00658,1.0006,-0.7039,0.4552,-0.6842,-0.0137,0.3344,-18.225,-22.7438,-18.7313,,adl
3.026287,1.0006,-0.7039,0.4552,-0.6842,-0.0137,0.3344,-18.675,-21.8063,-18.3563,,adl
3.027564,1.0006,-0.7039,0.4552,-0.6437,0.226,0.2896,-18.675,-21.8063,-18.3563,,adl
3.046442,1.0006,-0.7039,0.4552,-0.6437,0.226,0.2896,-18.675,-21.8063,-18.3563,,adl
3.065183,-0.2995,0.0395,2.011,-0.6437,0.226,0.2896,-18.675,-21.8063,-18.3563,,adl
3.086889,-0.2995,0.0395,2.011,-0.6437,0.226,0.2896,-19.1625,-19.6313,-17.9625,,adl
3.087875,-0.2995,0.0395,2.011,-0.7502,0.0925,0.0944,-19.1625,-19.6313,-17.9625,,adl
3.106831,-0.2995,0.0395,2.011,-0.7502,0.0925,0.0944,-19.1625,-19.6313,-17.9625,,adl
3.14728,-0.1538,-0.051,1.5017,-0.7502,0.0925,0.0944,-19.1625,-19.6313,-17.9625,,adl
3.149052,-0.1538,-0.051,1.5017,-0.671,0.1838,0.0593,-19.1625,-19.6313,-17.9625,,adl
3.150169,-0.1538,-0.051,1.5017,-0.671,0.1838,0.0593,-19.6313,-17.0813,-17.5312,,adl
3.167332,-0.1538,-0.051,1.5017,-0.671,0.1838,0.0593,-19.6313,-17.0813,-17.5312,,adl
3.20568,-0.1538,-0.051,1.5017,-0.671,0.1838,0.0593,-19.8563,-14.8125,-17.1188,,adl
3.207402,-0.1538,-0.051,1.5017,-0.6497,0.4681,0.0631,-19.8563,-14.8125,-17.1188,,adl
3.209493,0.2446,-0.4448,0.8054,-0.6497,0.4681,0.0631,-19.8563,-14.8125,-17.1188,,adl
3.227253,0.2446,-0.4448,0.8054,-0.6497,0.4681,0.0631,-19.8563,-14.8125,-17.1188,,adl
3.265005,0.2446,-0.4448,0.8054,-0.6497,0.4681,0.0631,-19.275,-12.825,-16.7625,,adl
3.268401,0.2446,-0.4448,0.8054,-0.9558,0.7322,-0.0178,-19.275,-12.825,-16.7625,,adl
3.269651,-0.0789,-0.379,1.1319,-0.9558,0.7322,-0.0178,-19.275,-12.825,-16.7625,,adl
3.289103,-0.0789,-0.379,1.1319,-0.9558,0.7322,-0.0178,-19.275,-12.825,-16.7625,,adl
3.325526,-0.0789,-0.379,1.1319,-0.9558,0.7322,-0.0178,-18.5438,-10.8,-16.3875,,adl
3.335783,-0.0789,-0.379,1.1319,-1.6437,0.4723,-0.2188,-18.5438,-10.8,-16.3875,,adl
3.349806,-0.0789,-0.379,1.1319,-1.6437,0.4723,-0.2188,-18.5438,-10.8,-16.3875,,adl
3.350617,-0.5124,-0.5979,1.8784,-1.6437,0.4723,-0.2188,-18.5438,-10.8,-16.3875,,adl
3.386285,-0.5124,-0.5979,1.8784,-1.6437,0.4723,-0.2188,-17.9062,-8.4563,-15.8625,,adl
3.389768,-0.5124,-0.5979,1.8784,-2.2842,0.5899,-0.3266,-17.9062,-8.4563,-15.8625,,adl
3.410617,-0.5124,-0.5979,1.8784,-2.2842,0.5899,-0.3266,-17.9062,-8.4563,-15.8625,,adl
3.411332,0.0962,-1.5182,1.9996,-2.2842,0.5899,-0.3266,-17.9062,-8.4563,-15.8625,,adl
3.444279,0.0962,-1.5182,1.9996,-2.2842,0.5899,-0.3266,-17.2313,-5.85,-14.625,,adl
3.450033,0.0962,-1.5182,1.9996,-2.205,0.1258,-0.6675,-17.2313,-5.85,-14.625,,adl
3.470362,0.0962,-1.5182,1.9996,-2.205,0.1258,-0.6675,-17.2313,-5.85,-14.625,,adl
3.47106,0.5851,-5.8697,2.9785,-2.205,0.1258,-0.6675,-17.2313,-5.85,-14.625,,adl
3.504207,0.5851,-5.8697,2.9785,-2.205,0.1258,-0.6675,-16.425,-3.1313,-13.2375,,adl
3.51068,0.5851,-5.8697,2.9785,-1.3249,0.4503,0.3088,-16.425,-3.1313,-13.2375,,adl
3.531415,0.5851,-5.8697,2.9785,-1.3249,0.4503,0.3088,-16.425,-3.1313,-13.2375,,adl
3.532783,0.3415,-4.7607,6.9967,-1.3249,0.4503,0.3088,-16.425,-3.1313,-13.2375,,adl
3.564872,0.3415,-4.7607,6.9967,-1.3249,0.4503,0.3088,-15.8063,-0.825,-11.7938,,adl
3.572248,0.3415,-4.7607,6.9967,0.6354,-0.2995,-0.7123,-15.8063,-0.825,-11.7938,,adl
3.592595,0.3415,-4.7607,6.9967,0.6354,-0.2995,-0.7123,-15.8063,-0.825,-11.7938,,adl
3.612671,-2.1613,1.7232,6.6049,0.6354,-0.2995,-0.7123,-15.8063,-0.825,-11.7938,,adl
3.62419,-2.1613,1.7232,6.6049,0.6354,-0.2995,-0.7123,-15.6938,0.8625,-10.5188,,adl
3.633219,-2.1613,1.7232,6.6049,2.4341,0.0406,-0.6639,-15.6938,0.8625,-10.5188,,adl
3.65366,-2.1613,1.7232,6.6049,2.4341,0.0406,-0.6639,-15.6938,0.8625,-10.5188,,adl
3.675514,-1.37,1.6324,3.3757,2.4341,0.0406,-0.6639,-15.6938,0.8625,-10.5188,,adl
3.684127,-1.37,1.6324,3.3757,2.4341,0.0406,-0.6639,-15.9188,1.65,-9.7125,,adl
3.69393,-1.37,1.6324,3.3757,3.3299,-0.8682,-0.2657,-15.9188,1.65,-9.7125,,adl
3.714944,-1.37,1.6324,3.3757,3.3299,-0.8682,-0.2657,-15.9188,1.65,-9.7125,,adl
3.734625,-3.1202,-0.304,-1.6736,3.3299,-0.8682,-0.2657,-15.9188,1.65,-9.7125,,adl
3.744151,-3.1202,-0.304,-1.6736,3.3299,-0.8682,-0.2657,-16.7625,1.4438,-9.1688,,adl
3.755281,-3.1202,-0.304,-1.6736,3.6604,-0.4099,0.335,-16.7625,1.4438,-9.1688,,adl
3.775482,-3.1202,-0.304,-1.6736,3.6604,-0.4099,0.335,-16.7625,1.4438,-9.1688,,adl
3.80565,-3.1202,-0.304,-1.6736,3.6604,-0.4099,0.335,-17.85,-0.0563,-9.225,,adl
3.816436,-3.1202,-0.304,-1.6736,3.7299,0.4678,0.5459,-17.85,-0.0563,-9.225,,adl
3.817983,-1.1524,-2.5734,-5.3935,3.7299,0.4678,0.5459,-17.85,-0.0563,-9.225,,adl
3.836384,-1.1524,-2.5734,-5.3935,3.7299,0.4678,0.5459,-17.85,-0.0563,-9.225,,adl
3.865647,-1.1524,-2.5734,-5.3935,3.7299,0.4678,0.5459,-18.8813,-3.1125,-9.5438,,adl
3.877799,-1.1524,-2.5734,-5.3935,2.9148,-0.0573,0.3847,-18.8813,-3.1125,-9.5438,,adl
3.879682,1.0427,-4.1968,-6.3123,2.9148,-0.0573,0.3847,-18.8813,-3.1125,-9.5438,,adl
3.898765,1.0427,-4.1968,-6.3123,2.9148,-0.0573,0.3847,-18.8813,-3.1125,-9.5438,,adl
3.92512,1.0427,-4.1968,-6.3123,2.9148,-0.0573,0.3847,-19.7438,-7.35,-10.5938,,adl
3.939063,1.0427,-4.1968,-6.3123,0.527,0.6428,-0.1169,-19.7438,-7.35,-10.5938,,adl
3.940211,1.4197,-2.9316,-8.9813,0.527,0.6428,-0.1169,-19.7438,-7.35,-10.5938,,adl
3.9589,1.4197,-2.9316,-8.9813,0.527,0.6428,-0.1169,-19.7438,-7.35,-10.5938,,adl
3.986522,1.4197,-2.9316,-8.9813,0.527,0.6428,-0.1169,-20.5875,-11.8688,-11.925,,adl
3.999116,1.4197,-2.9316,-8.9813,-1.0462,-0.1603,0.1842,-20.5875,-11.8688,-11.925,,adl
4.000602,2.2873,1.2026,-10.9692,-1.0462,-0.1603,0.1842,-20.5875,-11.8688,-11.925,,adl
4.020345,2.2873,1.2026,-10.9692,-1.0462,-0.1603,0.1842,-20.5875,-11.8688,-11.925,,adl
4.045857,2.2873,1.2026,-10.9692,-1.0462,-0.1603,0.1842,-21.6375,-15.8813,-13.4063,,adl
4.062094,2.2873,1.2026,-10.9692,-1.2717,-1.3864,0.563,-21.6375,-15.8813,-13.4063,,adl
4.08176,2.2873,1.2026,-10.9692,-1.2717,-1.3864,0.563,-21.6375,-15.8813,-13.4063,,adl
4.083577,0.6413,-2.0253,0.8921,-1.2717,-1.3864,0.563,-21.6375,-15.8813,-13.4063,,adl
4.104934,0.6413,-2.0253,0.8921,-1.2717,-1.3864,0.563,-22.6875,-19.0875,-14.6063,,adl
4.120746,0.6413,-2.0253,0.8921,-1.4063,0.0521,0.2839,-22.6875,-19.0875,-14.6063,,adl
4.141165,0.6413,-2.0253,0.8921,-1.4063,0.0521,0.2839,-22.6875,-19.0875,-14.6063,,adl
4.142349,-0.5746,-2.1992,-2.2727,-1.4063,0.0521,0.2839,-22.6875,-19.0875,-14.6063,,adl
4.165923,-0.5746,-2.1992,-2.2727,-1.4063,0.0521,0.2839,-23.3813,-21.1125,-15.2625,,adl
4.181817,-0.5746,-2.1992,-2.2727,-1.1176,-0.3136,0.3222,-23.3813,-21.1125,-15.2625,,adl
4.20333,-0.5746,-2.1992,-2.2727,-1.1176,-0.3136,0.3222,-23.3813,-21.1125,-15.2625,,adl
4.204922,0.6111,0.2998,1.6193,-1.1176,-0.3136,0.3222,-23.3813,-21.1125,-15.2625,,adl
4.22568,0.6111,0.2998,1.6193,-1.1176,-0.3136,0.3222,-23.6813,-22.05,-15.5813,,adl
4.243276,0.6111,0.2998,1.6193,-0.9025,0.0758,0.296,-23.6813,-22.05,-15.5813,,adl
4.264173,0.6111,0.2998,1.6193,-0.9025,0.0758,0.296,-23.6813,-22.05,-15.5813,,adl
4.265542,0.8174,-0.5191,1.1823,-0.9025,0.0758,0.296,-23.6813,-22.05,-15.5813,,adl
4.285482,0.8174,-0.5191,1.1823,-0.9025,0.0758,0.296,-23.9438,-21.8813,-15.4688,,adl
4.303856,0.8174,-0.5191,1.1823,-0.7274,0.1141,0.0695,-23.9438,-21.8813,-15.4688,,adl
4.325944,0.8174,-0.5191,1.1823,-0.7274,0.1141,0.0695,-23.9438,-21.8813,-15.4688,,adl
4.345798,0.8174,-0.5191,1.1823,-0.7274,0.1141,0.0695,-24.1125,-20.4,-15.2063,,adl
4.347691,-0.1943,-0.2468,1.3063,-0.7274,0.1141,0.0695,-24.1125,-20.4,-15.2063,,adl
4.366188,-0.1943,-0.2468,1.3063,-0.7519,0.2015,0.0901,-24.1125,-20.4,-15.2063,,adl
4.387176,-0.1943,-0.2468,1.3063,-0.7519,0.2015,0.0901,-24.1125,-20.4,-15.2063,,adl
4.408158,-0.1943,-0.2468,1.3063,-0.7519,0.2015,0.0901,-24.375,-17.9438,-14.775,,adl
4.410128,-0.0747,-0.0649,1.8112,-0.7519,0.2015,0.0901,-24.375,-17.9438,-14.775,,adl
4.426878,-0.0747,-0.0649,1.8112,-0.7619,0.0513,0.0691,-24.375,-17.9438,-14.775,,adl
4.447629,-0.0747,-0.0649,1.8112,-0.7619,0.0513,0.0691,-24.375,-17.9438,-14.775,,adl
4.463949,-0.0747,-0.0649,1.8112,-0.7619,0.0513,0.0691,-24.7688,-15.3375,-14.1938,,adl
4.466351,-0.1314,-0.1406,1.5885,-0.7619,0.0513,0.0691,-24.7688,-15.3375,-14.1938,,adl
4.487029,-0.1314,-0.1406,1.5885,-0.633,0.1866,0.0759,-24.7688,-15.3375,-14.1938,,adl
4.507096,-0.1314,-0.1406,1.5885,-0.633,0.1866,0.0759,-24.7688,-15.3375,-14.1938,,adl
4.527558,-0.1314,-0.1406,1.5885,-0.633,0.1866,0.0759,-24.7125,-13.0688,-13.5375,,adl
4.547917,0.3021,-0.7066,0.9318,-0.633,0.1866,0.0759,-24.7125,-13.0688,-13.5375,,adl
4.549046,0.3021,-0.7066,0.9318,-0.6767,0.3406,0.0961,-24.7125,-13.0688,-13.5375,,adl
4.567987,0.3021,-0.7066,0.9318,-0.6767,0.3406,0.0961,-24.7125,-13.0688,-13.5375,,adl
4.584889,0.3021,-0.7066,0.9318,-0.6767,0.3406,0.0961,-24.1313,-10.9125,-13.05,,adl
4.608895,0.3021,-0.7066,0.9318,-0.9309,0.4823,0.1671,-24.1313,-10.9125,-13.05,,adl
4.611654,-0.0402,-0.4989,1.2794,-0.9309,0.4823,0.1671,-24.1313,-10.9125,-13.05,,adl
4.629679,-0.0402,-0.4989,1.2794,-0.9309,0.4823,0.1671,-24.1313,-10.9125,-13.05,,adl
4.645723,-0.0402,-0.4989,1.2794,-0.9309,0.4823,0.1671,-23.6063,-8.8125,-12.5813,,adl
4.669117,-0.0402,-0.4989,1.2794,-1.2706,0.559,0.1373,-23.6063,-8.8125,-12.5813,,adl
4.670985,-0.0999,-0.4958,1.4347,-1.2706,0.559,0.1373,-23.6063,-8.8125,-12.5813,,adl
4.690597,-0.0999,-0.4958,1.4347,-1.2706,0.559,0.1373,-23.6063,-8.8125,-12.5813,,adl
4.705019,-0.0999,-0.4958,1.4347,-1.2706,0.559,0.1373,-22.8938,-6.7688,-12.0938,,adl
4.730583,-0.0999,-0.4958,1.4347,-1.5344,0.8369,-0.0352,-22.8938,-6.7688,-12.0938,,adl
4.732296,-0.1137,-1.4095,1.4927,-1.5344,0.8369,-0.0352,-22.8938,-6.7688,-12.0938,,adl
4.751098,-0.1137,-1.4095,1.4927,-1.5344,0.8369,-0.0352,-22.8938,-6.7688,-12.0938,,adl
4.765063,-0.1137,-1.4095,1.4927,-1.5344,0.8369,-0.0352,-21.9375,-4.575,-11.325,,adl
4.791258,-0.1137,-1.4095,1.4927,-1.7232,1.0027,-0.5273,-21.9375,-4.575,-11.325,,adl
4.811567,-0.1137,-1.4095,1.4927,-1.7232,1.0027,-0.5273,-21.9375,-4.575,-11.325,,adl
4.813005,-0.3113,-3.9052,2.244,-1.7232,1.0027,-0.5273,-21.9375,-4.575,-11.325,,adl
4.825624,-0.3113,-3.9052,2.244,-1.7232,1.0027,-0.5273,-20.85,-2.4,-10.3688,,adl
4.85255,-0.3113,-3.9052,2.244,-1.5659,0.9694,0.1594,-20.85,-2.4,-10.3688,,adl
4.873246,-0.3113,-3.9052,2.244,-1.5659,0.9694,0.1594,-20.85,-2.4,-10.3688,,adl
4.874582,0.3508,-4.4153,5.9711,-1.5659,0.9694,0.1594,-20.85,-2.4,-10.3688,,adl
4.885756,0.3508,-4.4153,5.9711,-1.5659,0.9694,0.1594,-19.725,-0.2438,-9.2812,,adl
4.914668,0.3508,-4.4153,5.9711,-0.3349,-0.2143,-0.327,-19.725,-0.2438,-9.2812,,adl
4.933964,0.3508,-4.4153,5.9711,-0.3349,-0.2143,-0.327,-19.725,-0.2438,-9.2812,,adl
4.936439,-1.2799,0.0507,4.8423,-0.3349,-0.2143,-0.327,-19.725,-0.2438,-9.2812,,adl
4.946249,-1.2799,0.0507,4.8423,-0.3349,-0.2143,-0.327,-18.675,1.6125,-8.3438,,adl
4.974286,-1.2799,0.0507,4.8423,1.895,0.3012,-0.671,-18.675,1.6125,-8.3438,,adl
4.995437,-1.2799,0.0507,4.8423,1.895,0.3012,-0.671,-18.675,1.6125,-8.3438,,adl
5.005092,-1.2799,0.0507,4.8423,1.895,0.3012,-0.671,-17.8125,2.5125,-8.025,,adl
5.014463,-0.856,0.7509,6.362,1.895,0.3012,-0.671,-17.8125,2.5125,-8.025,,adl
5.035169,-0.856,0.7509,6.362,3.273,-0.2373,-0.5188,-17.8125,2.5125,-8.025,,adl
5.0552,-0.856,0.7509,6.362,3.273,-0.2373,-0.5188,-17.8125,2.5125,-8.025,,adl
5.06499,-0.856,0.7509,6.362,3.273,-0.2373,-0.5188,-17.2313,1.9313,-8.2875,,adl
5.075338,-2.2366,0.7572,1.1769,3.273,-0.2373,-0.5188,-17.2313,1.9313,-8.2875,,adl
5.095943,-2.2366,0.7572,1.1769,3.4022,-0.8188,-0.1382,-17.2313,1.9313,-8.2875,,adl
5.115891,-2.2366,0.7572,1.1769,3.4022,-0.8188,-0.1382,-17.2313,1.9313,-8.2875,,adl
5.126341,-2.2366,0.7572,1.1769,3.4022,-0.8188,-0.1382,-16.6313,-0.3563,-8.7,,adl
5.137037,-3.4646,-1.9856,-5.4122,3.4022,-0.8188,-0.1382,-16.6313,-0.3563,-8.7,,adl
5.155751,-3.4646,-1.9856,-5.4122,3.3582,-0.1567,0.9219,-16.6313,-0.3563,-8.7,,adl
5.177252,-3.4646,-1.9856,-5.4122,3.3582,-0.1567,0.9219,-16.6313,-0.3563,-8.7,,adl
5.18732,-3.4646,-1.9856,-5.4122,3.3582,-0.1567,0.9219,-16.0125,-4.1438,-9.3375,,adl
5.197303,-2.0478,-2.4507,-6.5307,3.3582,-0.1567,0.9219,-16.0125,-4.1438,-9.3375,,adl
5.217004,-2.0478,-2.4507,-6.5307,2.764,0.0318,0.8068,-16.0125,-4.1438,-9.3375,,adl
5.237759,-2.0478,-2.4507,-6.5307,2.764,0.0318,0.8068,-16.0125,-4.1438,-9.3375,,adl
5.24499,-2.0478,-2.4507,-6.5307,2.764,0.0318,0.8068,-15.15,-9.4313,-10.05,,adl
5.278563,-2.0478,-2.4507,-6.5307,1.5197,-0.5569,0.6716,-15.15,-9.4313,-10.05,,adl
5.280886,0.8307,-2.9823,-8.2099,1.5197,-0.5569,0.6716,-15.15,-9.4313,-10.05,,adl
5.29915,0.8307,-2.9823,-8.2099,1.5197,-0.5569,0.6716,-15.15,-9.4313,-10.05,,adl
5.304033,0.8307,-2.9823,-8.2099,1.5197,-0.5569,0.6716,-14.7,-15.5438,-10.7438,,adl
5.339423,0.8307,-2.9823,-8.2099,-0.2748,-1.0623,0.596,-14.7,-15.5438,-10.7438,,adl
5.341049,0.4331,-1.1366,-8.1502,-0.2748,-1.0623,0.596,-14.7,-15.5438,-10.7438,,adl
5.35997,0.4331,-1.1366,-8.1502,-0.2748,-1.0623,0.596,-14.7,-15.5438,-10.7438,,adl
5.364757,0.4331,-1.1366,-8.1502,-0.2748,-1.0623,0.596,-14.6625,-22.125,-11.85,,adl
5.402008,0.4331,-1.1366,-8.1502,-1.1003,-3.1344,-0.1609,-14.6625,-22.125,-11.85,,adl
5.404223,1.5015,0.7832,-7.569,-1.1003,-3.1344,-0.1609,-14.6625,-22.125,-11.85,,adl
5.419998,1.5015,0.7832,-7.569,-1.1003,-3.1344,-0.1609,-14.6625,-22.125,-11.85,,adl
5.424288,1.5015,0.7832,-7.569,-1.1003,-3.1344,-0.1609,-1.1813,-10.9313,-14.1375,,adl
5.460621,1.5015,0.7832,-7.569,-1.2465,-1.2015,-0.5216,-1.1813,-10.9313,-14.1375,,adl
5.481248,1.5015,0.7832,-7.569,-1.2465,-1.2015,-0.5216,-1.1813,-10.9313,-14.1375,,adl
5.484237,4.1069,-2.4445,1.6935,-1.2465,-1.2015,-0.5216,-1.1813,-10.9313,-14.1375,,adl
5.485871,4.1069,-2.4445,1.6935,-1.2465,-1.2015,-0.5216,-2.1188,-16.275,-14.4188,,adl
5.52291,4.1069,-2.4445,1.6935,-1.0907,-0.0921,0.6525,-2.1188,-16.275,-14.4188,,adl
5.542567,4.1069,-2.4445,1.6935,-1.0907,-0.0921,0.6525,-2.1188,-16.275,-14.4188,,adl
5.546093,0.1391,-1.0334,-0.216,-1.0907,-0.0921,0.6525,-2.1188,-16.275,-14.4188,,adl
5.547766,0.1391,-1.0334,-0.216,-1.0907,-0.0921,0.6525,-3.15,-20.1375,-14.4,,adl
5.582359,0.1391,-1.0334,-0.216,-1.1472,-0.7587,0.2668,-3.15,-20.1375,-14.4,,adl
5.603355,0.1391,-1.0334,-0.216,-1.1472,-0.7587,0.2668,-3.15,-20.1375,-14.4,,adl
5.605017,0.9779,0.2684,1.2343,-1.1472,-0.7587,0.2668,-3.15,-20.1375,-14.4,,adl
5.606833,0.9779,0.2684,1.2343,-1.1472,-0.7587,0.2668,-4.5188,-22.4625,-14.2313,,adl
5.645541,0.9779,0.2684,1.2343,-0.8985,-0.1067,0.2864,-4.5188,-22.4625,-14.2313,,adl
5.664136,0.9779,0.2684,1.2343,-0.8985,-0.1067,0.2864,-4.5188,-22.4625,-14.2313,,adl
5.66587,0.7393,-0.2635,1.4841,-0.8985,-0.1067,0.2864,-4.5188,-22.4625,-14.2313,,adl
5.666462,0.7393,-0.2635,1.4841,-0.8985,-0.1067,0.2864,-6.075,-23.175,-13.9125,,adl
5.708116,0.7393,-0.2635,1.4841,-0.4282,-0.0917,-0.0288,-6.075,-23.175,-13.9125,,adl
5.727102,0.7393,-0.2635,1.4841,-0.4282,-0.0917,-0.0288,-8.0438,-22.575,-13.9688,,adl
5.728933,0.7393,-0.2635,1.4841,-0.4282,-0.0917,-0.0288,-8.0438,-22.575,-13.9688,,adl
5.745444,0.3875,-0.7955,0.8044,-0.4282,-0.0917,-0.0288,-8.0438,-22.575,-13.9688,,adl
5.764867,0.3875,-0.7955,0.8044,-0.0956,0.0293,-0.0583,-8.0438,-22.575,-13.9688,,adl
5.785477,0.3875,-0.7955,0.8044,-0.0956,0.0293,-0.0583,-8.0438,-22.575,-13.9688,,adl
5.787005,0.3875,-0.7955,0.8044,-0.0956,0.0293,-0.0583,-9.9,-21.4125,-14.1563,,adl
5.806381,0.488,-0.3049,0.6261,-0.0956,0.0293,-0.0583,-9.9,-21.4125,-14.1563,,adl
5.827274,0.488,-0.3049,0.6261,-0.1016,0.014,-0.0296,-9.9,-21.4125,-14.1563,,adl
5.846322,0.488,-0.3049,0.6261,-0.1016,0.014,-0.0296,-11.4188,-20.025,-14.25,,adl
5.848691,0.488,-0.3049,0.6261,-0.1016,0.014,-0.0296,-11.4188,-20.025,-14.25,,adl
5.868838,0.1856,0.006,0.965,-0.1016,0.014,-0.0296,-11.4188,-20.025,-14.25,,adl
5.887482,0.1856,0.006,0.965,-0.2092,-0.069,-0.0679,-11.4188,-20.025,-14.25,,adl
5.90427,0.1856,0.006,0.965,-0.2092,-0.069,-0.0679,-12.0938,-18.7125,-14.475,,adl
5.906848,0.1856,0.006,0.965,-0.2092,-0.069,-0.0679,-12.0938,-18.7125,-14.475,,adl
5.950901,0.0181,0.035,0.9977,-0.2092,-0.069,-0.0679,-12.0938,-18.7125,-14.475,,adl
5.95299,0.0181,0.035,0.9977,-0.3196,-0.1148,-0.1521,-12.0938,-18.7125,-14.475,,adl
5.964866,0.0181,0.035,0.9977,-0.3196,-0.1148,-0.1521,-12.5438,-17.5875,-14.7563,,adl
5.967605,0.0181,0.035,0.9977,-0.3196,-0.1148,-0.1521,-12.5438,-17.5875,-14.7563,,adl
6.008533,0.0181,0.035,0.9977,-0.6177,-0.0996,-0.2706,-12.5438,-17.5875,-14.7563,,adl
6.010519,-0.0143,-0.0635,0.9467,-0.6177,-0.0996,-0.2706,-12.5438,-17.5875,-14.7563,,adl
6.026213,-0.0143,-0.0635,0.9467,-0.6177,-0.0996,-0.2706,-12.8438,-16.5188,-14.7188,,adl
6.027982,-0.0143,-0.0635,0.9467,-0.6177,-0.0996,-0.2706,-12.8438,-16.5188,-14.7188,,adl
6.070619,-0.0143,-0.0635,0.9467,-0.9603,-0.2015,-0.5333,-12.8438,-16.5188,-14.7188,,adl
6.073708,-0.4014,0.1524,1.3679,-0.9603,-0.2015,-0.5333,-12.8438,-16.5188,-14.7188,,adl
6.084232,-0.4014,0.1524,1.3679,-0.9603,-0.2015,-0.5333,-12.9,-15.6,-14.7938,,adl
6.089532,-0.4014,0.1524,1.3679,-0.9603,-0.2015,-0.5333,-12.9,-15.6,-14.7938,,adl
6.131824,-0.4014,0.1524,1.3679,-1.4159,-0.0871,-0.5947,-12.9,-15.6,-14.7938,,adl
6.13562,-0.0526,-0.2148,1.5271,-1.4159,-0.0871,-0.5947,-12.9,-15.6,-14.7938,,adl
6.144698,-0.0526,-0.2148,1.5271,-1.4159,-0.0871,-0.5947,-12.9563,-14.85,-15.075,,adl
6.151211,-0.0526,-0.2148,1.5271,-1.4159,-0.0871,-0.5947,-12.9563,-14.85,-15.075,,adl
6.192352,-0.0526,-0.2148,1.5271,-1.3605,-0.8778,-0.6699,-12.9563,-14.85,-15.075,,adl
6.203586,-0.0526,-0.2148,1.5271,-1.3605,-0.8778,-0.6699,-13.1625,-13.9125,-14.9063,,adl
6.210534,-0.0526,-0.2148,1.5271,-1.3605,-0.8778,-0.6699,-13.1625,-13.9125,-14.9063,,adl
6.211066,0.8867,-1.4333,1.4251,-1.3605,-0.8778,-0.6699,-13.1625,-13.9125,-14.9063,,adl
6.252906,0.8867,-1.4333,1.4251,-1.2842,-1.1883,-0.671,-13.1625,-13.9125,-14.9063,,adl
6.266251,0.8867,-1.4333,1.4251,-1.2842,-1.1883,-0.671,-13.6875,-12.825,-14.85,,adl
6.272887,0.8867,-1.4333,1.4251,-1.2842,-1.1883,-0.671,-13.6875,-12.825,-14.85,,adl
6.273427,0.1701,-3.2009,2.4099,-1.2842,-1.1883,-0.671,-13.6875,-12.825,-14.85,,adl
6.312227,0.1701,-3.2009,2.4099,-1.0004,-3.0472,-0.6145,-13.6875,-12.825,-14.85,,adl
6.324931,0.1701,-3.2009,2.4099,-1.0004,-3.0472,-0.6145,-14.7375,-11.625,-14.1188,,adl
6.334544,0.1701,-3.2009,2.4099,-1.0004,-3.0472,-0.6145,-14.7375,-11.625,-14.1188,,adl
6.336718,-0.1372,0.4254,1.3569,-1.0004,-3.0472,-0.6145,-14.7375,-11.625,-14.1188,,adl
6.375888,-0.1372,0.4254,1.3569,-0.13,-5.088,-1.3473,-14.7375,-11.625,-14.1188,,adl
6.384581,-0.1372,0.4254,1.3569,-0.13,-5.088,-1.3473,-16.6313,-10.7812,-11.9625,,adl
6.395644,-0.1372,0.4254,1.3569,-0.13,-5.088,-1.3473,-16.6313,-10.7812,-11.9625,,adl
6.415896,-1.4478,0.7929,4.511,-0.13,-5.088,-1.3473,-16.6313,-10.7812,-11.9625,,adl
6.435637,-1.4478,0.7929,4.511,0.9979,-2.4681,-1.348,-16.6313,-10.7812,-11.9625,,adl
6.445611,-1.4478,0.7929,4.511,0.9979,-2.4681,-1.348,-18.9375,-10.8,-8.6438,,adl
6.455798,-1.4478,0.7929,4.511,0.9979,-2.4681,-1.348,-18.9375,-10.8,-8.6438,,adl
6.475886,0.6538,0.5708,2.5322,0.9979,-2.4681,-1.348,-18.9375,-10.8,-8.6438,,adl
6.496442,0.6538,0.5708,2.5322,1.2719,-3.7721,-1.0324,-18.9375,-10.8,-8.6438,,adl
6.503539,0.6538,0.5708,2.5322,1.2719,-3.7721,-1.0324,-21.45,-12.1313,-4.3125,,adl
6.516755,0.6538,0.5708,2.5322,1.2719,-3.7721,-1.0324,-21.45,-12.1313,-4.3125,,adl
6.538627,-4.4347,-0.5737,0.2211,1.2719,-3.7721,-1.0324,-21.45,-12.1313,-4.3125,,adl
6.55676,-4.4347,-0.5737,0.2211,1.0184,-3.695,-0.5521,-21.45,-12.1313,-4.3125,,adl
6.566711,-4.4347,-0.5737,0.2211,1.0184,-3.695,-0.5521,-29.5125,-5.0813,-33.9563,,adl
6.578784,-4.4347,-0.5737,0.2211,1.0184,-3.695,-0.5521,-29.5125,-5.0813,-33.9563,,adl
6.599375,-3.5014,-0.4448,-2.8941,1.0184,-3.695,-0.5521,-29.5125,-5.0813,-33.9563,,adl
6.618538,-3.5014,-0.4448,-2.8941,0.8725,-2.4881,-0.398,-29.5125,-5.0813,-33.9563,,adl
6.624603,-3.5014,-0.4448,-2.8941,0.8725,-2.4881,-0.398,-31.3875,-7.6688,-26.3438,,adl
6.638675,-3.5014,-0.4448,-2.8941,0.8725,-2.4881,-0.398,-31.3875,-7.6688,-26.3438,,adl
6.680671,-3.5014,-0.4448,-2.8941,0.4961,-1.3534,0.2033,-31.3875,-7.6688,-26.3438,,adl
6.682925,-2.713,1.1391,-4.174,0.4961,-1.3534,0.2033,-31.3875,-7.6688,-26.3438,,adl
6.684875,-2.713,1.1391,-4.174,0.4961,-1.3534,0.2033,-32.7938,-10.575,-18.1125,,adl
6.69942,-2.713,1.1391,-4.174,0.4961,-1.3534,0.2033,-32.7938,-10.575,-18.1125,,adl
6.740104,-2.713,1.1391,-4.174,-0.2574,0.1358,0.8679,-32.7938,-10.575,-18.1125,,adl
6.742153,-3.3757,2.3342,-6.5196,-0.2574,0.1358,0.8679,-32.7938,-10.575,-18.1125,,adl
6.745114,-3.3757,2.3342,-6.5196,-0.2574,0.1358,0.8679,-33.9938,-13.5563,-10.0312,,adl
6.759303,-3.3757,2.3342,-6.5196,-0.2574,0.1358,0.8679,-33.9938,-13.5563,-10.0312,,adl
6.801066,-3.3757,2.3342,-6.5196,-0.3882,-1.4634,-0.5276,-33.9938,-13.5563,-10.0312,,adl
6.803677,-0.0351,-2.1389,-0.8143,-0.3882,-1.4634,-0.5276,-33.9938,-13.5563,-10.0312,,adl
6.804802,-0.0351,-2.1389,-0.8143,-0.3882,-1.4634,-0.5276,-34.4813,-16.8375,-2.1,,adl
6.821523,-0.0351,-2.1389,-0.8143,-0.3882,-1.4634,-0.5276,-34.4813,-16.8375,-2.1,,adl
6.864299,-0.0351,-2.1389,-0.8143,-0.2216,-0.9266,-0.065,-34.4813,-16.8375,-2.1,,adl
6.867744,-0.0351,-2.1389,-0.8143,-0.2216,-0.9266,-0.065,-33.8625,-19.7812,4.5,,adl
6.881733,-0.0351,-2.1389,-0.8143,-0.2216,-0.9266,-0.065,-33.8625,-19.7812,4.5,,adl
6.883417,1.1506,0.1024,-0.4933,-0.2216,-0.9266,-0.065,-33.8625,-19.7812,4.5,,adl
6.924054,1.1506,0.1024,-0.4933,-0.1491,-0.3977,0.1,-33.8625,-19.7812,4.5,,adl
6.926841,1.1506,0.1024,-0.4933,-0.1491,-0.3977,0.1,-32.7375,-22.0312,10.125,,adl
6.943931,1.1506,0.1024,-0.4933,-0.1491,-0.3977,0.1,-32.7375,-22.0312,10.125,,adl
6.946729,1.3007,-0.4942,0.1833,-0.1491,-0.3977,0.1,-32.7375,-22.0312,10.125,,adl
6.98455,1.3007,-0.4942,0.1833,0.0194,-0.2579,0.0166,-32.7375,-22.0312,10.125,,adl
6.987458,1.3007,-0.4942,0.1833,0.0194,-0.2579,0.0166,-31.3125,-23.0438,14.55,,adl
7.004776,1.3007,-0.4942,0.1833,0.0194,-0.2579,0.0166,-31.3125,-23.0438,14.55,,adl
7.006353,0.9047,-0.4132,-0.0651,0.0194,-0.2579,0.0166,-31.3125,-23.0438,14.55,,adl
7.047646,0.9047,-0.4132,-0.0651,0.0194,-0.2579,0.0166,-29.925,-23.475,17.4375,,adl
7.050364,0.9047,-0.4132,-0.0651,0.1192,-0.1589,-0.0916,-29.925,-23.475,17.4375,,adl
7.065967,0.9047,-0.4132,-0.0651,0.1192,-0.1589,-0.0916,-29.925,-23.475,17.4375,,adl
7.067075,0.3896,-0.1486,-0.0472,0.1192,-0.1589,-0.0916,-29.925,-23.475,17.4375,,adl
7.106437,0.3896,-0.1486,-0.0472,0.1241,-0.0939,-0.1687,-29.925,-23.475,17.4375,,adl
7.108123,0.3896,-0.1486,-0.0472,0.1241,-0.0939,-0.1687,-28.95,-23.55,19.05,,adl
7.126023,0.3896,-0.1486,-0.0472,0.1241,-0.0939,-0.1687,-28.95,-23.55,19.05,,adl
7.147609,0.1482,0.0531,0.1592,0.1241,-0.0939,-0.1687,-28.95,-23.55,19.05,,adl
7.166782,0.1482,0.0531,0.1592,0.0744,-0.0304,-0.163,-28.95,-23.55,19.05,,adl
7.168946,0.1482,0.0531,0.1592,0.0744,-0.0304,-0.163,-28.3125,-23.6063,19.8188,,adl
7.187491,0.1482,0.0531,0.1592,0.0744,-0.0304,-0.163,-28.3125,-23.6063,19.8188,,adl
7.207317,0.4986,0.0106,0.1524,0.0744,-0.0304,-0.163,-28.3125,-23.6063,19.8188,,adl
7.226788,0.4986,0.0106,0.1524,0.0173,-0.0811,-0.2454,-28.3125,-23.6063,19.8188,,adl
7.229852,0.4986,0.0106,0.1524,0.0173,-0.0811,-0.2454,-27.4125,-23.9625,20.7563,,adl
7.250397,0.4986,0.0106,0.1524,0.0173,-0.0811,-0.2454,-27.4125,-23.9625,20.7563,,adl
7.268214,0.1354,0.0822,0.2332,0.0173,-0.0811,-0.2454,-27.4125,-23.9625,20.7563,,adl
7.285501,0.1354,0.0822,0.2332,0.0173,-0.0811,-0.2454,-26.6813,-24.225,21.1688,,adl
7.287764,0.1354,0.0822,0.2332,0.0318,-0.2294,-0.4189,-26.6813,-24.225,21.1688,,adl
7.309929,0.1354,0.0822,0.2332,0.0318,-0.2294,-0.4189,-26.6813,-24.225,21.1688,,adl
7.348662,0.1354,0.0822,0.2332,0.0318,-0.2294,-0.4189,-25.9125,-24.375,21.75,,adl
7.351699,0.1354,0.0822,0.2332,0.1646,-0.2039,-0.6452,-25.9125,-24.375,21.75,,adl
7.353627,-0.1823,0.0157,0.1089,0.1646,-0.2039,-0.6452,-25.9125,-24.375,21.75,,adl
7.369843,-0.1823,0.0157,0.1089,0.1646,-0.2039,-0.6452,-25.9125,-24.375,21.75,,adl
7.405658,-0.1823,0.0157,0.1089,0.1646,-0.2039,-0.6452,-25.2563,-24.5063,22.1625,,adl
7.409642,-0.1823,0.0157,0.1089,0.542,0.0627,-0.8095,-25.2563,-24.5063,22.1625,,adl
7.41137,-0.1764,-0.1597,-0.0177,0.542,0.0627,-0.8095,-25.2563,-24.5063,22.1625,,adl
7.43042,-0.1764,-0.1597,-0.0177,0.542,0.0627,-0.8095,-25.2563,-24.5063,22.1625,,adl
7.46488,-0.1764,-0.1597,-0.0177,0.542,0.0627,-0.8095,-24.4875,-24.9938,22.7812,,adl
7.473661,-0.1764,-0.1597,-0.0177,-0.0153,-0.2373,-0.7513,-24.4875,-24.9938,22.7812,,adl
7.475582,-0.6196,-0.4,0.3889,-0.0153,-0.2373,-0.7513,-24.4875,-24.9938,22.7812,,adl
7.492721,-0.6196,-0.4,0.3889,-0.0153,-0.2373,-0.7513,-24.4875,-24.9938,22.7812,,adl
7.525113,-0.6196,-0.4,0.3889,-0.0153,-0.2373,-0.7513,-23.3438,-25.5188,23.1938,,adl
7.531557,-0.6196,-0.4,0.3889,-0.91,-1.6055,-0.4296,-23.3438,-25.5188,23.1938,,adl
7.532753,-1.3305,0.3708,-0.2522,-0.91,-1.6055,-0.4296,-23.3438,-25.5188,23.1938,,adl
7.551233,-1.3305,0.3708,-0.2522,-0.91,-1.6055,-0.4296,-23.3438,-25.5188,23.1938,,adl
7.585491,-1.3305,0.3708,-0.2522,-0.91,-1.6055,-0.4296,-21.6,-26.025,23.625,,adl
7.592488,-1.3305,0.3708,-0.2522,-1.703,-3.9208,0.1696,-21.6,-26.025,23.625,,adl
7.613473,-1.3305,0.3708,-0.2522,-1.703,-3.9208,0.1696,-21.6,-26.025,23.625,,adl
7.615433,-4.6538,-0.7496,0.5303,-1.703,-3.9208,0.1696,-21.6,-26.025,23.625,,adl
7.646948,-4.6538,-0.7496,0.5303,-1.703,-3.9208,0.1696,-18.825,-26.7375,24.1688,,adl
7.659698,-4.6538,-0.7496,0.5303,-1.6115,-3.5324,0.0987,-18.825,-26.7375,24.1688,,adl
7.673651,-4.6538,-0.7496,0.5303,-1.6115,-3.5324,0.0987,-18.825,-26.7375,24.1688,,adl
7.674979,-1.5715,-0.7837,2.059,-1.6115,-3.5324,0.0987,-18.825,-26.7375,24.1688,,adl
7.707325,-1.5715,-0.7837,2.059,-1.6115,-3.5324,0.0987,-20.1562,-23.8875,27.2063,,adl
7.71421,-1.5715,-0.7837,2.059,-0.828,-4.0638,0.0521,-20.1562,-23.8875,27.2063,,adl
7.734903,-1.5715,-0.7837,2.059,-0.828,-4.0638,0.0521,-20.1562,-23.8875,27.2063,,adl
7.737083,0.3465,-1.0491,3.662,-0.828,-4.0638,0.0521,-20.1562,-23.8875,27.2063,,adl
7.766453,0.3465,-1.0491,3.662,-0.828,-4.0638,0.0521,-15.375,-23.625,27.8063,,adl
7.775488,0.3465,-1.0491,3.662,0.5984,-2.9317,-0.2156,-15.375,-23.625,27.8063,,adl
7.795934,0.3465,-1.0491,3.662,0.5984,-2.9317,-0.2156,-15.375,-23.625,27.8063,,adl
7.816595,0.5651,-0.0235,2.8699,0.5984,-2.9317,-0.2156,-15.375,-23.625,27.8063,,adl
7.824445,0.5651,-0.0235,2.8699,0.5984,-2.9317,-0.2156,-9.9,-22.65,28.05,,adl
7.835646,0.5651,-0.0235,2.8699,2.0976,-0.8827,-0.0132,-9.9,-22.65,28.05,,adl
7.856208,0.5651,-0.0235,2.8699,2.0976,-0.8827,-0.0132,-9.9,-22.65,28.05,,adl
7.876498,0.6198,0.2474,0.2332,2.0976,-0.8827,-0.0132,-9.9,-22.65,28.05,,adl
7.885021,0.6198,0.2474,0.2332,2.0976,-0.8827,-0.0132,-4.1813,-20.2688,28.3313,,adl
7.89785,0.6198,0.2474,0.2332,2.9297,-0.2284,0.4724,-4.1813,-20.2688,28.3313,,adl
7.917605,0.6198,0.2474,0.2332,2.9297,-0.2284,0.4724,-4.1813,-20.2688,28.3313,,adl
7.937968,-0.5508,-1.3769,-2.72,2.9297,-0.2284,0.4724,-4.1813,-20.2688,28.3313,,adl
7.946126,-0.5508,-1.3769,-2.72,2.9297,-0.2284,0.4724,-0.1688,-16.6313,31.7813,,adl
7.958187,-0.5508,-1.3769,-2.72,3.0309,0.2756,0.5828,-0.1688,-16.6313,31.7813,,adl
7.98025,-0.5508,-1.3769,-2.72,3.0309,0.2756,0.5828,-0.1688,-16.6313,31.7813,,adl
8.001534,1.486,-2.7694,-5.6689,3.0309,0.2756,0.5828,-0.1688,-16.6313,31.7813,,adl
8.004784,1.486,-2.7694,-5.6689,3.0309,0.2756,0.5828,5.4938,-11.9062,31.6125,,adl
8.019399,1.486,-2.7694,-5.6689,2.0064,-0.2682,0.3723,5.4938,-11.9062,31.6125,,adl
8.039224,1.486,-2.7694,-5.6689,2.0064,-0.2682,0.3723,5.4938,-11.9062,31.6125,,adl
8.065005,1.486,-2.7694,-5.6689,2.0064,-0.2682,0.3723,10.6125,-6.75,31.1438,,adl
8.07938,1.486,-2.7694,-5.6689,-0.4325,-0.2007,-0.355,10.6125,-6.75,31.1438,,adl
8.080566,2.1046,-2.3603,-9.1741,-0.4325,-0.2007,-0.355,10.6125,-6.75,31.1438,,adl
8.099048,2.1046,-2.3603,-9.1741,-0.4325,-0.2007,-0.355,10.6125,-6.75,31.1438,,adl
8.123979,2.1046,-2.3603,-9.1741,-0.4325,-0.2007,-0.355,14.6625,-1.3688,30.6563,,adl
8.140938,2.1046,-2.3603,-9.1741,-0.884,0.171,-0.2621,14.6625,-1.3688,30.6563,,adl
8.142411,2.9083,0.9109,-11.4183,-0.884,0.171,-0.2621,14.6625,-1.3688,30.6563,,adl
8.160575,2.9083,0.9109,-11.4183,-0.884,0.171,-0.2621,14.6625,-1.3688,30.6563,,adl
8.184317,2.9083,0.9109,-11.4183,-0.884,0.171,-0.2621,17.5125,3.6563,30.2438,,adl
8.201931,2.9083,0.9109,-11.4183,-1.3637,0.0531,0.7923,17.5125,3.6563,30.2438,,adl
8.204128,3.2202,-3.1958,4.2797,-1.3637,0.0531,0.7923,17.5125,3.6563,30.2438,,adl
8.222127,3.2202,-3.1958,4.2797,-1.3637,0.0531,0.7923,17.5125,3.6563,30.2438,,adl
8.24707,3.2202,-3.1958,4.2797,-1.3637,0.0531,0.7923,19.2375,7.8,30.15,,adl
8.262356,3.2202,-3.1958,4.2797,-0.9571,0.1469,0.3727,19.2375,7.8,30.15,,adl
8.283466,3.2202,-3.1958,4.2797,-0.9571,0.1469,0.3727,19.2375,7.8,30.15,,adl
8.286229,-2.2459,-0.0427,-0.6059,-0.9571,0.1469,0.3727,19.2375,7.8,30.15,,adl
8.3051,-2.2459,-0.0427,-0.6059,-0.9571,0.1469,0.3727,20.325,10.5938,29.9813,,adl
8.323683,-2.2459,-0.0427,-0.6059,-1.0115,-0.0988,0.1739,20.325,10.5938,29.9813,,adl
8.345153,-2.2459,-0.0427,-0.6059,-1.0115,-0.0988,0.1739,20.325,10.5938,29.9813,,adl
8.34791,-0.6859,0.4269,1.2435,-1.0115,-0.0988,0.1739,20.325,10.5938,29.9813,,adl
8.366265,-0.6859,0.4269,1.2435,-1.0115,-0.0988,0.1739,20.9625,11.7188,29.8688,,adl
8.386504,-0.6859,0.4269,1.2435,-0.8155,0.2984,0.0284,20.9625,11.7188,29.8688,,adl
8.405908,-0.6859,0.4269,1.2435,-0.8155,0.2984,0.0284,20.9625,11.7188,29.8688,,adl
8.407514,0.8386,-0.5752,0.4513,-0.8155,0.2984,0.0284,20.9625,11.7188,29.8688,,adl
8.425591,0.8386,-0.5752,0.4513,-0.8155,0.2984,0.0284,21.4125,11.325,29.9063,,adl
8.446986,0.8386,-0.5752,0.4513,-0.5092,0.2562,0.0162,21.4125,11.325,29.9063,,adl
8.466801,0.8386,-0.5752,0.4513,-0.5092,0.2562,0.0162,21.4125,11.325,29.9063,,adl
8.468901,-0.485,-0.2309,0.7359,-0.5092,0.2562,0.0162,21.4125,11.325,29.9063,,adl
8.486234,-0.485,-0.2309,0.7359,-0.5092,0.2562,0.0162,21.45,9.975,30.2625,,adl
8.506734,-0.485,-0.2309,0.7359,-0.4225,0.1648,0.0443,21.45,9.975,30.2625,,adl
8.526883,-0.485,-0.2309,0.7359,-0.4225,0.1648,0.0443,21.45,9.975,30.2625,,adl
8.547906,-0.485,-0.2309,0.7359,-0.4225,0.1648,0.0443,21.3,8.2125,30.8625,,adl
8.550147,-0.2156,0.0082,0.7163,-0.4225,0.1648,0.0443,21.3,8.2125,30.8625,,adl
8.567294,-0.2156,0.0082,0.7163,-0.4314,0.0694,0.0763,21.3,8.2125,30.8625,,adl
8.58955,-0.2156,0.0082,0.7163,-0.4314,0.0694,0.0763,21.3,8.2125,30.8625,,adl
8.606174,-0.2156,0.0082,0.7163,-0.4314,0.0694,0.0763,21.1875,6.2625,31.2375,,adl
8.60865,-0.0858,-0.0468,0.7195,-0.4314,0.0694,0.0763,21.1875,6.2625,31.2375,,adl
8.628896,-0.0858,-0.0468,0.7195,-0.3711,0.1454,0.077,21.1875,6.2625,31.2375,,adl
8.648113,-0.0858,-0.0468,0.7195,-0.3711,0.1454,0.077,21.1875,6.2625,31.2375,,adl
8.66565,-0.0858,-0.0468,0.7195,-0.3711,0.1454,0.077,21.0563,4.425,31.8,,adl
8.6678,-0.1174,-0.2071,0.7512,-0.3711,0.1454,0.077,21.0563,4.425,31.8,,adl
8.689792,-0.1174,-0.2071,0.7512,-0.5113,0.3545,0.072,21.0563,4.425,31.8,,adl
8.710238,-0.1174,-0.2071,0.7512,-0.5113,0.3545,0.072,21.0563,4.425,31.8,,adl
8.726494,-0.1174,-0.2071,0.7512,-0.5113,0.3545,0.072,20.7563,2.6438,31.9688,,adl
8.75001,-0.1174,-0.2071,0.7512,-0.9337,0.3764,-0.0668,20.7563,2.6438,31.9688,,adl
8.753749,-0.1723,-0.0838,1.0125,-0.9337,0.3764,-0.0668,20.7563,2.6438,31.9688,,adl
8.771163,-0.1723,-0.0838,1.0125,-0.9337,0.3764,-0.0668,20.7563,2.6438,31.9688,,adl
8.78552,-0.1723,-0.0838,1.0125,-0.9337,0.3764,-0.0668,20.3063,1.0312,32.2688,,adl
8.811765,-0.1723,-0.0838,1.0125,-1.2831,0.5117,-0.1585,20.3063,1.0312,32.2688,,adl
8.814972,-0.5915,-0.0729,1.472,-1.2831,0.5117,-0.1585,20.3063,1.0312,32.2688,,adl
8.830855,-0.5915,-0.0729,1.472,-1.2831,0.5117,-0.1585,20.3063,1.0312,32.2688,,adl
8.845223,-0.5915,-0.0729,1.472,-1.2831,0.5117,-0.1585,19.7063,-0.525,32.4938,,adl
8.874639,-0.5915,-0.0729,1.472,-1.4815,0.9232,-0.2993,19.7063,-0.525,32.4938,,adl
8.877981,0.0234,-1.1753,1.4156,-1.4815,0.9232,-0.2993,19.7063,-0.525,32.4938,,adl
8.892449,0.0234,-1.1753,1.4156,-1.4815,0.9232,-0.2993,19.7063,-0.525,32.4938,,adl
8.905073,0.0234,-1.1753,1.4156,-1.4815,0.9232,-0.2993,18.8438,-2.325,32.4563,,adl
8.935311,0.0234,-1.1753,1.4156,-1.9782,0.9513,-0.5649,18.8438,-2.325,32.4563,,adl
8.939744,-0.9384,-3.4942,2.5028,-1.9782,0.9513,-0.5649,18.8438,-2.325,32.4563,,adl
8.954671,-0.9384,-3.4942,2.5028,-1.9782,0.9513,-0.5649,18.8438,-2.325,32.4563,,adl
8.967107,-0.9384,-3.4942,2.5028,-1.9782,0.9513,-0.5649,17.775,-4.5938,32.4,,adl
8.996061,-0.9384,-3.4942,2.5028,-1.795,0.2778,0.1011,17.775,-4.5938,32.4,,adl
9.014223,-0.9384,-3.4942,2.5028,-1.795,0.2778,0.1011,17.775,-4.5938,32.4,,adl
9.016186,1.4454,-4.6292,4.3806,-1.795,0.2778,0.1011,17.775,-4.5938,32.4,,adl
9.024823,1.4454,-4.6292,4.3806,-1.795,0.2778,0.1011,16.8188,-7.4063,32.1562,,adl
9.054054,1.4454,-4.6292,4.3806,-0.2593,0.2814,-0.4293,16.8188,-7.4063,32.1562,,adl
9.075302,-0.575,-0.5694,4.4425,-0.2593,0.2814,-0.4293,16.8188,-7.4063,32.1562,,adl
9.077349,-0.575,-0.5694,4.4425,-0.2593,0.2814,-0.4293,16.8188,-7.4063,32.1562,,adl
9.086445,-0.575,-0.5694,4.4425,-0.2593,0.2814,-0.4293,16.1063,-9.6,32.025,,adl
9.117872,-0.575,-0.5694,4.4425,1.6894,0.5188,-0.6121,16.1063,-9.6,32.025,,adl
9.138689,-0.575,-0.5694,4.4425,1.6894,0.5188,-0.6121,16.1063,-9.6,32.025,,adl
9.140295,-1.5453,0.6132,6.4619,1.6894,0.5188,-0.6121,16.1063,-9.6,32.025,,adl
9.143581,-1.5453,0.6132,6.4619,1.6894,0.5188,-0.6121,15.825,-10.9688,32.025,,adl
9.178659,-1.5453,0.6132,6.4619,2.8961,-0.8312,-0.5621,15.825,-10.9688,32.025,,adl
9.198229,-1.5453,0.6132,6.4619,2.8961,-0.8312,-0.5621,15.825,-10.9688,32.025,,adl
9.206698,-1.5453,0.6132,6.4619,2.8961,-0.8312,-0.5621,15.9375,-11.0625,32.0063,,adl
9.21636,-2.5077,1.3607,2.1155,2.8961,-0.8312,-0.5621,15.9375,-11.0625,32.0063,,adl
9.239055,-2.5077,1.3607,2.1155,3.5897,-1.6729,-0.2237,15.9375,-11.0625,32.0063,,adl
9.259054,-2.5077,1.3607,2.1155,3.5897,-1.6729,-0.2237,15.9375,-11.0625,32.0063,,adl
9.264857,-2.5077,1.3607,2.1155,3.5897,-1.6729,-0.2237,16.5938,-9.5063,31.6125,,adl
9.280816,-3.4537,-0.4977,-2.1685,3.5897,-1.6729,-0.2237,16.5938,-9.5063,31.6125,,adl
9.299719,-3.4537,-0.4977,-2.1685,3.9547,-0.5132,0.2378,16.5938,-9.5063,31.6125,,adl
9.322882,-3.4537,-0.4977,-2.1685,3.9547,-0.5132,0.2378,16.5938,-9.5063,31.6125,,adl
9.326564,-3.4537,-0.4977,-2.1685,3.9547,-0.5132,0.2378,17.625,-6.7313,30.9188,,adl
9.340694,-2.4416,-3.7012,-5.1191,3.9547,-0.5132,0.2378,17.625,-6.7313,30.9188,,adl
9.358695,-2.4416,-3.7012,-5.1191,3.4512,1.9662,0.6819,17.625,-6.7313,30.9188,,adl
9.379758,-2.4416,-3.7012,-5.1191,3.4512,1.9662,0.6819,17.625,-6.7313,30.9188,,adl
9.384254,-2.4416,-3.7012,-5.1191,3.4512,1.9662,0.6819,18.2063,-2.7938,30.2063,,adl
9.399691,0.7738,-4.5471,-8.516,3.4512,1.9662,0.6819,18.2063,-2.7938,30.2063,,adl
9.419868,0.7738,-4.5471,-8.516,1.2701,0.5089,0.4703,18.2063,-2.7938,30.2063,,adl
9.440607,0.7738,-4.5471,-8.516,1.2701,0.5089,0.4703,18.2063,-2.7938,30.2063,,adl
9.445115,0.7738,-4.5471,-8.516,1.2701,0.5089,0.4703,19.0312,1.9313,29.4,,adl
9.483467,1.7277,-1.0248,-10.9282,1.2701,0.5089,0.4703,19.0312,1.9313,29.4,,adl
9.487719,1.7277,-1.0248,-10.9282,-1.3366,-1.2526,0.3056,19.0312,1.9313,29.4,,adl
9.503278,1.7277,-1.0248,-10.9282,-1.3366,-1.2526,0.3056,19.0312,1.9313,29.4,,adl
9.504896,1.7277,-1.0248,-10.9282,-1.3366,-1.2526,0.3056,20.0438,6.75,28.9125,,adl
9.544564,2.0011,0.7101,-7.7185,-1.3366,-1.2526,0.3056,20.0438,6.75,28.9125,,adl
9.547429,2.0011,0.7101,-7.7185,-1.5077,-1.63,-0.6735,20.0438,6.75,28.9125,,adl
9.562983,2.0011,0.7101,-7.7185,-1.5077,-1.63,-0.6735,20.0438,6.75,28.9125,,adl
9.564103,2.0011,0.7101,-7.7185,-1.5077,-1.63,-0.6735,21.0375,10.6875,28.3688,,adl
9.60495,2.0011,0.7101,-7.7185,-1.6217,-0.5188,0.5683,21.0375,10.6875,28.3688,,adl
9.608546,3.0153,-3.1339,1.4843,-1.6217,-0.5188,0.5683,21.0375,10.6875,28.3688,,adl
9.62484,3.0153,-3.1339,1.4843,-1.6217,-0.5188,0.5683,21.0375,10.6875,28.3688,,adl
9.627038,3.0153,-3.1339,1.4843,-1.6217,-0.5188,0.5683,21.8625,13.4625,27.6188,,adl
9.665711,3.0153,-3.1339,1.4843,-1.2362,-0.3236,0.1835,21.8625,13.4625,27.6188,,adl
9.669771,-0.6061,-0.5641,1.1018,-1.2362,-0.3236,0.1835,21.8625,13.4625,27.6188,,adl
9.687493,-0.6061,-0.5641,1.1018,-1.2362,-0.3236,0.1835,21.8625,13.4625,27.6188,,adl
9.694038,-0.6061,-0.5641,1.1018,-1.2362,-0.3236,0.1835,22.4062,14.8688,26.85,,adl
9.72603,-0.6061,-0.5641,1.1018,-1.1768,-0.1269,0.3329,22.4062,14.8688,26.85,,adl
9.74606,-0.6061,-0.5641,1.1018,-1.1768,-0.1269,0.3329,22.4062,14.8688,26.85,,adl
9.747931,-0.6061,-0.5641,1.1018,-1.1768,-0.1269,0.3329,22.575,14.7375,26.3063,,adl
9.74977,1.1841,-0.7777,1.3034,-1.1768,-0.1269,0.3329,22.575,14.7375,26.3063,,adl
9.78959,1.1841,-0.7777,1.3034,-0.8397,-0.1844,0.1501,22.575,14.7375,26.3063,,adl
9.809025,1.1841,-0.7777,1.3034,-0.8397,-0.1844,0.1501,22.5563,13.425,25.9875,,adl
9.813017,1.1841,-0.7777,1.3034,-0.8397,-0.1844,0.1501,22.5563,13.425,25.9875,,adl
9.815257,-0.3628,-0.1335,1.5307,-0.8397,-0.1844,0.1501,22.5563,13.425,25.9875,,adl
9.848457,-0.3628,-0.1335,1.5307,-0.4594,0.0943,0.1234,22.5563,13.425,25.9875,,adl
9.868708,-0.3628,-0.1335,1.5307,-0.4594,0.0943,0.1234,23.2313,11.1188,25.9313,,adl
9.8713,-0.3628,-0.1335,1.5307,-0.4594,0.0943,0.1234,23.2313,11.1188,25.9313,,adl
9.872848,0.6104,-0.6569,0.8192,-0.4594,0.0943,0.1234,23.2313,11.1188,25.9313,,adl
9.908711,0.6104,-0.6569,0.8192,-0.3115,0.1039,0.1373,23.2313,11.1188,25.9313,,adl
9.925154,0.6104,-0.6569,0.8192,-0.3115,0.1039,0.1373,23.9438,8.5688,26.025,,adl
9.92808,0.6104,-0.6569,0.8192,-0.3115,0.1039,0.1373,23.9438,8.5688,26.025,,adl
9.94977,0.134,-0.2039,0.9226,-0.3115,0.1039,0.1373,23.9438,8.5688,26.025,,adl
9.967339,0.134,-0.2039,0.9226,-0.2557,0.1827,0.1309,23.9438,8.5688,26.025,,adl
9.988747,0.134,-0.2039,0.9226,-0.2557,0.1827,0.1309,24.4875,6.3,26.0063,,adl
9.991715,0.134,-0.2039,0.9226,-0.2557,0.1827,0.1309,24.4875,6.3,26.0063,,adl
10.008629,0.0607,-0.2292,0.8508,-0.2557,0.1827,0.1309,24.4875,6.3,26.0063,,adl
10.031118,0.0607,-0.2292,0.8508,-0.2546,0.2413,0.1264,24.4875,6.3,26.0063,,adl
10.046831,0.0607,-0.2292,0.8508,-0.2546,0.2413,0.1264,24.6563,4.3688,26.025,,adl
10.048864,0.0607,-0.2292,0.8508,-0.2546,0.2413,0.1264,24.6563,4.3688,26.025,,adl
10.070588,0.0439,-0.1479,0.8004,-0.2546,0.2413,0.1264,24.6563,4.3688,26.025,,adl
10.090801,0.0439,-0.1479,0.8004,-0.4924,0.3159,0.0578,24.6563,4.3688,26.025,,adl
10.105499,0.0439,-0.1479,0.8004,-0.4924,0.3159,0.0578,24.4875,2.85,26.025,,adl
10.109855,0.0439,-0.1479,0.8004,-0.4924,0.3159,0.0578,24.4875,2.85,26.025,,adl
10.13252,-0.0536,-0.1881,1.1063,-0.4924,0.3159,0.0578,24.4875,2.85,26.025,,adl
10.152261,-0.0536,-0.1881,1.1063,-1.0055,0.4222,-0.1393,24.4875,2.85,26.025,,adl
10.167829,-0.0536,-0.1881,1.1063,-1.0055,0.4222,-0.1393,18.2438,-2.1,34.5938,,adl
10.174616,-0.0536,-0.1881,1.1063,-1.0055,0.4222,-0.1393,18.2438,-2.1,34.5938,,adl
10.214218,-0.0536,-0.1881,1.1063,-1.3147,0.8654,-0.2806,18.2438,-2.1,34.5938,,adl
10.217832,-0.4071,-0.458,1.8245,-1.3147,0.8654,-0.2806,18.2438,-2.1,34.5938,,adl
10.226223,-0.4071,-0.458,1.8245,-1.3147,0.8654,-0.2806,17.7375,-3.525,34.7438,,adl
10.232137,-0.4071,-0.458,1.8245,-1.3147,0.8654,-0.2806,17.7375,-3.525,34.7438,,adl
10.276441,-0.4071,-0.458,1.8245,-1.8478,0.7187,-0.6348,17.7375,-3.525,34.7438,,adl
10.279146,-0.5906,-2.6719,2.2153,-1.8478,0.7187,-0.6348,17.7375,-3.525,34.7438,,adl
10.287464,-0.5906,-2.6719,2.2153,-1.8478,0.7187,-0.6348,17.1938,-5.0625,35.1938,,adl
10.292173,-0.5906,-2.6719,2.2153,-1.8478,0.7187,-0.6348,17.1938,-5.0625,35.1938,,adl
10.336231,-0.5906,-2.6719,2.2153,-1.9931,0.8476,-0.157,17.1938,-5.0625,35.1938,,adl
10.340871,0.8606,-3.9371,2.8675,-1.9931,0.8476,-0.157,17.1938,-5.0625,35.1938,,adl
10.351594,0.8606,-3.9371,2.8675,-1.9931,0.8476,-0.157,16.2563,-6.975,35.3625,,adl
10.357244,0.8606,-3.9371,2.8675,-1.9931,0.8476,-0.157,16.2563,-6.975,35.3625,,adl
10.395542,0.8606,-3.9371,2.8675,-1.3413,-0.0839,0.5183,16.2563,-6.975,35.3625,,adl
10.407191,0.8606,-3.9371,2.8675,-1.3413,-0.0839,0.5183,15.2438,-9.2812,35.4188,,adl
10.415082,0.8606,-3.9371,2.8675,-1.3413,-0.0839,0.5183,15.2438,-9.2812,35.4188,,adl
10.416125,-0.5164,-3.3209,5.9102,-1.3413,-0.0839,0.5183,15.2438,-9.2812,35.4188,,adl
10.457926,-0.5164,-3.3209,5.9102,0.6954,0.3155,-0.1495,15.2438,-9.2812,35.4188,,adl
10.466451,-0.5164,-3.3209,5.9102,0.6954,0.3155,-0.1495,14.175,-11.4375,35.5875,,adl
10.475686,-0.5164,-3.3209,5.9102,0.6954,0.3155,-0.1495,14.175,-11.4375,35.5875,,adl
10.476911,-2.185,0.0059,5.6455,0.6954,0.3155,-0.1495,14.175,-11.4375,35.5875,,adl
10.518237,-2.185,0.0059,5.6455,2.4115,0.3645,0.0252,14.175,-11.4375,35.5875,,adl
10.525949,-2.185,0.0059,5.6455,2.4115,0.3645,0.0252,13.1625,-12.9375,36.15,,adl
10.536341,-2.185,0.0059,5.6455,2.4115,0.3645,0.0252,13.1625,-12.9375,36.15,,adl
10.537849,-1.0761,2.1216,4.3724,2.4115,0.3645,0.0252,13.1625,-12.9375,36.15,,adl
10.579361,-1.0761,2.1216,4.3724,3.6159,0.0634,0.3312,13.1625,-12.9375,36.15,,adl
10.584672,-1.0761,2.1216,4.3724,3.6159,0.0634,0.3312,12.0375,-13.3875,37.0875,,adl
10.598322,-0.7644,0.7304,0.2783,3.6159,0.0634,0.3312,12.0375,-13.3875,37.0875,,adl
10.599703,-0.7644,0.7304,0.2783,3.6159,0.0634,0.3312,12.0375,-13.3875,37.0875,,adl
10.642879,-0.7644,0.7304,0.2783,4.3114,0.859,0.8982,12.0375,-13.3875,37.0875,,adl
10.646978,-0.7644,0.7304,0.2783,4.3114,0.859,0.8982,20.0625,-10.0875,2.9813,,adl
10.65951,-0.7644,0.7304,0.2783,4.3114,0.859,0.8982,20.0625,-10.0875,2.9813,,adl
10.678839,0.2571,-2.6767,-3.6594,4.3114,0.859,0.8982,20.0625,-10.0875,2.9813,,adl
10.701955,0.2571,-2.6767,-3.6594,4.3408,2.3396,0.9843,20.0625,-10.0875,2.9813,,adl
10.708931,0.2571,-2.6767,-3.6594,4.3408,2.3396,0.9843,18.6,-6.8438,3.9188,,adl
10.718831,0.2571,-2.6767,-3.6594,4.3408,2.3396,0.9843,18.6,-6.8438,3.9188,,adl
10.738616,2.8164,-6.1709,-6.1274,4.3408,2.3396,0.9843,18.6,-6.8438,3.9188,,adl
10.760897,2.8164,-6.1709,-6.1274,2.7618,2.2221,0.5924,18.6,-6.8438,3.9188,,adl
10.764387,2.8164,-6.1709,-6.1274,2.7618,2.2221,0.5924,16.5938,-2.1,4.0875,,adl
10.779126,2.8164,-6.1709,-6.1274,2.7618,2.2221,0.5924,16.5938,-2.1,4.0875,,adl
10.799648,4.9072,-4.1445,-9.2254,2.7618,2.2221,0.5924,16.5938,-2.1,4.0875,,adl
10.820539,4.9072,-4.1445,-9.2254,-0.7048,0.194,-0.3788,16.5938,-2.1,4.0875,,adl
10.823925,4.9072,-4.1445,-9.2254,-0.7048,0.194,-0.3788,14.55,3.6375,4.275,,adl
10.840509,4.9072,-4.1445,-9.2254,-0.7048,0.194,-0.3788,14.55,3.6375,4.275,,adl
10.88543,4.9072,-4.1445,-9.2254,-1.1655,-0.6157,-0.2876,14.55,3.6375,4.275,,adl
10.888525,4.3071,1.1978,-10.992,-1.1655,-0.6157,-0.2876,14.55,3.6375,4.275,,adl
10.890579,4.3071,1.1978,-10.992,-1.1655,-0.6157,-0.2876,12.6188,9.4125,4.8563,,adl
10.901823,4.3071,1.1978,-10.992,-1.1655,-0.6157,-0.2876,12.6188,9.4125,4.8563,,adl
10.945235,4.3071,1.1978,-10.992,-1.4868,-0.0095,0.592,12.6188,9.4125,4.8563,,adl
10.948009,2.9594,-4.1866,6.529,-1.4868,-0.0095,0.592,12.6188,9.4125,4.8563,,adl
10.949192,2.9594,-4.1866,6.529,-1.4868,-0.0095,0.592,1.3313,13.0313,40.9688,,adl
10.963705,2.9594,-4.1866,6.529,-1.4868,-0.0095,0.592,1.3313,13.0313,40.9688,,adl
11.006443,-1.6466,0.3782,-2.7716,-1.4868,-0.0095,0.592,1.3313,13.0313,40.9688,,adl
11.008329,-1.6466,0.3782,-2.7716,-1.4868,-0.0095,0.592,-0.1125,17.7563,42.0375,,adl
11.00949,-1.6466,0.3782,-2.7716,-1.1766,-0.0289,0.182,-0.1125,17.7563,42.0375,,adl
11.024445,-1.6466,0.3782,-2.7716,-1.1766,-0.0289,0.182,-0.1125,17.7563,42.0375,,adl
11.066912,-1.6466,0.3782,-2.7716,-0.9976,-0.2752,0.0407,-0.1125,17.7563,42.0375,,adl
11.071058,0.2029,-0.2805,0.5606,-0.9976,-0.2752,0.0407,-0.1125,17.7563,42.0375,,adl
11.073615,0.2029,-0.2805,0.5606,-0.9976,-0.2752,0.0407,-1.5938,20.9813,42.6,,adl
11.084495,0.2029,-0.2805,0.5606,-0.9976,-0.2752,0.0407,-1.5938,20.9813,42.6,,adl
11.125875,0.2029,-0.2805,0.5606,-0.9976,-0.2752,0.0407,-2.8875,22.425,42.7875,,adl
11.128707,0.2029,-0.2805,0.5606,-0.7364,0.1514,0.0252,-2.8875,22.425,42.7875,,adl
11.146602,0.2029,-0.2805,0.5606,-0.7364,0.1514,0.0252,-2.8875,22.425,42.7875,,adl
11.149461,-0.1047,-0.0718,1.3562,-0.7364,0.1514,0.0252,-2.8875,22.425,42.7875,,adl
11.188074,-0.1047,-0.0718,1.3562,-0.7364,0.1514,0.0252,-3.9,22.0312,43.1813,,adl
11.190665,-0.1047,-0.0718,1.3562,-0.4346,0.1514,-0.0437,-3.9,22.0312,43.1813,,adl
11.205849,-0.1047,-0.0718,1.3562,-0.4346,0.1514,-0.0437,-3.9,22.0312,43.1813,,adl
11.207742,-0.6773,-0.211,1.2441,-0.4346,0.1514,-0.0437,-3.9,22.0312,43.1813,,adl
11.246543,-0.6773,-0.211,1.2441,-0.4346,0.1514,-0.0437,-4.2563,20.3438,44.2313,,adl
11.248427,-0.6773,-0.211,1.2441,-0.2989,0.2718,-0.0047,-4.2563,20.3438,44.2313,,adl
11.269567,-0.3779,-0.1326,0.9847,-0.2989,0.2718,-0.0047,-4.2563,20.3438,44.2313,,adl
11.271412,-0.3779,-0.1326,0.9847,-0.2989,0.2718,-0.0047,-4.2563,20.3438,44.2313,,adl
11.308102,-0.3779,-0.1326,0.9847,-0.2989,0.2718,-0.0047,-4.425,18.1688,45.45,,adl
11.311818,-0.3779,-0.1326,0.9847,-0.3147,0.2451,-0.0021,-4.425,18.1688,45.45,,adl
11.328283,-0.3779,-0.1326,0.9847,-0.3147,0.2451,-0.0021,-4.425,18.1688,45.45,,adl
11.349408,-0.6534,0.2489,1.1307,-0.3147,0.2451,-0.0021,-4.425,18.1688,45.45,,adl
11.366056,-0.6534,0.2489,1.1307,-0.3147,0.2451,-0.0021,-4.6125,16.2938,46.5563,,adl
11.369051,-0.6534,0.2489,1.1307,-0.2944,0.1554,-0.0121,-4.6125,16.2938,46.5563,,adl
11.390183,-0.6534,0.2489,1.1307,-0.2944,0.1554,-0.0121,-4.6125,16.2938,46.5563,,adl
11.410571,-0.6397,0.216,0.9336,-0.2944,0.1554,-0.0121,-4.6125,16.2938,46.5563,,adl
11.425879,-0.6397,0.216,0.9336,-0.2944,0.1554,-0.0121,-4.8375,14.6813,47.2125,,adl
11.428433,-0.6397,0.216,0.9336,-0.2422,0.2686,-0.0083,-4.8375,14.6813,47.2125,,adl
11.449017,-0.6397,0.216,0.9336,-0.2422,0.2686,-0.0083,-4.8375,14.6813,47.2125,,adl
11.469067,-0.2688,-0.0859,0.655,-0.2422,0.2686,-0.0083,-4.8375,14.6813,47.2125,,adl
11.487675,-0.2688,-0.0859,0.655,-0.2422,0.2686,-0.0083,-5.2688,13.3313,47.7,,adl
11.490531,-0.2688,-0.0859,0.655,-0.2401,0.3911,-0.0362,-5.2688,13.3313,47.7,,adl
11.512593,-0.2688,-0.0859,0.655,-0.2401,0.3911,-0.0362,-5.2688,13.3313,47.7,,adl
11.532533,-0.5012,0.0443,0.7418,-0.2401,0.3911,-0.0362,-5.2688,13.3313,47.7,,adl
11.546855,-0.5012,0.0443,0.7418,-0.2401,0.3911,-0.0362,-5.85,12.4125,47.85,,adl
11.554536,-0.5012,0.0443,0.7418,-0.3597,0.5899,-0.1591,-5.85,12.4125,47.85,,adl
11.571095,-0.5012,0.0443,0.7418,-0.3597,0.5899,-0.1591,-5.85,12.4125,47.85,,adl
11.604522,-0.5012,0.0443,0.7418,-0.3597,0.5899,-0.1591,-6.8063,11.4375,47.9625,,adl
11.611144,-0.5012,0.0443,0.7418,-0.3967,0.9019,-0.2276,-6.8063,11.4375,47.9625,,adl
11.612614,-0.7877,0.012,1.0041,-0.3967,0.9019,-0.2276,-6.8063,11.4375,47.9625,,adl
11.63232,-0.7877,0.012,1.0041,-0.3967,0.9019,-0.2276,-6.8063,11.4375,47.9625,,adl
11.667028,-0.7877,0.012,1.0041,-0.3967,0.9019,-0.2276,-8.1375,10.5375,48.0188,,adl
11.674546,-0.7877,0.012,1.0041,-0.2983,1.4646,-0.304,-8.1375,10.5375,48.0188,,adl
11.677096,-0.7535,-0.1718,0.9858,-0.2983,1.4646,-0.304,-8.1375,10.5375,48.0188,,adl
11.692799,-0.7535,-0.1718,0.9858,-0.2983,1.4646,-0.304,-8.1375,10.5375,48.0188,,adl
11.725965,-0.7535,-0.1718,0.9858,-0.2983,1.4646,-0.304,-9.825,9.7125,48.1125,,adl
11.733492,-0.7535,-0.1718,0.9858,0.0073,2.5189,0.0222,-9.825,9.7125,48.1125,,adl
11.734212,-1.3828,-0.8132,1.1682,0.0073,2.5189,0.0222,-9.825,9.7125,48.1125,,adl
11.753961,-1.3828,-0.8132,1.1682,0.0073,2.5189,0.0222,-9.825,9.7125,48.1125,,adl
11.787552,-1.3828,-0.8132,1.1682,0.0073,2.5189,0.0222,-12.3563,9.1313,47.6438,,adl
11.796371,-1.3828,-0.8132,1.1682,0.6013,3.5559,0.3634,-12.3563,9.1313,47.6438,,adl
11.815707,-1.3828,-0.8132,1.1682,0.6013,3.5559,0.3634,-12.3563,9.1313,47.6438,,adl
11.819019,-1.3644,-0.1265,0.968,0.6013,3.5559,0.3634,-12.3563,9.1313,47.6438,,adl
11.846577,-1.3644,-0.1265,0.968,0.6013,3.5559,0.3634,-15.7875,9.0938,46.2938,,adl
11.858444,-1.3644,-0.1265,0.968,0.9563,4.3489,0.7497,-15.7875,9.0938,46.2938,,adl
11.877391,-1.3644,-0.1265,0.968,0.9563,4.3489,0.7497,-15.7875,9.0938,46.2938,,adl
11.880254,-1.4284,-0.2354,0.446,0.9563,4.3489,0.7497,-15.7875,9.0938,46.2938,,adl
11.907179,-1.4284,-0.2354,0.446,0.9563,4.3489,0.7497,-16.5375,9.6562,42.1875,,adl
11.919878,-1.4284,-0.2354,0.446,1.4512,4.8367,0.9904,-16.5375,9.6562,42.1875,,adl
11.936947,-1.4284,-0.2354,0.446,1.4512,4.8367,0.9904,-16.5375,9.6562,42.1875,,adl
11.939068,-0.3198,0.6482,0.4083,1.4512,4.8367,0.9904,-16.5375,9.6562,42.1875,,adl
11.966854,-0.3198,0.6482,0.4083,1.4512,4.8367,0.9904,-14.3625,9.2063,20.775,,adl
11.978594,-0.3198,0.6482,0.4083,1.8068,4.5886,1.0081,-14.3625,9.2063,20.775,,adl
11.998164,-0.3198,0.6482,0.4083,1.8068,4.5886,1.0081,-14.3625,9.2063,20.775,,adl
11.999981,1.4017,0.6996,0.8243,1.8068,4.5886,1.0081,-14.3625,9.2063,20.775,,adl
12.026575,1.4017,0.6996,0.8243,1.8068,4.5886,1.0081,-18.8625,10.5375,14.3625,,adl
12.039006,1.4017,0.6996,0.8243,1.7544,3.6379,0.7735,-18.8625,10.5375,14.3625,,adl
12.059645,1.4017,0.6996,0.8243,1.7544,3.6379,0.7735,-18.8625,10.5375,14.3625,,adl
12.080297,2.5694,-0.1394,-0.2095,1.7544,3.6379,0.7735,-18.8625,10.5375,14.3625,,adl
12.085624,2.5694,-0.1394,-0.2095,1.7544,3.6379,0.7735,-22.9313,12.15,6.8625,,adl
12.09863,2.5694,-0.1394,-0.2095,1.4682,2.4288,0.3497,-22.9313,12.15,6.8625,,adl
12.12089,2.5694,-0.1394,-0.2095,1.4682,2.4288,0.3497,-22.9313,12.15,6.8625,,adl
12.139008,2.4471,-0.629,-1.4379,1.4682,2.4288,0.3497,-22.9313,12.15,6.8625,,adl
12.143513,2.4471,-0.629,-1.4379,1.4682,2.4288,0.3497,-33.3563,15.3563,15.6,,adl
12.159705,2.4471,-0.629,-1.4379,0.9585,2.2015,0.0904,-33.3563,15.3563,15.6,,adl
12.179821,2.4471,-0.629,-1.4379,0.9585,2.2015,0.0904,-33.3563,15.3563,15.6,,adl
12.200465,1.5959,-0.1367,-2.3559,0.9585,2.2015,0.0904,-33.3563,15.3563,15.6,,adl
12.204261,1.5959,-0.1367,-2.3559,0.9585,2.2015,0.0904,-35.9062,17.175,6.4688,,adl
12.220126,1.5959,-0.1367,-2.3559,0.2949,2.0067,-0.1708,-35.9062,17.175,6.4688,,adl
12.241648,1.5959,-0.1367,-2.3559,0.2949,2.0067,-0.1708,-35.9062,17.175,6.4688,,adl
12.264729,1.5959,-0.1367,-2.3559,0.2949,2.0067,-0.1708,-33.375,17.9813,-6.1875,,adl
12.284177,0.0188,0.3056,-2.1127,0.2949,2.0067,-0.1708,-33.375,17.9813,-6.1875,,adl
12.28733,0.0188,0.3056,-2.1127,-0.267,2.1731,-0.1754,-33.375,17.9813,-6.1875,,adl
12.30177,0.0188,0.3056,-2.1127,-0.267,2.1731,-0.1754,-33.375,17.9813,-6.1875,,adl
12.326664,0.0188,0.3056,-2.1127,-0.267,2.1731,-0.1754,-33.0938,19.3125,-14.925,,adl
12.34244,0.0188,0.3056,-2.1127,-0.5194,2.1145,-0.0298,-33.0938,19.3125,-14.925,,adl
12.344461,-1.4819,0.266,-1.2889,-0.5194,2.1145,-0.0298,-33.0938,19.3125,-14.925,,adl
12.362771,-1.4819,0.266,-1.2889,-0.5194,2.1145,-0.0298,-33.0938,19.3125,-14.925,,adl
12.387011,-1.4819,0.266,-1.2889,-0.5194,2.1145,-0.0298,-31.5188,20.5125,-22.3313,,adl
12.405751,-1.4819,0.266,-1.2889,-0.4108,0.6125,0.1228,-31.5188,20.5125,-22.3313,,adl
12.408244,-2.1199,0.0895,0.1561,-0.4108,0.6125,0.1228,-31.5188,20.5125,-22.3313,,adl
12.425739,-2.1199,0.0895,0.1561,-0.4108,0.6125,0.1228,-31.5188,20.5125,-22.3313,,adl
12.444881,-2.1199,0.0895,0.1561,-0.4108,0.6125,0.1228,-29.4563,21.225,-28.1813,,adl
12.464255,-2.1199,0.0895,0.1561,0.4748,-0.5906,0.0318,-29.4563,21.225,-28.1813,,adl
12.46789,-2.1648,0.4955,2.5385,0.4748,-0.5906,0.0318,-29.4563,21.225,-28.1813,,adl
12.485768,-2.1648,0.4955,2.5385,0.4748,-0.5906,0.0318,-29.4563,21.225,-28.1813,,adl
12.506012,-2.1648,0.4955,2.5385,0.4748,-0.5906,0.0318,-27.4688,21.5813,-31.8938,,adl
12.526478,-2.1648,0.4955,2.5385,0.2151,-0.3155,0.1434,-27.4688,21.5813,-31.8938,,adl
12.54835,-2.1648,0.4955,2.5385,0.2151,-0.3155,0.1434,-27.4688,21.5813,-31.8938,,adl
12.551887,-1.0995,-0.4842,2.7764,0.2151,-0.3155,0.1434,-27.4688,21.5813,-31.8938,,adl
12.564564,-1.0995,-0.4842,2.7764,0.2151,-0.3155,0.1434,-25.6125,21.8625,-34.3875,,adl
12.587929,-1.0995,-0.4842,2.7764,0.0578,-0.2249,0.2272,-25.6125,21.8625,-34.3875,,adl
12.608258,-1.0995,-0.4842,2.7764,0.0578,-0.2249,0.2272,-25.6125,21.8625,-34.3875,,adl
12.610605,0.9221,-0.7387,-0.0096,0.0578,-0.2249,0.2272,-25.6125,21.8625,-34.3875,,adl
12.62449,0.9221,-0.7387,-0.0096,0.0578,-0.2249,0.2272,-23.9625,22.2375,-35.9625,,adl
12.647883,0.9221,-0.7387,-0.0096,-0.0036,-0.183,0.2747,-23.9625,22.2375,-35.9625,,adl
12.669057,0.9221,-0.7387,-0.0096,-0.0036,-0.183,0.2747,-23.9625,22.2375,-35.9625,,adl
12.670613,-0.4011,0.0062,-0.2048,-0.0036,-0.183,0.2747,-23.9625,22.2375,-35.9625,,adl
12.684988,-0.4011,0.0062,-0.2048,-0.0036,-0.183,0.2747,-22.9688,22.575,-36.825,,adl
12.70896,-0.4011,0.0062,-0.2048,-0.1176,-0.2824,0.312,-22.9688,22.575,-36.825,,adl
12.731978,-0.4011,0.0062,-0.2048,-0.1176,-0.2824,0.312,-22.9688,22.575,-36.825,,adl
12.747753,-0.4011,0.0062,-0.2048,-0.1176,-0.2824,0.312,-22.1813,23.2688,-37.2375,,adl
12.751693,0.0699,0.162,-0.1502,-0.1176,-0.2824,0.312,-22.1813,23.2688,-37.2375,,adl
12.770057,0.0699,0.162,-0.1502,-0.3153,-0.0463,0.2385,-22.1813,23.2688,-37.2375,,adl
12.790978,0.0699,0.162,-0.1502,-0.3153,-0.0463,0.2385,-22.1813,23.2688,-37.2375,,adl
12.808503,0.0699,0.162,-0.1502,-0.3153,-0.0463,0.2385,-21.9563,23.85,-37.0875,,adl
12.810534,0.1752,0.0255,-0.0345,-0.3153,-0.0463,0.2385,-21.9563,23.85,-37.0875,,adl
12.831672,0.1752,0.0255,-0.0345,-0.316,0.0531,0.1206,-21.9563,23.85,-37.0875,,adl
12.852013,0.1752,0.0255,-0.0345,-0.316,0.0531,0.1206,-21.9563,23.85,-37.0875,,adl
12.866406,0.1752,0.0255,-0.0345,-0.316,0.0531,0.1206,-21.975,24.2813,-36.7875,,adl
12.871096,-0.2781,0.1166,-0.1614,-0.316,0.0531,0.1206,-21.975,24.2813,-36.7875,,adl
12.891433,-0.2781,0.1166,-0.1614,-0.1566,0.3623,0.2133,-21.975,24.2813,-36.7875,,adl
12.912619,-0.2781,0.1166,-0.1614,-0.1566,0.3623,0.2133,-21.975,24.2813,-36.7875,,adl
12.926326,-0.2781,0.1166,-0.1614,-0.1566,0.3623,0.2133,-21.9375,24.7688,-36.6562,,adl
12.932888,0.3961,-0.28,-0.2722,-0.1566,0.3623,0.2133,-21.9375,24.7688,-36.6562,,adl
12.951456,0.3961,-0.28,-0.2722,-0.0824,0.3498,0.2151,-21.9375,24.7688,-36.6562,,adl
12.972767,0.3961,-0.28,-0.2722,-0.0824,0.3498,0.2151,-21.9375,24.7688,-36.6562,,adl
12.986024,0.3961,-0.28,-0.2722,-0.0824,0.3498,0.2151,-21.6,25.3875,-36.45,,adl
13.014823,0.3961,-0.28,-0.2722,-0.01,0.4163,0.1997,-21.6,25.3875,-36.45,,adl
13.018347,0.2045,-0.16,-0.1634,-0.01,0.4163,0.1997,-21.6,25.3875,-36.45,,adl
13.034042,0.2045,-0.16,-0.1634,-0.01,0.4163,0.1997,-21.6,25.3875,-36.45,,adl
13.045768,0.2045,-0.16,-0.1634,-0.01,0.4163,0.1997,-21.2812,26.1188,-36.3375,,adl
13.075742,0.2045,-0.16,-0.1634,-0.0121,0.3165,0.1487,-21.2812,26.1188,-36.3375,,adl
13.079244,-0.2455,-0.0016,0.0851,-0.0121,0.3165,0.1487,-21.2812,26.1188,-36.3375,,adl
13.093447,-0.2455,-0.0016,0.0851,-0.0121,0.3165,0.1487,-21.2812,26.1188,-36.3375,,adl
13.104696,-0.2455,-0.0016,0.0851,-0.0121,0.3165,0.1487,-20.7938,26.7375,-36.3375,,adl
13.136256,-0.2455,-0.0016,0.0851,-0.2816,0.3637,0.1136,-20.7938,26.7375,-36.3375,,adl
13.140375,-0.1636,0.1554,0.1461,-0.2816,0.3637,0.1136,-20.7938,26.7375,-36.3375,,adl
13.155785,-0.1636,0.1554,0.1461,-0.2816,0.3637,0.1136,-20.7938,26.7375,-36.3375,,adl
13.165845,-0.1636,0.1554,0.1461,-0.2816,0.3637,0.1136,-20.0438,27.525,-36.2625,,adl
13.197889,-0.1636,0.1554,0.1461,-0.49,0.4542,0.1021,-20.0438,27.525,-36.2625,,adl
13.216671,-0.1636,0.1554,0.1461,-0.49,0.4542,0.1021,-20.0438,27.525,-36.2625,,adl
13.218554,-0.3997,0.2953,0.5873,-0.49,0.4542,0.1021,-20.0438,27.525,-36.2625,,adl
13.224757,-0.3997,0.2953,0.5873,-0.49,0.4542,0.1021,-19.1438,28.125,-36.2812,,adl
13.258194,-0.3997,0.2953,0.5873,-0.6085,0.6055,0.0308,-19.1438,28.125,-36.2812,,adl
13.281705,-0.3157,0.0208,0.3718,-0.6085,0.6055,0.0308,-19.1438,28.125,-36.2812,,adl
13.283687,-0.3157,0.0208,0.3718,-0.6085,0.6055,0.0308,-19.1438,28.125,-36.2812,,adl
13.284656,-0.3157,0.0208,0.3718,-0.6085,0.6055,0.0308,-18.1688,28.875,-36.4688,,adl
13.319305,-0.3157,0.0208,0.3718,-0.7658,0.9822,-0.0668,-18.1688,28.875,-36.4688,,adl
13.337529,-0.3157,0.0208,0.3718,-0.7658,0.9822,-0.0668,-18.1688,28.875,-36.4688,,adl
13.339401,-0.287,-0.3716,0.5953,-0.7658,0.9822,-0.0668,-18.1688,28.875,-36.4688,,adl
13.34421,-0.287,-0.3716,0.5953,-0.7658,0.9822,-0.0668,-16.8188,29.7,-36.3375,,adl
13.380434,-0.287,-0.3716,0.5953,-1.1461,1.1635,-0.0867,-16.8188,29.7,-36.3375,,adl
13.399018,-0.287,-0.3716,0.5953,-1.1461,1.1635,-0.0867,-16.8188,29.7,-36.3375,,adl
13.401145,-0.6311,-1.9958,1.2216,-1.1461,1.1635,-0.0867,-16.8188,29.7,-36.3375,,adl
13.406715,-0.6311,-1.9958,1.2216,-1.1461,1.1635,-0.0867,-15.45,30.6188,-36.1313,,adl
13.440737,-0.6311,-1.9958,1.2216,-1.73,1.2243,0.0269,-15.45,30.6188,-36.1313,,adl
13.461827,-0.6311,-1.9958,1.2216,-1.73,1.2243,0.0269,-15.45,30.6188,-36.1313,,adl
13.466623,-0.6311,-1.9958,1.2216,-1.73,1.2243,0.0269,-14.1375,31.7625,-35.4375,,adl
13.480393,0.4339,-3.0138,1.8826,-1.73,1.2243,0.0269,-14.1375,31.7625,-35.4375,,adl
13.500034,0.4339,-3.0138,1.8826,-1.4084,0.8689,0.3798,-14.1375,31.7625,-35.4375,,adl
13.522898,0.4339,-3.0138,1.8826,-1.4084,0.8689,0.3798,-14.1375,31.7625,-35.4375,,adl
13.526578,0.4339,-3.0138,1.8826,-1.4084,0.8689,0.3798,-12.675,33.0375,-34.425,,adl
13.539815,1.0039,-2.7088,4.0075,-1.4084,0.8689,0.3798,-12.675,33.0375,-34.425,,adl
13.562189,1.0039,-2.7088,4.0075,-0.0174,0.6523,-0.0032,-12.675,33.0375,-34.425,,adl
13.582992,1.0039,-2.7088,4.0075,-0.0174,0.6523,-0.0032,-12.675,33.0375,-34.425,,adl
13.584985,1.0039,-2.7088,4.0075,-0.0174,0.6523,-0.0032,-11.2875,34.1625,-33.5438,,adl
13.603231,0.0933,0.9192,5.1162,-0.0174,0.6523,-0.0032,-11.2875,34.1625,-33.5438,,adl
13.623293,0.0933,0.9192,5.1162,1.7955,0.074,-0.4374,-11.2875,34.1625,-33.5438,,adl
13.642485,0.0933,0.9192,5.1162,1.7955,0.074,-0.4374,-11.2875,34.1625,-33.5438,,adl
13.644466,0.0933,0.9192,5.1162,1.7955,0.074,-0.4374,-10.0688,34.575,-33.2812,,adl
13.685653,0.0933,0.9192,5.1162,2.8132,-0.6236,-0.4328,-10.0688,34.575,-33.2812,,adl
13.689839,-0.7072,1.3729,4.0607,2.8132,-0.6236,-0.4328,-10.0688,34.575,-33.2812,,adl
13.704173,-0.7072,1.3729,4.0607,2.8132,-0.6236,-0.4328,-10.0688,34.575,-33.2812,,adl
13.706525,-0.7072,1.3729,4.0607,2.8132,-0.6236,-0.4328,-11.9813,33.6938,-32.8688,,adl
13.746643,-2.3017,0.346,-0.6699,2.8132,-0.6236,-0.4328,-11.9813,33.6938,-32.8688,,adl
13.756227,-2.3017,0.346,-0.6699,3.3419,-0.5863,-0.0306,-11.9813,33.6938,-32.8688,,adl
13.764164,-2.3017,0.346,-0.6699,3.3419,-0.5863,-0.0306,-11.9813,33.6938,-32.8688,,adl
13.765481,-2.3017,0.346,-0.6699,3.3419,-0.5863,-0.0306,-11.925,31.8938,-33.5625,,adl
13.80807,-2.3017,0.346,-0.6699,3.4264,0.3212,0.5317,-11.925,31.8938,-33.5625,,adl
13.812334,-2.2086,-1.8716,-4.0272,3.4264,0.3212,0.5317,-11.925,31.8938,-33.5625,,adl
13.827004,-2.2086,-1.8716,-4.0272,3.4264,0.3212,0.5317,-12.3563,28.8563,-34.7063,,adl
13.828468,-2.2086,-1.8716,-4.0272,3.4264,0.3212,0.5317,-12.3563,28.8563,-34.7063,,adl
13.865046,-2.2086,-1.8716,-4.0272,3.0288,1.9641,0.6003,-12.3563,28.8563,-34.7063,,adl
13.867483,-0.0079,-3.3399,-5.6408,3.0288,1.9641,0.6003,-12.3563,28.8563,-34.7063,,adl
13.887169,-0.0079,-3.3399,-5.6408,3.0288,1.9641,0.6003,-11.8313,23.4,-36.525,,adl
13.88901,-0.0079,-3.3399,-5.6408,3.0288,1.9641,0.6003,-11.8313,23.4,-36.525,,adl
13.928211,-0.0079,-3.3399,-5.6408,1.2129,0.3449,0.3631,-11.8313,23.4,-36.525,,adl
13.946906,-0.0079,-3.3399,-5.6408,1.2129,0.3449,0.3631,-11.9813,18.1688,-38.2875,,adl
13.949932,2.2882,-2.6278,-8.057,1.2129,0.3449,0.3631,-11.9813,18.1688,-38.2875,,adl
13.952533,2.2882,-2.6278,-8.057,1.2129,0.3449,0.3631,-11.9813,18.1688,-38.2875,,adl
13.988644,2.2882,-2.6278,-8.057,-0.8713,-0.2273,0.0955,-11.9813,18.1688,-38.2875,,adl
14.00731,2.2882,-2.6278,-8.057,-0.8713,-0.2273,0.0955,-12.2625,13.0313,-40.35,,adl
14.011248,2.2882,-2.6278,-8.057,-0.8713,-0.2273,0.0955,-12.2625,13.0313,-40.35,,adl
14.012913,2.5874,0.1492,-9.143,-0.8713,-0.2273,0.0955,-12.2625,13.0313,-40.35,,adl
14.050773,2.5874,0.1492,-9.143,-0.7155,-1.379,-0.0281,-12.2625,13.0313,-40.35,,adl
14.065996,2.5874,0.1492,-9.143,-0.7155,-1.379,-0.0281,-13.1063,8.325,-42.15,,adl
14.070399,2.5874,0.1492,-9.143,-0.7155,-1.379,-0.0281,-13.1063,8.325,-42.15,,adl
14.071321,1.849,-1.2748,0.1135,-0.7155,-1.379,-0.0281,-13.1063,8.325,-42.15,,adl
14.10849,1.849,-1.2748,0.1135,-1.4755,-0.9874,0.2336,-13.1063,8.325,-42.15,,adl
14.124657,1.849,-1.2748,0.1135,-1.4755,-0.9874,0.2336,-14.2875,4.5375,-43.2375,,adl
14.129647,1.849,-1.2748,0.1135,-1.4755,-0.9874,0.2336,-14.2875,4.5375,-43.2375,,adl
14.15116,0.0594,-0.9539,-0.5846,-1.4755,-0.9874,0.2336,-14.2875,4.5375,-43.2375,,adl
14.173598,0.0594,-0.9539,-0.5846,-1.2781,-0.155,0.0567,-14.2875,4.5375,-43.2375,,adl
14.186451,0.0594,-0.9539,-0.5846,-1.2781,-0.155,0.0567,-14.9063,2.1938,-43.9125,,adl
14.192165,0.0594,-0.9539,-0.5846,-1.2781,-0.155,0.0567,-14.9063,2.1938,-43.9125,,adl
14.212021,0.4032,-0.0426,1.3754,-1.2781,-0.155,0.0567,-14.9063,2.1938,-43.9125,,adl
14.232313,0.4032,-0.0426,1.3754,-1.128,-0.2991,0.1277,-14.9063,2.1938,-43.9125,,adl
14.246582,0.4032,-0.0426,1.3754,-1.128,-0.2991,0.1277,-15.375,1.1625,-43.8563,,adl
14.252457,0.4032,-0.0426,1.3754,-1.128,-0.2991,0.1277,-15.375,1.1625,-43.8563,,adl
14.272704,0.5897,-0.6008,0.9151,-1.128,-0.2991,0.1277,-15.375,1.1625,-43.8563,,adl
14.290992,0.5897,-0.6008,0.9151,-0.7963,0.1965,0.1153,-15.375,1.1625,-43.8563,,adl
14.306116,0.5897,-0.6008,0.9151,-0.7963,0.1965,0.1153,-15.6,1.4438,-43.4062,,adl
14.31394,0.5897,-0.6008,0.9151,-0.7963,0.1965,0.1153,-15.6,1.4438,-43.4062,,adl
14.332126,-0.1596,-0.5023,0.8492,-0.7963,0.1965,0.1153,-15.6,1.4438,-43.4062,,adl
14.354254,-0.1596,-0.5023,0.8492,-0.5141,0.0563,0.0305,-15.6,1.4438,-43.4062,,adl
14.366761,-0.1596,-0.5023,0.8492,-0.5141,0.0563,0.0305,-16.3688,2.9062,-42.7313,,adl
14.37446,-0.1596,-0.5023,0.8492,-0.5141,0.0563,0.0305,-16.3688,2.9062,-42.7313,,adl
14.416184,-0.1596,-0.5023,0.8492,-0.391,0.1688,0.0759,-16.3688,2.9062,-42.7313,,adl
14.420116,0.174,-0.3258,0.9399,-0.391,0.1688,0.0759,-16.3688,2.9062,-42.7313,,adl
14.428114,0.174,-0.3258,0.9399,-0.391,0.1688,0.0759,-17.25,5.1,-42.1688,,adl
14.433085,0.174,-0.3258,0.9399,-0.391,0.1688,0.0759,-17.25,5.1,-42.1688,,adl
14.478296,0.174,-0.3258,0.9399,-0.3831,0.1152,0.0638,-17.25,5.1,-42.1688,,adl
14.480218,-0.0508,0.0001,0.8158,-0.3831,0.1152,0.0638,-17.25,5.1,-42.1688,,adl
14.48747,-0.0508,0.0001,0.8158,-0.3831,0.1152,0.0638,-18.0563,7.2,-41.6625,,adl
14.495225,-0.0508,0.0001,0.8158,-0.3831,0.1152,0.0638,-18.0563,7.2,-41.6625,,adl
14.537958,-0.0508,0.0001,0.8158,-0.3479,0.1791,0.0784,-18.0563,7.2,-41.6625,,adl
14.541927,-0.1517,-0.0922,0.7236,-0.3479,0.1791,0.0784,-18.0563,7.2,-41.6625,,adl
14.54705,-0.1517,-0.0922,0.7236,-0.3479,0.1791,0.0784,-18.3188,9.2625,-41.2875,,adl
14.554529,-0.1517,-0.0922,0.7236,-0.3479,0.1791,0.0784,-18.3188,9.2625,-41.2875,,adl
14.599311,-0.1517,-0.0922,0.7236,-0.382,0.4418,0.077,-18.3188,9.2625,-41.2875,,adl
14.60346,0.2791,-0.2414,0.6503,-0.382,0.4418,0.077,-18.3188,9.2625,-41.2875,,adl
14.606034,0.2791,-0.2414,0.6503,-0.382,0.4418,0.077,-17.9438,10.9125,-40.9688,,adl
14.618327,0.2791,-0.2414,0.6503,-0.382,0.4418,0.077,-17.9438,10.9125,-40.9688,,adl
14.659143,0.2791,-0.2414,0.6503,-0.6997,0.4404,-0.0863,-17.9438,10.9125,-40.9688,,adl
14.666688,0.2791,-0.2414,0.6503,-0.6997,0.4404,-0.0863,-17.55,12.3563,-40.725,,adl
14.678967,0.2791,-0.2414,0.6503,-0.6997,0.4404,-0.0863,-17.55,12.3563,-40.725,,adl
14.680603,-0.489,0.0558,1.069,-0.6997,0.4404,-0.0863,-17.55,12.3563,-40.725,,adl
14.719748,-0.489,0.0558,1.069,-1.0641,0.5302,-0.2035,-17.55,12.3563,-40.725,,adl
14.728871,-0.489,0.0558,1.069,-1.0641,0.5302,-0.2035,-16.9125,13.7063,-40.5188,,adl
14.738808,-0.489,0.0558,1.069,-1.0641,0.5302,-0.2035,-16.9125,13.7063,-40.5188,,adl
14.741191,-0.6102,-0.0732,1.3953,-1.0641,0.5302,-0.2035,-16.9125,13.7063,-40.5188,,adl
14.780207,-0.6102,-0.0732,1.3953,-1.1811,0.8603,-0.3483,-16.9125,13.7063,-40.5188,,adl
14.785951,-0.6102,-0.0732,1.3953,-1.1811,0.8603,-0.3483,-16.3313,15.0375,-40.3688,,adl
14.79981,-0.6102,-0.0732,1.3953,-1.1811,0.8603,-0.3483,-16.3313,15.0375,-40.3688,,adl
14.80102,-0.5973,-1.3538,1.3512,-1.1811,0.8603,-0.3483,-16.3313,15.0375,-40.3688,,adl
14.84209,-0.5973,-1.3538,1.3512,-1.5382,0.8539,-0.4907,-16.3313,15.0375,-40.3688,,adl
14.846945,-0.5973,-1.3538,1.3512,-1.5382,0.8539,-0.4907,-15.5063,16.5938,-40.05,,adl
14.861183,-0.5973,-1.3538,1.3512,-1.5382,0.8539,-0.4907,-15.5063,16.5938,-40.05,,adl
14.87978,0.0017,-4.7901,2.1213,-1.5382,0.8539,-0.4907,-15.5063,16.5938,-40.05,,adl
14.902517,0.0017,-4.7901,2.1213,-1.4726,0.5774,0.2932,-15.5063,16.5938,-40.05,,adl
14.907533,0.0017,-4.7901,2.1213,-1.4726,0.5774,0.2932,-14.4,18.4875,-39.375,,adl
14.9218,0.0017,-4.7901,2.1213,-1.4726,0.5774,0.2932,-14.4,18.4875,-39.375,,adl
14.942779,0.6914,-2.5244,3.858,-1.4726,0.5774,0.2932,-14.4,18.4875,-39.375,,adl
14.963378,0.6914,-2.5244,3.858,0.1473,1.7568,0.2246,-14.4,18.4875,-39.375,,adl
14.967306,0.6914,-2.5244,3.858,0.1473,1.7568,0.2246,-13.7438,21.3375,-38.2875,,adl
14.98114,0.6914,-2.5244,3.858,0.1473,1.7568,0.2246,-13.7438,21.3375,-38.2875,,adl
15.003691,-0.901,2.1303,4.2167,0.1473,1.7568,0.2246,-13.7438,21.3375,-38.2875,,adl
15.026399,-0.901,2.1303,4.2167,2.3454,3.0549,0.6073,-13.7438,21.3375,-38.2875,,adl
15.029382,-0.901,2.1303,4.2167,2.3454,3.0549,0.6073,-11.7188,22.575,-37.8,,adl
15.04272,-0.901,2.1303,4.2167,2.3454,3.0549,0.6073,-11.7188,22.575,-37.8,,adl
15.062506,-0.7734,2.6841,3.4365,2.3454,3.0549,0.6073,-11.7188,22.575,-37.8,,adl
15.084355,-0.7734,2.6841,3.4365,3.3636,3.0483,1.339,-11.7188,22.575,-37.8,,adl
15.087201,-0.7734,2.6841,3.4365,3.3636,3.0483,1.339,-9.1875,22.8375,-37.7625,,adl
15.102477,-0.7734,2.6841,3.4365,3.3636,3.0483,1.339,-9.1875,22.8375,-37.7625,,adl
15.14979,-0.7734,2.6841,3.4365,3.3636,3.0483,1.339,-6.0563,21.8063,-37.7625,,adl
15.153599,-0.7734,2.6841,3.4365,3.3636,2.904,1.797,-6.0563,21.8063,-37.7625,,adl
15.155314,-0.2972,0.536,-1.6423,3.3636,2.904,1.797,-6.0563,21.8063,-37.7625,,adl
15.166798,-0.2972,0.536,-1.6423,3.3636,2.904,1.797,-6.0563,21.8063,-37.7625,,adl
15.20793,-0.2972,0.536,-1.6423,3.3636,2.904,1.797,-0.4125,17.3813,-38.625,,adl
15.212455,-0.2972,0.536,-1.6423,2.7672,3.6894,1.4147,-0.4125,17.3813,-38.625,,adl
15.215252,2.8692,-3.0177,-4.2091,2.7672,3.6894,1.4147,-0.4125,17.3813,-38.625,,adl
15.227817,2.8692,-3.0177,-4.2091,2.7672,3.6894,1.4147,-0.4125,17.3813,-38.625,,adl
15.268212,2.8692,-3.0177,-4.2091,2.7672,3.6894,1.4147,4.5375,14.3438,-37.9125,,adl
15.271565,5.8495,-3.052,-4.5167,2.7672,3.6894,1.4147,4.5375,14.3438,-37.9125,,adl
15.274469,5.8495,-3.052,-4.5167,1.5204,3.2676,0.5545,4.5375,14.3438,-37.9125,,adl
15.289763,5.8495,-3.052,-4.5167,1.5204,3.2676,0.5545,4.5375,14.3438,-37.9125,,adl
15.330774,5.8495,-3.052,-4.5167,-0.2362,1.2686,0.0876,4.5375,14.3438,-37.9125,,adl
15.335372,5.8495,-3.052,-4.5167,-0.2362,1.2686,0.0876,9.7875,10.8188,-37.1438,,adl
15.350236,5.8495,-3.052,-4.5167,-0.2362,1.2686,0.0876,9.7875,10.8188,-37.1438,,adl
15.352674,4.3753,-0.5611,-4.3149,-0.2362,1.2686,0.0876,9.7875,10.8188,-37.1438,,adl
15.38842,4.3753,-0.5611,-4.3149,-0.3999,-0.3218,-0.271,9.7875,10.8188,-37.1438,,adl
15.39167,4.3753,-0.5611,-4.3149,-0.3999,-0.3218,-0.271,14.925,7.0125,-36.675,,adl
15.409857,4.3753,-0.5611,-4.3149,-0.3999,-0.3218,-0.271,14.925,7.0125,-36.675,,adl
15.411439,1.7319,-0.5938,-0.5913,-0.3999,-0.3218,-0.271,14.925,7.0125,-36.675,,adl
15.450337,1.7319,-0.5938,-0.5913,-0.3057,0.0808,-0.1406,14.925,7.0125,-36.675,,adl
15.453806,1.7319,-0.5938,-0.5913,-0.3057,0.0808,-0.1406,19.725,3.0188,-36.075,,adl
15.47082,1.7319,-0.5938,-0.5913,-0.3057,0.0808,-0.1406,19.725,3.0188,-36.075,,adl
15.472448,1.0648,-0.7074,3.3865,-0.3057,0.0808,-0.1406,19.725,3.0188,-36.075,,adl
15.508458,1.0648,-0.7074,3.3865,-0.3057,0.0808,-0.1406,23.8875,-0.4313,-35.3813,,adl
15.510416,1.0648,-0.7074,3.3865,-0.2603,-0.0634,0.2613,23.8875,-0.4313,-35.3813,,adl
15.53082,1.0648,-0.7074,3.3865,-0.2603,-0.0634,0.2613,23.8875,-0.4313,-35.3813,,adl
15.533681,-0.8217,-0.2435,0.2742,-0.2603,-0.0634,0.2613,23.8875,-0.4313,-35.3813,,adl
15.567228,-0.8217,-0.2435,0.2742,-0.2603,-0.0634,0.2613,27.075,-2.9438,-34.4625,,adl
15.573759,-0.8217,-0.2435,0.2742,-0.2262,-0.2302,-0.0168,27.075,-2.9438,-34.4625,,adl
15.591011,-0.8217,-0.2435,0.2742,-0.2262,-0.2302,-0.0168,27.075,-2.9438,-34.4625,,adl
15.612378,-1.0714,0.0652,0.2197,-0.2262,-0.2302,-0.0168,27.075,-2.9438,-34.4625,,adl
15.62567,-1.0714,0.0652,0.2197,-0.2262,-0.2302,-0.0168,29.6438,-4.3688,-33.3188,,adl
15.631373,-1.0714,0.0652,0.2197,-0.1527,0.0229,0.1923,29.6438,-4.3688,-33.3188,,adl
15.651845,-1.0714,0.0652,0.2197,-0.1527,0.0229,0.1923,29.6438,-4.3688,-33.3188,,adl
15.675275,-0.1155,0.037,0.3785,-0.1527,0.0229,0.1923,29.6438,-4.3688,-33.3188,,adl
15.684986,-0.1155,0.037,0.3785,-0.1527,0.0229,0.1923,31.1625,-4.8375,-32.3438,,adl
15.692499,-0.1155,0.037,0.3785,-0.1925,-0.0264,0.3348,31.1625,-4.8375,-32.3438,,adl
15.714994,-0.1155,0.037,0.3785,-0.1925,-0.0264,0.3348,31.1625,-4.8375,-32.3438,,adl
15.732916,-0.2788,0.1022,0.479,-0.1925,-0.0264,0.3348,31.1625,-4.8375,-32.3438,,adl
15.74748,-0.2788,0.1022,0.479,-0.1925,-0.0264,0.3348,31.8,-4.6688,-32.0438,,adl
15.75234,-0.2788,0.1022,0.479,-0.0285,0.3208,0.3028,31.8,-4.6688,-32.0438,,adl
15.776093,-0.2788,0.1022,0.479,-0.0285,0.3208,0.3028,31.8,-4.6688,-32.0438,,adl
15.807402,-0.2788,0.1022,0.479,-0.0285,0.3208,0.3028,31.95,-4.6313,-32.0813,,adl
15.817101,-0.2788,0.1022,0.479,0.1241,0.38,-0.0274,31.95,-4.6313,-32.0813,,adl
15.819158,-0.5801,-0.2054,0.1881,0.1241,0.38,-0.0274,31.95,-4.6313,-32.0813,,adl
15.835015,-0.5801,-0.2054,0.1881,0.1241,0.38,-0.0274,31.95,-4.6313,-32.0813,,adl
15.86773,-0.5801,-0.2054,0.1881,0.1241,0.38,-0.0274,32.0063,-4.6313,-31.95,,adl
15.877206,-0.5801,-0.2054,0.1881,0.132,0.5401,0.0134,32.0063,-4.6313,-31.95,,adl
15.881137,-0.5924,0.028,0.1754,0.132,0.5401,0.0134,32.0063,-4.6313,-31.95,,adl
15.896516,-0.5924,0.028,0.1754,0.132,0.5401,0.0134,32.0063,-4.6313,-31.95,,adl
15.927448,-0.5924,0.028,0.1754,0.132,0.5401,0.0134,32.2125,-4.6313,-31.95,,adl
15.938129,-0.5924,0.028,0.1754,0.0595,0.5273,0.012,32.2125,-4.6313,-31.95,,adl
15.940424,-0.2397,0.0878,0.2097,0.0595,0.5273,0.012,32.2125,-4.6313,-31.95,,adl
15.956689,-0.2397,0.0878,0.2097,0.0595,0.5273,0.012,32.2125,-4.6313,-31.95,,adl
15.987781,-0.2397,0.0878,0.2097,0.0595,0.5273,0.012,32.325,-4.7438,-31.6313,,adl
16.000254,-0.2397,0.0878,0.2097,0.0546,0.6272,0.045,32.325,-4.7438,-31.6313,,adl
16.002831,-0.2273,0.0552,0.0728,0.0546,0.6272,0.045,32.325,-4.7438,-31.6313,,adl
16.019672,-0.2273,0.0552,0.0728,0.0546,0.6272,0.045,32.325,-4.7438,-31.6313,,adl
16.048241,-0.2273,0.0552,0.0728,0.0546,0.6272,0.045,32.9062,-4.8,-30.9188,,adl
16.059745,-0.2273,0.0552,0.0728,-0.1016,0.7308,0.0461,32.9062,-4.8,-30.9188,,adl
16.079795,-0.2273,0.0552,0.0728,-0.1016,0.7308,0.0461,32.9062,-4.8,-30.9188,,adl
16.082491,-0.6406,0.2565,0.3415,-0.1016,0.7308,0.0461,32.9062,-4.8,-30.9188,,adl
16.107012,-0.6406,0.2565,0.3415,-0.1016,0.7308,0.0461,33.5625,-5.0063,-30.0188,,adl
16.120636,-0.6406,0.2565,0.3415,-0.2674,0.7734,-0.0238,33.5625,-5.0063,-30.0188,,adl
16.139564,-0.6406,0.2565,0.3415,-0.2674,0.7734,-0.0238,33.5625,-5.0063,-30.0188,,adl
16.141753,-0.5511,0.3265,0.7739,-0.2674,0.7734,-0.0238,33.5625,-5.0063,-30.0188,,adl
16.165154,-0.5511,0.3265,0.7739,-0.2674,0.7734,-0.0238,34.5,-5.175,-28.9125,,adl
16.18095,-0.5511,0.3265,0.7739,-0.2625,1.1653,-0.1467,34.5,-5.175,-28.9125,,adl
16.202828,-0.5511,0.3265,0.7739,-0.2625,1.1653,-0.1467,34.5,-5.175,-28.9125,,adl
16.205587,-0.8871,0.0507,0.6906,-0.2625,1.1653,-0.1467,34.5,-5.175,-28.9125,,adl
16.227775,-0.8871,0.0507,0.6906,-0.2625,1.1653,-0.1467,34.8375,-5.1,-27.9188,,adl
16.242376,-0.8871,0.0507,0.6906,-0.2955,2.012,-0.1186,34.8375,-5.1,-27.9188,,adl
16.261893,-0.8871,0.0507,0.6906,-0.2955,2.012,-0.1186,34.8375,-5.1,-27.9188,,adl
16.281137,-1.5622,-0.1591,1.6222,-0.2955,2.012,-0.1186,34.8375,-5.1,-27.9188,,adl
16.284805,-1.5622,-0.1591,1.6222,-0.2955,2.012,-0.1186,36.0188,-4.7625,-25.8188,,adl
16.30171,-1.5622,-0.1591,1.6222,-0.4598,3.099,0.3305,36.0188,-4.7625,-25.8188,,adl
16.322709,-1.5622,-0.1591,1.6222,-0.4598,3.099,0.3305,36.0188,-4.7625,-25.8188,,adl
16.344851,-1.6816,-0.6413,1.9022,-0.4598,3.099,0.3305,36.0188,-4.7625,-25.8188,,adl
16.347949,-1.6816,-0.6413,1.9022,-0.4598,3.099,0.3305,37.3313,-4.8188,-22.7438,,adl
16.364145,-1.6816,-0.6413,1.9022,-0.4832,3.9786,0.967,37.3313,-4.8188,-22.7438,,adl
16.383189,-1.6816,-0.6413,1.9022,-0.4832,3.9786,0.967,37.3313,-4.8188,-22.7438,,adl
16.404944,-2.1232,-1.7616,2.3317,-0.4832,3.9786,0.967,37.3313,-4.8188,-22.7438,,adl
16.408803,-2.1232,-1.7616,2.3317,-0.4832,3.9786,0.967,38.4,-5.1375,-18.3563,,adl
16.424667,-2.1232,-1.7616,2.3317,-0.0778,3.732,1.0035,38.4,-5.1375,-18.3563,,adl
16.44487,-2.1232,-1.7616,2.3317,-0.0778,3.732,1.0035,38.4,-5.1375,-18.3563,,adl
16.467126,1.7299,-1.677,2.1115,-0.0778,3.732,1.0035,38.4,-5.1375,-18.3563,,adl
16.470153,1.7299,-1.677,2.1115,-0.0778,3.732,1.0035,39.0,-5.8688,-12.3375,,adl
16.48596,1.7299,-1.677,2.1115,0.5481,2.1629,1.0043,39.0,-5.8688,-12.3375,,adl
16.50819,1.7299,-1.677,2.1115,0.5481,2.1629,1.0043,39.0,-5.8688,-12.3375,,adl
16.527322,1.7299,-1.677,2.1115,0.5481,2.1629,1.0043,39.1313,-6.7125,-6.6188,,adl
16.549704,1.7299,-1.677,2.1115,1.7938,1.1365,0.6936,39.1313,-6.7125,-6.6188,,adl
16.551964,2.5348,0.6585,3.5684,1.7938,1.1365,0.6936,39.1313,-6.7125,-6.6188,,adl
16.567447,2.5348,0.6585,3.5684,1.7938,1.1365,0.6936,39.1313,-6.7125,-6.6188,,adl
16.588744,2.5348,0.6585,3.5684,1.7938,1.1365,0.6936,38.8313,-7.3125,-0.7125,,adl
16.607817,2.5348,0.6585,3.5684,2.8484,1.6903,0.4635,38.8313,-7.3125,-0.7125,,adl
16.610835,3.6382,0.1181,3.1702,2.8484,1.6903,0.4635,38.8313,-7.3125,-0.7125,,adl
16.628072,3.6382,0.1181,3.1702,2.8484,1.6903,0.4635,38.8313,-7.3125,-0.7125,,adl
16.648234,3.6382,0.1181,3.1702,2.8484,1.6903,0.4635,38.025,-7.5375,5.6063,,adl
16.667793,3.6382,0.1181,3.1702,3.3067,1.0585,0.3372,38.025,-7.5375,5.6063,,adl
16.671719,3.0566,-1.1108,-0.0089,3.3067,1.0585,0.3372,38.025,-7.5375,5.6063,,adl
16.687203,3.0566,-1.1108,-0.0089,3.3067,1.0585,0.3372,38.025,-7.5375,5.6063,,adl
16.707571,3.0566,-1.1108,-0.0089,3.3067,1.0585,0.3372,36.8063,-7.275,11.6625,,adl
16.729888,3.0566,-1.1108,-0.0089,3.1268,0.6065,0.2108,36.8063,-7.275,11.6625,,adl
16.750718,3.0566,-1.1108,-0.0089,3.1268,0.6065,0.2108,36.8063,-7.275,11.6625,,adl
16.753489,1.27,-2.6456,-2.7176,3.1268,0.6065,0.2108,36.8063,-7.275,11.6625,,adl
16.766017,1.27,-2.6456,-2.7176,3.1268,0.6065,0.2108,35.1188,-6.3938,17.3813,,adl
16.788472,1.27,-2.6456,-2.7176,2.6293,1.4561,0.084,35.1188,-6.3938,17.3813,,adl
16.810875,1.27,-2.6456,-2.7176,2.6293,1.4561,0.084,35.1188,-6.3938,17.3813,,adl
16.813841,1.2937,-2.5321,-4.8899,2.6293,1.4561,0.084,35.1188,-6.3938,17.3813,,adl
16.824746,1.2937,-2.5321,-4.8899,2.6293,1.4561,0.084,32.55,-4.0312,22.65,,adl
16.850211,1.2937,-2.5321,-4.8899,1.3212,2.4926,-0.0831,32.55,-4.0312,22.65,,adl
16.869433,1.2937,-2.5321,-4.8899,1.3212,2.4926,-0.0831,32.55,-4.0312,22.65,,adl
16.870826,1.8761,-2.0582,-6.4788,1.3212,2.4926,-0.0831,32.55,-4.0312,22.65,,adl
16.884477,1.8761,-2.0582,-6.4788,1.3212,2.4926,-0.0831,29.7375,-1.4062,26.3625,,adl
16.911574,1.8761,-2.0582,-6.4788,-0.2706,1.6594,-0.234,29.7375,-1.4062,26.3625,,adl
16.931926,1.8761,-2.0582,-6.4788,-0.2706,1.6594,-0.234,29.7375,-1.4062,26.3625,,adl
16.934141,1.4457,1.1581,-6.9307,-0.2706,1.6594,-0.234,29.7375,-1.4062,26.3625,,adl
16.947709,1.4457,1.1581,-6.9307,-0.2706,1.6594,-0.234,26.9438,1.425,28.9875,,adl
16.972858,1.4457,1.1581,-6.9307,-0.6838,-1.5948,1.0128,26.9438,1.425,28.9875,,adl
16.992762,1.4457,1.1581,-6.9307,-0.6838,-1.5948,1.0128,26.9438,1.425,28.9875,,adl
17.011686,1.4457,1.1581,-6.9307,-0.6838,-1.5948,1.0128,24.9,4.2563,31.1625,,adl
17.014017,-2.2526,-1.19,2.9307,-0.6838,-1.5948,1.0128,24.9,4.2563,31.1625,,adl
17.034006,-2.2526,-1.19,2.9307,-0.9682,0.0144,-0.0057,24.9,4.2563,31.1625,,adl
17.054624,-2.2526,-1.19,2.9307,-0.9682,0.0144,-0.0057,24.9,4.2563,31.1625,,adl
17.068023,-2.2526,-1.19,2.9307,-0.9682,0.0144,-0.0057,23.25,6.525,32.9625,,adl
17.074944,0.8053,-1.4564,-2.3318,-0.9682,0.0144,-0.0057,23.25,6.525,32.9625,,adl
17.095372,0.8053,-1.4564,-2.3318,-0.5976,0.1652,0.1083,23.25,6.525,32.9625,,adl
17.115704,0.8053,-1.4564,-2.3318,-0.5976,0.1652,0.1083,23.25,6.525,32.9625,,adl
17.124734,0.8053,-1.4564,-2.3318,-0.5976,0.1652,0.1083,21.8438,7.9688,34.275,,adl
17.133571,-0.5446,0.6438,0.8326,-0.5976,0.1652,0.1083,21.8438,7.9688,34.275,,adl
17.156369,-0.5446,0.6438,0.8326,-0.5103,0.2906,0.1818,21.8438,7.9688,34.275,,adl
17.174276,-0.5446,0.6438,0.8326,-0.5103,0.2906,0.1818,21.8438,7.9688,34.275,,adl
17.186477,-0.5446,0.6438,0.8326,-0.5103,0.2906,0.1818,20.4938,8.7188,35.3625,,adl
17.218214,-0.5446,0.6438,0.8326,-0.3988,0.3265,-0.0036,20.4938,8.7188,35.3625,,adl
17.219978,0.1325,-0.0536,0.5927,-0.3988,0.3265,-0.0036,20.4938,8.7188,35.3625,,adl
17.236539,0.1325,-0.0536,0.5927,-0.3988,0.3265,-0.0036,20.4938,8.7188,35.3625,,adl
17.246858,0.1325,-0.0536,0.5927,-0.3988,0.3265,-0.0036,19.1813,8.55,36.375,,adl
17.276801,0.1325,-0.0536,0.5927,-0.4715,0.3977,-0.0927,19.1813,8.55,36.375,,adl
17.280724,-0.5243,0.0843,0.4743,-0.4715,0.3977,-0.0927,19.1813,8.55,36.375,,adl
17.29917,-0.5243,0.0843,0.4743,-0.4715,0.3977,-0.0927,19.1813,8.55,36.375,,adl
17.306737,-0.5243,0.0843,0.4743,-0.4715,0.3977,-0.0927,18.2063,7.5,37.1813,,adl
17.339307,-0.4184,0.3997,0.9896,-0.4715,0.3977,-0.0927,18.2063,7.5,37.1813,,adl
17.343787,-0.4184,0.3997,0.9896,-0.5521,0.2892,-0.0356,18.2063,7.5,37.1813,,adl
17.35775,-0.4184,0.3997,0.9896,-0.5521,0.2892,-0.0356,18.2063,7.5,37.1813,,adl
17.365444,-0.4184,0.3997,0.9896,-0.5521,0.2892,-0.0356,17.9062,5.8875,37.8375,,adl
17.400016,-0.3714,0.0984,0.9325,-0.5521,0.2892,-0.0356,17.9062,5.8875,37.8375,,adl
17.404069,-0.3714,0.0984,0.9325,-0.5482,0.1479,-0.0232,17.9062,5.8875,37.8375,,adl
17.419256,-0.3714,0.0984,0.9325,-0.5482,0.1479,-0.0232,17.9062,5.8875,37.8375,,adl
17.424788,-0.3714,0.0984,0.9325,-0.5482,0.1479,-0.0232,17.8125,4.0688,38.4,,adl
17.460472,-0.3714,0.0984,0.9325,-0.5535,0.1731,0.0152,17.8125,4.0688,38.4,,adl
17.48242,-0.3714,0.0984,0.9325,-0.5535,0.1731,0.0152,17.8125,4.0688,38.4,,adl
17.483916,-0.1289,-0.0582,0.6748,-0.5535,0.1731,0.0152,17.8125,4.0688,38.4,,adl
17.48925,-0.1289,-0.0582,0.6748,-0.5535,0.1731,0.0152,17.1562,2.3625,38.8688,,adl
17.519205,-0.1289,-0.0582,0.6748,-0.7368,0.3172,0.028,17.1562,2.3625,38.8688,,adl
17.539564,-0.1289,-0.0582,0.6748,-0.7368,0.3172,0.028,17.1562,2.3625,38.8688,,adl
17.540981,-0.2956,0.1279,0.7516,-0.7368,0.3172,0.028,17.1562,2.3625,38.8688,,adl
17.543424,-0.2956,0.1279,0.7516,-0.7368,0.3172,0.028,16.2938,0.825,39.2625,,adl
17.584149,-0.2956,0.1279,0.7516,-0.9791,0.4137,-0.0675,16.2938,0.825,39.2625,,adl
17.601537,-0.2956,0.1279,0.7516,-0.9791,0.4137,-0.0675,16.2938,0.825,39.2625,,adl
17.604007,-0.5062,0.0995,1.1129,-0.9791,0.4137,-0.0675,16.2938,0.825,39.2625,,adl
17.606566,-0.5062,0.0995,1.1129,-0.9791,0.4137,-0.0675,15.2813,-0.8438,39.6938,,adl
17.644255,-0.5062,0.0995,1.1129,-1.1393,0.6666,-0.0991,15.2813,-0.8438,39.6938,,adl
17.662753,-0.5062,0.0995,1.1129,-1.1393,0.6666,-0.0991,15.2813,-0.8438,39.6938,,adl
17.665245,-0.5062,0.0995,1.1129,-1.1393,0.6666,-0.0991,14.25,-2.7563,40.2,,adl
17.681963,-0.2919,-0.2951,0.9706,-1.1393,0.6666,-0.0991,14.25,-2.7563,40.2,,adl
17.704253,-0.2919,-0.2951,0.9706,-1.1585,1.1309,-0.2657,14.25,-2.7563,40.2,,adl
17.722406,-0.2919,-0.2951,0.9706,-1.1585,1.1309,-0.2657,14.25,-2.7563,40.2,,adl
17.724577,-0.2919,-0.2951,0.9706,-1.1585,1.1309,-0.2657,13.125,-4.7812,40.5,,adl
17.745494,-0.8131,-1.8113,1.3617,-1.1585,1.1309,-0.2657,13.125,-4.7812,40.5,,adl
17.764472,-0.8131,-1.8113,1.3617,-1.6462,1.5043,-0.3895,13.125,-4.7812,40.5,,adl
17.785522,-0.8131,-1.8113,1.3617,-1.6462,1.5043,-0.3895,13.125,-4.7812,40.5,,adl
17.787097,-0.8131,-1.8113,1.3617,-1.6462,1.5043,-0.3895,12.2438,-6.2438,40.575,,adl
17.813234,-0.2569,-3.7761,2.344,-1.6462,1.5043,-0.3895,12.2438,-6.2438,40.575,,adl
17.825162,-0.2569,-3.7761,2.344,-1.6366,1.2846,-0.0447,12.2438,-6.2438,40.575,,adl
17.846218,-0.2569,-3.7761,2.344,-1.6366,1.2846,-0.0447,10.3875,-8.9062,40.4813,,adl
17.84806,-0.2569,-3.7761,2.344,-1.6366,1.2846,-0.0447,10.3875,-8.9062,40.4813,,adl
17.86591,0.8447,-3.1166,4.5512,-1.6366,1.2846,-0.0447,10.3875,-8.9062,40.4813,,adl
17.885943,0.8447,-3.1166,4.5512,-0.4662,1.0197,0.1366,10.3875,-8.9062,40.4813,,adl
17.907059,0.8447,-3.1166,4.5512,-0.4662,1.0197,0.1366,8.2313,-11.3625,40.6125,,adl
17.909903,0.8447,-3.1166,4.5512,-0.4662,1.0197,0.1366,8.2313,-11.3625,40.6125,,adl
17.948274,0.8447,-3.1166,4.5512,1.7785,1.2856,-0.1368,8.2313,-11.3625,40.6125,,adl
17.951467,-0.7634,0.926,4.3602,1.7785,1.2856,-0.1368,8.2313,-11.3625,40.6125,,adl
17.967949,-0.7634,0.926,4.3602,1.7785,1.2856,-0.1368,5.7188,-12.9938,40.8188,,adl
17.970312,-0.7634,0.926,4.3602,1.7785,1.2856,-0.1368,5.7188,-12.9938,40.8188,,adl
18.0079,-0.7634,0.926,4.3602,3.4746,1.7018,0.3627,5.7188,-12.9938,40.8188,,adl
18.011667,-0.2469,2.0175,4.3111,3.4746,1.7018,0.3627,5.7188,-12.9938,40.8188,,adl
18.024953,-0.2469,2.0175,4.3111,3.4746,1.7018,0.3627,2.9062,-13.0313,41.2688,,adl
18.027222,-0.2469,2.0175,4.3111,3.4746,1.7018,0.3627,2.9062,-13.0313,41.2688,,adl
18.070062,-0.2469,2.0175,4.3111,4.0278,0.6892,1.0045,2.9062,-13.0313,41.2688,,adl
18.073226,-0.1194,1.0918,-0.3275,4.0278,0.6892,1.0045,2.9062,-13.0313,41.2688,,adl
18.085152,-0.1194,1.0918,-0.3275,4.0278,0.6892,1.0045,0.1313,-11.1188,41.4188,,adl
18.088209,-0.1194,1.0918,-0.3275,4.0278,0.6892,1.0045,0.1313,-11.1188,41.4188,,adl
18.131061,-0.1194,1.0918,-0.3275,3.7842,0.5522,1.2229,0.1313,-11.1188,41.4188,,adl
18.14631,-0.1194,1.0918,-0.3275,3.7842,0.5522,1.2229,-2.55,-7.5563,40.8,,adl
18.150583,-0.1194,1.0918,-0.3275,3.7842,0.5522,1.2229,-2.55,-7.5563,40.8,,adl
18.151977,-0.2649,-3.1761,-4.4488,3.7842,0.5522,1.2229,-2.55,-7.5563,40.8,,adl
18.191901,-0.2649,-3.1761,-4.4488,2.634,1.777,0.2289,-2.55,-7.5563,40.8,,adl
18.206108,-0.2649,-3.1761,-4.4488,2.634,1.777,0.2289,-5.4375,-2.7,39.45,,adl
18.209481,-0.2649,-3.1761,-4.4488,2.634,1.777,0.2289,-5.4375,-2.7,39.45,,adl
18.2105,2.482,-5.06,-7.3273,2.634,1.777,0.2289,-5.4375,-2.7,39.45,,adl
18.252716,2.482,-5.06,-7.3273,1.596,3.1484,0.2129,-5.4375,-2.7,39.45,,adl
18.265901,2.482,-5.06,-7.3273,1.596,3.1484,0.2129,-8.5688,2.925,37.35,,adl
18.269736,2.482,-5.06,-7.3273,1.596,3.1484,0.2129,-8.5688,2.925,37.35,,adl
18.270708,4.0505,-2.129,-6.8765,1.596,3.1484,0.2129,-8.5688,2.925,37.35,,adl
18.313708,4.0505,-2.129,-6.8765,-0.0174,2.194,-0.0121,-8.5688,2.925,37.35,,adl
18.327341,4.0505,-2.129,-6.8765,-0.0174,2.194,-0.0121,-11.7,9.0563,35.0438,,adl
18.33378,4.0505,-2.129,-6.8765,-0.0174,2.194,-0.0121,-11.7,9.0563,35.0438,,adl
18.334678,3.4652,0.151,-6.3627,-0.0174,2.194,-0.0121,-11.7,9.0563,35.0438,,adl
18.376013,3.4652,0.151,-6.3627,-0.8226,-2.62,0.2069,-11.7,9.0563,35.0438,,adl
18.384724,3.4652,0.151,-6.3627,-0.8226,-2.62,0.2069,-14.0438,15.375,33.0,,adl
18.392595,3.4652,0.151,-6.3627,-0.8226,-2.62,0.2069,-14.0438,15.375,33.0,,adl
18.413155,-0.4079,-1.8505,2.9603,-0.8226,-2.62,0.2069,-14.0438,15.375,33.0,,adl
18.43551,-0.4079,-1.8505,2.9603,-1.0083,-0.0144,-0.0277,-14.0438,15.375,33.0,,adl
18.446979,-0.4079,-1.8505,2.9603,-1.0083,-0.0144,-0.0277,-15.7875,20.7,31.125,,adl
18.456157,-0.4079,-1.8505,2.9603,-1.0083,-0.0144,-0.0277,-15.7875,20.7,31.125,,adl
18.474008,2.0299,-1.2875,-2.4259,-1.0083,-0.0144,-0.0277,-15.7875,20.7,31.125,,adl
18.495374,2.0299,-1.2875,-2.4259,-0.6739,-0.0892,0.1178,-15.7875,20.7,31.125,,adl
18.506028,2.0299,-1.2875,-2.4259,-0.6739,-0.0892,0.1178,-17.175,24.6188,29.2313,,adl
18.51854,2.0299,-1.2875,-2.4259,-0.6739,-0.0892,0.1178,-17.175,24.6188,29.2313,,adl
18.534957,-0.6453,0.6723,1.4486,-0.6739,-0.0892,0.1178,-17.175,24.6188,29.2313,,adl
18.555464,-0.6453,0.6723,1.4486,-0.4212,0.2703,0.0947,-17.175,24.6188,29.2313,,adl
18.566617,-0.6453,0.6723,1.4486,-0.4212,0.2703,0.0947,-18.4125,26.9063,27.7313,,adl
18.575311,-0.6453,0.6723,1.4486,-0.4212,0.2703,0.0947,-18.4125,26.9063,27.7313,,adl
18.619357,-0.6453,0.6723,1.4486,-0.2819,0.3605,-0.1204,-18.4125,26.9063,27.7313,,adl
18.624078,0.0791,-0.3982,0.5387,-0.2819,0.3605,-0.1204,-18.4125,26.9063,27.7313,,adl
18.628584,0.0791,-0.3982,0.5387,-0.2819,0.3605,-0.1204,-19.7063,27.5063,26.775,,adl
18.63602,0.0791,-0.3982,0.5387,-0.2819,0.3605,-0.1204,-19.7063,27.5063,26.775,,adl
18.679036,0.0791,-0.3982,0.5387,-0.2621,0.7148,-0.1818,-19.7063,27.5063,26.775,,adl
18.681952,-0.6479,0.0597,1.0013,-0.2621,0.7148,-0.1818,-19.7063,27.5063,26.775,,adl
18.686796,-0.6479,0.0597,1.0013,-0.2621,0.7148,-0.1818,-20.7375,27.3375,26.5125,,adl
18.69634,-0.6479,0.0597,1.0013,-0.2621,0.7148,-0.1818,-20.7375,27.3375,26.5125,,adl
18.74188,-0.6479,0.0597,1.0013,-0.2553,0.5739,-0.1289,-20.7375,27.3375,26.5125,,adl
18.743712,-0.3693,0.1323,1.0577,-0.2553,0.5739,-0.1289,-20.7375,27.3375,26.5125,,adl
18.744812,-0.3693,0.1323,1.0577,-0.2553,0.5739,-0.1289,-21.1875,26.5125,27.0938,,adl
18.759778,-0.3693,0.1323,1.0577,-0.2553,0.5739,-0.1289,-21.1875,26.5125,27.0938,,adl
18.800773,-0.5887,0.2912,0.8686,-0.2553,0.5739,-0.1289,-21.1875,26.5125,27.0938,,adl
18.805935,-0.5887,0.2912,0.8686,-0.1836,0.4894,-0.1065,-21.1875,26.5125,27.0938,,adl
18.808487,-0.5887,0.2912,0.8686,-0.1836,0.4894,-0.1065,-21.3938,25.65,27.8438,,adl
18.819544,-0.5887,0.2912,0.8686,-0.1836,0.4894,-0.1065,-21.3938,25.65,27.8438,,adl
18.863945,-0.5887,0.2912,0.8686,-0.0913,0.4318,-0.1378,-21.3938,25.65,27.8438,,adl
18.866319,-0.5887,0.2912,0.8686,-0.0913,0.4318,-0.1378,-22.1813,24.6563,28.125,,adl
18.880025,-0.5887,0.2912,0.8686,-0.0913,0.4318,-0.1378,-22.1813,24.6563,28.125,,adl
18.882231,-0.5466,0.0864,0.5881,-0.0913,0.4318,-0.1378,-22.1813,24.6563,28.125,,adl
18.91952,-0.5466,0.0864,0.5881,-0.0818,0.4007,-0.2013,-22.1813,24.6563,28.125,,adl
18.926125,-0.5466,0.0864,0.5881,-0.0818,0.4007,-0.2013,-23.1562,23.9062,27.8813,,adl
18.941453,-0.5466,0.0864,0.5881,-0.0818,0.4007,-0.2013,-23.1562,23.9062,27.8813,,adl
18.943052,-0.923,0.4164,0.7894,-0.0818,0.4007,-0.2013,-23.1562,23.9062,27.8813,,adl
18.984564,-0.923,0.4164,0.7894,-0.1084,0.5686,-0.332,-23.1562,23.9062,27.8813,,adl
18.988507,-0.923,0.4164,0.7894,-0.1084,0.5686,-0.332,-24.2813,23.1,27.5625,,adl
19.003473,-0.923,0.4164,0.7894,-0.1084,0.5686,-0.332,-24.2813,23.1,27.5625,,adl
19.006022,-0.6455,0.125,0.6107,-0.1084,0.5686,-0.332,-24.2813,23.1,27.5625,,adl
19.044598,-0.6455,0.125,0.6107,-0.1246,0.724,-0.4282,-24.2813,23.1,27.5625,,adl
19.047062,-0.6455,0.125,0.6107,-0.1246,0.724,-0.4282,-25.575,22.2563,26.85,,adl
19.062725,-0.6455,0.125,0.6107,-0.1246,0.724,-0.4282,-25.575,22.2563,26.85,,adl
19.083228,-0.6308,0.104,0.5551,-0.1246,0.724,-0.4282,-25.575,22.2563,26.85,,adl
19.102986,-0.6308,0.104,0.5551,-0.0395,1.3798,-0.534,-25.575,22.2563,26.85,,adl
19.105959,-0.6308,0.104,0.5551,-0.0395,1.3798,-0.534,-26.9813,21.4875,25.95,,adl
19.125553,-0.6308,0.104,0.5551,-0.0395,1.3798,-0.534,-26.9813,21.4875,25.95,,adl
19.145751,-0.7756,-0.219,0.6365,-0.0395,1.3798,-0.534,-26.9813,21.4875,25.95,,adl
19.166352,-0.7756,-0.219,0.6365,0.1848,2.4894,-0.3731,-26.9813,21.4875,25.95,,adl
19.168428,-0.7756,-0.219,0.6365,0.1848,2.4894,-0.3731,-28.4438,20.6063,24.7125,,adl
19.188195,-0.7756,-0.219,0.6365,0.1848,2.4894,-0.3731,-28.4438,20.6063,24.7125,,adl
19.207626,-1.1145,0.3448,0.8704,0.1848,2.4894,-0.3731,-28.4438,20.6063,24.7125,,adl
19.225932,-1.1145,0.3448,0.8704,0.1848,2.4894,-0.3731,-30.4688,19.9313,22.1438,,adl
19.228155,-1.1145,0.3448,0.8704,0.7912,4.0206,-0.0221,-30.4688,19.9313,22.1438,,adl
19.246653,-1.1145,0.3448,0.8704,0.7912,4.0206,-0.0221,-30.4688,19.9313,22.1438,,adl
19.267124,-1.8163,0.0794,1.2059,0.7912,4.0206,-0.0221,-30.4688,19.9313,22.1438,,adl
19.287419,-1.8163,0.0794,1.2059,0.7912,4.0206,-0.0221,-32.1562,19.2938,18.1875,,adl
19.289785,-1.8163,0.0794,1.2059,1.4121,4.8083,0.3031,-32.1562,19.2938,18.1875,,adl
19.307662,-1.8163,0.0794,1.2059,1.4121,4.8083,0.3031,-32.1562,19.2938,18.1875,,adl
19.34697,-1.8163,0.0794,1.2059,1.3486,3.6965,0.1905,-32.1562,19.2938,18.1875,,adl
19.349932,-0.5627,0.3751,0.4613,1.3486,3.6965,0.1905,-32.1562,19.2938,18.1875,,adl
19.351354,-0.5627,0.3751,0.4613,1.3486,3.6965,0.1905,-33.45,18.7313,12.8813,,adl
19.367351,-0.5627,0.3751,0.4613,1.3486,3.6965,0.1905,-33.45,18.7313,12.8813,,adl
19.408091,-0.5627,0.3751,0.4613,1.3486,3.6965,0.1905,-34.3313,18.15,6.7313,,adl
19.412333,-0.5627,0.3751,0.4613,0.7752,2.2122,0.0808,-34.3313,18.15,6.7313,,adl
19.414785,2.0314,-0.4386,-0.7655,0.7752,2.2122,0.0808,-34.3313,18.15,6.7313,,adl
19.427581,2.0314,-0.4386,-0.7655,0.7752,2.2122,0.0808,-34.3313,18.15,6.7313,,adl
19.466807,2.0314,-0.4386,-0.7655,0.7752,2.2122,0.0808,-34.6313,17.5312,-0.15,,adl
19.470788,2.0314,-0.4386,-0.7655,0.465,2.0315,-0.0605,-34.6313,17.5312,-0.15,,adl
19.472835,1.7578,-0.7081,-1.5319,0.465,2.0315,-0.0605,-34.6313,17.5312,-0.15,,adl
19.488397,1.7578,-0.7081,-1.5319,0.465,2.0315,-0.0605,-34.6313,17.5312,-0.15,,adl
19.526947,1.7578,-0.7081,-1.5319,0.465,2.0315,-0.0605,-34.2563,17.0813,-7.5188,,adl
19.530882,1.7578,-0.7081,-1.5319,0.2541,2.4245,-0.0515,-34.2563,17.0813,-7.5188,,adl
19.550489,1.7578,-0.7081,-1.5319,0.2541,2.4245,-0.0515,-34.2563,17.0813,-7.5188,,adl
19.552732,0.7474,0.3326,-1.0623,0.2541,2.4245,-0.0515,-34.2563,17.0813,-7.5188,,adl
19.587867,0.7474,0.3326,-1.0623,0.2541,2.4245,-0.0515,-33.6562,16.7438,-13.7438,,adl
19.591945,0.7474,0.3326,-1.0623,0.0755,2.3588,-0.0522,-33.6562,16.7438,-13.7438,,adl
19.611384,0.7474,0.3326,-1.0623,0.0755,2.3588,-0.0522,-33.6562,16.7438,-13.7438,,adl
19.613425,-0.2391,0.1585,-0.7036,0.0755,2.3588,-0.0522,-33.6562,16.7438,-13.7438,,adl
19.647185,-0.2391,0.1585,-0.7036,0.0755,2.3588,-0.0522,-31.5563,16.4813,-21.1875,,adl
19.652422,-0.2391,0.1585,-0.7036,0.0497,1.9417,-0.0121,-31.5563,16.4813,-21.1875,,adl
19.672091,-0.2391,0.1585,-0.7036,0.0497,1.9417,-0.0121,-31.5563,16.4813,-21.1875,,adl
19.673721,-0.6354,0.1502,-0.2395,0.0497,1.9417,-0.0121,-31.5563,16.4813,-21.1875,,adl
19.707141,-0.6354,0.1502,-0.2395,0.0497,1.9417,-0.0121,-28.425,16.3313,-27.6375,,adl
19.714648,-0.6354,0.1502,-0.2395,0.4238,1.0346,0.0752,-28.425,16.3313,-27.6375,,adl
19.733107,-0.6354,0.1502,-0.2395,0.4238,1.0346,0.0752,-28.425,16.3313,-27.6375,,adl
19.735604,-0.7395,0.5687,0.9075,0.4238,1.0346,0.0752,-28.425,16.3313,-27.6375,,adl
19.767422,-0.7395,0.5687,0.9075,0.4238,1.0346,0.0752,-25.35,16.0875,-32.7,,adl
19.774409,-0.7395,0.5687,0.9075,0.6453,-0.402,0.2172,-25.35,16.0875,-32.7,,adl
19.796158,-0.7395,0.5687,0.9075,0.6453,-0.402,0.2172,-25.35,16.0875,-32.7,,adl
19.815315,-1.7531,0.3157,2.4917,0.6453,-0.402,0.2172,-25.35,16.0875,-32.7,,adl
19.824815,-1.7531,0.3157,2.4917,0.6453,-0.402,0.2172,-22.425,15.7313,-36.2063,,adl
19.834848,-1.7531,0.3157,2.4917,0.3538,0.0744,0.1232,-22.425,15.7313,-36.2063,,adl
19.854969,-1.7531,0.3157,2.4917,0.3538,0.0744,0.1232,-22.425,15.7313,-36.2063,,adl
19.874941,-0.2543,-0.885,-0.4753,0.3538,0.0744,0.1232,-22.425,15.7313,-36.2063,,adl
19.885441,-0.2543,-0.885,-0.4753,0.3538,0.0744,0.1232,-20.025,15.3375,-38.7188,,adl
19.897699,-0.2543,-0.885,-0.4753,0.0386,-0.1024,0.1096,-20.025,15.3375,-38.7188,,adl
19.914914,-0.2543,-0.885,-0.4753,0.0386,-0.1024,0.1096,-20.025,15.3375,-38.7188,,adl
19.938038,0.7099,0.1186,-0.0274,0.0386,-0.1024,0.1096,-20.025,15.3375,-38.7188,,adl
19.946129,0.7099,0.1186,-0.0274,0.0386,-0.1024,0.1096,-17.85,14.9813,-40.6125,,adl
19.955812,0.7099,0.1186,-0.0274,-0.0696,-0.1407,0.1607,-17.85,14.9813,-40.6125,,adl
19.97579,0.7099,0.1186,-0.0274,-0.0696,-0.1407,0.1607,-17.85,14.9813,-40.6125,,adl
20.005937,0.7099,0.1186,-0.0274,-0.0696,-0.1407,0.1607,-16.4438,14.6438,-41.775,,adl
20.018514,0.7099,0.1186,-0.0274,-0.1225,-0.1947,0.1511,-16.4438,14.6438,-41.775,,adl
20.020811,-0.703,0.1416,0.2669,-0.1225,-0.1947,0.1511,-16.4438,14.6438,-41.775,,adl
20.038407,-0.703,0.1416,0.2669,-0.1225,-0.1947,0.1511,-16.4438,14.6438,-41.775,,adl
20.067511,-0.703,0.1416,0.2669,-0.1225,-0.1947,0.1511,-15.4688,14.4938,-42.5063,,adl
20.081154,-0.703,0.1416,0.2669,0.0045,-0.0676,0.1015,-15.4688,14.4938,-42.5063,,adl
20.084259,0.1838,-0.0525,-0.073,0.0045,-0.0676,0.1015,-15.4688,14.4938,-42.5063,,adl
20.099437,0.1838,-0.0525,-0.073,0.0045,-0.0676,0.1015,-15.4688,14.4938,-42.5063,,adl
20.127365,0.1838,-0.0525,-0.073,0.0045,-0.0676,0.1015,-14.9625,14.5125,-42.8438,,adl
20.139226,0.1838,-0.0525,-0.073,0.1085,0.139,0.018,-14.9625,14.5125,-42.8438,,adl
20.141486,-0.0996,-0.1764,-0.2145,0.1085,0.139,0.018,-14.9625,14.5125,-42.8438,,adl
20.159572,-0.0996,-0.1764,-0.2145,0.1085,0.139,0.018,-14.9625,14.5125,-42.8438,,adl
20.185518,-0.0996,-0.1764,-0.2145,0.1085,0.139,0.018,-14.9813,14.1563,-43.0312,,adl
20.200041,-0.0996,-0.1764,-0.2145,0.1128,0.1369,-0.0967,-14.9813,14.1563,-43.0312,,adl
20.201833,-0.1256,-0.0317,-0.1688,0.1128,0.1369,-0.0967,-14.9813,14.1563,-43.0312,,adl
20.221202,-0.1256,-0.0317,-0.1688,0.1128,0.1369,-0.0967,-14.9813,14.1563,-43.0312,,adl
20.246753,-0.1256,-0.0317,-0.1688,0.1128,0.1369,-0.0967,-14.9438,13.8375,-42.8625,,adl
20.259746,-0.1256,-0.0317,-0.1688,0.0936,0.1234,-0.0973,-14.9438,13.8375,-42.8625,,adl
20.282914,-0.1256,-0.0317,-0.1688,0.0936,0.1234,-0.0973,-14.9438,13.8375,-42.8625,,adl
20.285934,-0.2544,0.0275,-0.0772,0.0936,0.1234,-0.0973,-14.9438,13.8375,-42.8625,,adl
20.306076,-0.2544,0.0275,-0.0772,0.0936,0.1234,-0.0973,-14.8688,13.8,-42.75,,adl
20.323542,-0.2544,0.0275,-0.0772,0.0393,0.0172,-0.0899,-14.8688,13.8,-42.75,,adl
20.343781,-0.2544,0.0275,-0.0772,0.0393,0.0172,-0.0899,-14.8688,13.8,-42.75,,adl
20.347563,-0.0125,0.0691,-0.0038,0.0393,0.0172,-0.0899,-14.8688,13.8,-42.75,,adl
20.364567,-0.0125,0.0691,-0.0038,0.0393,0.0172,-0.0899,-14.6813,13.7625,-42.7125,,adl
20.382243,-0.0125,0.0691,-0.0038,0.0382,-0.0044,-0.0818,-14.6813,13.7625,-42.7125,,adl
20.404272,-0.0125,0.0691,-0.0038,0.0382,-0.0044,-0.0818,-14.6813,13.7625,-42.7125,,adl
20.407119,-0.1265,0.0838,-0.0135,0.0382,-0.0044,-0.0818,-14.6813,13.7625,-42.7125,,adl
20.424739,-0.1265,0.0838,-0.0135,0.0382,-0.0044,-0.0818,-14.7563,13.9125,-42.825,,adl
20.444495,-0.1265,0.0838,-0.0135,0.0627,0.0282,-0.0682,-14.7563,13.9125,-42.825,,adl
20.463523,-0.1265,0.0838,-0.0135,0.0627,0.0282,-0.0682,-14.7563,13.9125,-42.825,,adl
20.466266,0.0296,-0.0115,-0.1264,0.0627,0.0282,-0.0682,-14.7563,13.9125,-42.825,,adl
20.48722,0.0296,-0.0115,-0.1264,0.0627,0.0282,-0.0682,-14.6063,13.875,-42.9375,,adl
20.506486,0.0296,-0.0115,-0.1264,0.0422,0.0172,-0.0586,-14.6063,13.875,-42.9375,,adl
20.525779,0.0296,-0.0115,-0.1264,0.0422,0.0172,-0.0586,-14.6063,13.875,-42.9375,,adl
20.547657,0.0296,-0.0115,-0.1264,0.0422,0.0172,-0.0586,-14.5313,13.5188,-43.0312,,adl
20.551656,-0.0282,0.0191,-0.0342,0.0422,0.0172,-0.0586,-14.5313,13.5188,-43.0312,,adl
20.564589,-0.0282,0.0191,-0.0342,-0.0083,-0.041,-0.0394,-14.5313,13.5188,-43.0312,,adl
20.589964,-0.0282,0.0191,-0.0342,-0.0083,-0.041,-0.0394,-14.5313,13.5188,-43.0312,,adl
20.607242,-0.0282,0.0191,-0.0342,-0.0083,-0.041,-0.0394,-14.5875,13.0875,-43.1625,,adl
20.610369,0.0068,0.0651,0.0274,-0.0083,-0.041,-0.0394,-14.5875,13.0875,-43.1625,,adl
20.6275,0.0068,0.0651,0.0274,0.0013,0.0031,-0.0394,-14.5875,13.0875,-43.1625,,adl
20.646496,0.0068,0.0651,0.0274,0.0013,0.0031,-0.0394,-14.5875,13.0875,-43.1625,,adl
20.66684,0.0068,0.0651,0.0274,0.0013,0.0031,-0.0394,-14.5125,13.0125,-43.3125,,adl
20.669782,-0.0483,-0.0001,-0.0255,0.0013,0.0031,-0.0394,-14.5125,13.0125,-43.3125,,adl
20.690018,-0.0483,-0.0001,-0.0255,0.0063,-0.021,-0.0206,-14.5125,13.0125,-43.3125,,adl
20.708459,-0.0483,-0.0001,-0.0255,0.0063,-0.021,-0.0206,-14.5125,13.0125,-43.3125,,adl
20.726864,-0.0483,-0.0001,-0.0255,0.0063,-0.021,-0.0206,-14.5688,13.0688,-43.425,,adl
20.749769,-0.0483,-0.0001,-0.0255,0.0145,-0.0087,-0.0093,-14.5688,13.0688,-43.425,,adl
20.752537,0.0662,0.006,-0.0404,0.0145,-0.0087,-0.0093,-14.5688,13.0688,-43.425,,adl
20.769224,0.0662,0.006,-0.0404,0.0145,-0.0087,-0.0093,-14.5688,13.0688,-43.425,,adl
20.789438,0.0662,0.006,-0.0404,0.0145,-0.0087,-0.0093,-14.6063,12.975,-43.5563,,adl
20.809226,0.0662,0.006,-0.0404,0.0241,0.0101,-0.0128,-14.6063,12.975,-43.5563,,adl
20.812446,0.059,-0.0609,-0.0403,0.0241,0.0101,-0.0128,-14.6063,12.975,-43.5563,,adl
20.829432,0.059,-0.0609,-0.0403,0.0241,0.0101,-0.0128,-14.6063,12.975,-43.5563,,adl
20.845532,0.059,-0.0609,-0.0403,0.0241,0.0101,-0.0128,-14.8125,12.9,-43.7063,,adl
20.871049,0.059,-0.0609,-0.0403,0.013,-0.0097,-0.0075,-14.8125,12.9,-43.7063,,adl
20.874211,-0.0203,0.0169,-0.0228,0.013,-0.0097,-0.0075,-14.8125,12.9,-43.7063,,adl
20.891487,-0.0203,0.0169,-0.0228,0.013,-0.0097,-0.0075,-14.8125,12.9,-43.7063,,adl
20.907485,-0.0203,0.0169,-0.0228,0.013,-0.0097,-0.0075,-14.8313,12.6375,-43.5938,,adl
20.932697,-0.0203,0.0169,-0.0228,0.0031,-0.0095,-0.0057,-14.8313,12.6375,-43.5938,,adl
20.936082,-0.0141,0.0303,0.0036,0.0031,-0.0095,-0.0057,-14.8313,12.6375,-43.5938,,adl
20.951882,-0.0141,0.0303,0.0036,0.0031,-0.0095,-0.0057,-14.8313,12.6375,-43.5938,,adl
20.966919,-0.0141,0.0303,0.0036,0.0031,-0.0095,-0.0057,-14.7563,12.7125,-43.5938,,adl
20.992943,-0.0141,0.0303,0.0036,0.0145,-0.0041,-0.004,-14.7563,12.7125,-43.5938,,adl
21.014163,-0.0141,0.0303,0.0036,0.0145,-0.0041,-0.004,-14.7563,12.7125,-43.5938,,adl
21.017436,-0.0019,-0.0139,-0.0075,0.0145,-0.0041,-0.004,-14.7563,12.7125,-43.5938,,adl
21.02808,-0.0019,-0.0139,-0.0075,0.0145,-0.0041,-0.004,-14.7938,12.6938,-43.7812,,adl
21.053244,-0.0019,-0.0139,-0.0075,0.034,0.0172,0.0017,-14.7938,12.6938,-43.7812,,adl
21.073245,-0.0019,-0.0139,-0.0075,0.034,0.0172,0.0017,-14.7938,12.6938,-43.7812,,adl
21.075252,0.0317,-0.0143,-0.042,0.034,0.0172,0.0017,-14.7938,12.6938,-43.7812,,adl
21.085019,0.0317,-0.0143,-0.042,0.034,0.0172,0.0017,-14.6813,12.7688,-43.6875,,adl
21.115133,0.0317,-0.0143,-0.042,0.0329,0.0201,-0.0051,-14.6813,12.7688,-43.6875,,adl
21.135307,0.0317,-0.0143,-0.042,0.0329,0.0201,-0.0051,-14.6813,12.7688,-43.6875,,adl
21.137858,-0.0005,0.0022,-0.032,0.0329,0.0201,-0.0051,-14.6813,12.7688,-43.6875,,adl
21.146235,-0.0005,0.0022,-0.032,0.0329,0.0201,-0.0051,-14.775,12.7688,-43.6125,,adl
21.175244,-0.0005,0.0022,-0.032,0.0039,0.0031,-0.0085,-14.775,12.7688,-43.6125,,adl
21.195994,-0.0005,0.0022,-0.032,0.0039,0.0031,-0.0085,-14.775,12.7688,-43.6125,,adl
21.207559,-0.0005,0.0022,-0.032,0.0039,0.0031,-0.0085,-14.8875,12.5813,-43.7063,,adl
21.213187,-0.0217,0.0294,0.0298,0.0039,0.0031,-0.0085,-14.8875,12.5813,-43.7063,,adl
21.236422,-0.0217,0.0294,0.0298,-0.0072,-0.0023,-0.0125,-14.8875,12.5813,-43.7063,,adl
21.255683,-0.0217,0.0294,0.0298,-0.0072,-0.0023,-0.0125,-14.8875,12.5813,-43.7063,,adl
21.264475,-0.0217,0.0294,0.0298,-0.0072,-0.0023,-0.0125,-14.9063,12.5813,-43.5938,,adl
21.274957,-0.004,0.0035,0.0071,-0.0072,-0.0023,-0.0125,-14.9063,12.5813,-43.5938,,adl
21.295732,-0.004,0.0035,0.0071,-0.0072,-0.0095,-0.0089,-14.9063,12.5813,-43.5938,,adl
21.317533,-0.004,0.0035,0.0071,-0.0072,-0.0095,-0.0089,-14.9063,12.5813,-43.5938,,adl
21.326977,-0.004,0.0035,0.0071,-0.0072,-0.0095,-0.0089,-14.8313,12.4313,-43.5938,,adl
21.337514,-0.0022,0.0036,-0.004,-0.0072,-0.0095,-0.0089,-14.8313,12.4313,-43.5938,,adl
21.357108,-0.0022,0.0036,-0.004,0.0003,-0.0001,-0.0053,-14.8313,12.4313,-43.5938,,adl
21.376855,-0.0022,0.0036,-0.004,0.0003,-0.0001,-0.0053,-14.8313,12.4313,-43.5938,,adl
21.385436,-0.0022,0.0036,-0.004,0.0003,-0.0001,-0.0053,-14.8125,12.4875,-43.7812,,adl
21.39897,0.0314,-0.0108,-0.0228,0.0003,-0.0001,-0.0053,-14.8125,12.4875,-43.7812,,adl
21.419143,0.0314,-0.0108,-0.0228,-0.0029,-0.0052,-0.0053,-14.8125,12.4875,-43.7812,,adl
21.438384,0.0314,-0.0108,-0.0228,-0.0029,-0.0052,-0.0053,-14.8125,12.4875,-43.7812,,adl
21.445573,0.0314,-0.0108,-0.0228,-0.0029,-0.0052,-0.0053,-14.9438,12.2438,-43.7625,,adl
21.479148,-0.0112,-0.0003,0.0049,-0.0029,-0.0052,-0.0053,-14.9438,12.2438,-43.7625,,adl
21.483143,-0.0112,-0.0003,0.0049,-0.0023,0.002,-0.0051,-14.9438,12.2438,-43.7625,,adl
21.499035,-0.0112,-0.0003,0.0049,-0.0023,0.002,-0.0051,-14.9438,12.2438,-43.7625,,adl
21.504904,-0.0112,-0.0003,0.0049,-0.0023,0.002,-0.0051,-14.85,12.2438,-43.6125,,adl
21.539889,-0.0112,-0.0003,0.0049,0.0017,-0.0044,-0.0029,-14.85,12.2438,-43.6125,,adl
21.54291,0.0047,-0.0043,-0.0088,0.0017,-0.0044,-0.0029,-14.85,12.2438,-43.6125,,adl
21.563725,0.0047,-0.0043,-0.0088,0.0017,-0.0044,-0.0029,-14.85,12.2438,-43.6125,,adl
21.566398,0.0047,-0.0043,-0.0088,0.0017,-0.0044,-0.0029,-14.925,12.225,-43.575,,adl
21.600524,0.0047,-0.0043,-0.0088,-0.0023,0.0012,0.0007,-14.925,12.225,-43.575,,adl
21.603572,0.0084,-0.0074,-0.0076,-0.0023,0.0012,0.0007,-14.925,12.225,-43.575,,adl
21.620696,0.0084,-0.0074,-0.0076,-0.0023,0.0012,0.0007,-14.925,12.225,-43.575,,adl
21.626908,0.0084,-0.0074,-0.0076,-0.0023,0.0012,0.0007,-14.7938,12.225,-43.5,,adl
21.66201,0.0084,-0.0074,-0.0076,-0.0033,-0.0041,0.0017,-14.7938,12.225,-43.5,,adl
21.68156,0.0084,-0.0074,-0.0076,-0.0033,-0.0041,0.0017,-14.7938,12.225,-43.5,,adl
21.682908,-0.0156,0.0171,0.0257,-0.0033,-0.0041,0.0017,-14.7938,12.225,-43.5,,adl
21.683946,-0.0156,0.0171,0.0257,-0.0033,-0.0041,0.0017,-14.6625,12.2813,-43.2938,,adl
21.722817,-0.0156,0.0171,0.0257,-0.0047,-0.0001,0.0039,-14.6625,12.2813,-43.2938,,adl
21.742792,-0.0156,0.0171,0.0257,-0.0047,-0.0001,0.0039,-14.6625,12.2813,-43.2938,,adl
21.744936,0.0179,-0.0026,-0.0039,-0.0047,-0.0001,0.0039,-14.6625,12.2813,-43.2938,,adl
21.746722,0.0179,-0.0026,-0.0039,-0.0047,-0.0001,0.0039,-14.775,12.2438,-43.425,,adl
21.785754,0.0179,-0.0026,-0.0039,-0.0012,0.0016,0.0049,-14.775,12.2438,-43.425,,adl
21.806693,0.0179,-0.0026,-0.0039,-0.0012,0.0016,0.0049,-14.775,12.2438,-43.425,,adl
21.810083,-0.0035,-0.0024,0.0084,-0.0012,0.0016,0.0049,-14.775,12.2438,-43.425,,adl
21.81182,-0.0035,-0.0024,0.0084,-0.0012,0.0016,0.0049,-14.8313,12.3188,-43.4062,,adl
21.845937,-0.0035,-0.0024,0.0084,-0.0061,-0.0069,0.006,-14.8313,12.3188,-43.4062,,adl
21.865889,-0.0035,-0.0024,0.0084,-0.0061,-0.0069,0.006,-14.8313,12.3188,-43.4062,,adl
21.867939,-0.0035,-0.0024,0.0084,-0.0061,-0.0069,0.006,-14.925,12.3375,-43.35,,adl
21.869808,0.0081,0.0067,0.0054,-0.0061,-0.0069,0.006,-14.925,12.3375,-43.35,,adl
21.908128,0.0081,0.0067,0.0054,0.0017,-0.0009,0.0045,-14.925,12.3375,-43.35,,adl
21.927837,0.0081,0.0067,0.0054,0.0017,-0.0009,0.0045,-14.925,12.375,-43.425,,adl
21.931108,0.0081,0.0067,0.0054,0.0017,-0.0009,0.0045,-14.925,12.375,-43.425,,adl
21.946767,0.0053,-0.0167,-0.0058,0.0017,-0.0009,0.0045,-14.925,12.375,-43.425,,adl
21.967751,0.0053,-0.0167,-0.0058,-0.0029,0.0009,0.0032,-14.925,12.375,-43.425,,adl
21.986542,0.0053,-0.0167,-0.0058,-0.0029,0.0009,0.0032,-14.9813,12.3938,-43.2938,,adl
21.989602,0.0053,-0.0167,-0.0058,-0.0029,0.0009,0.0032,-14.9813,12.3938,-43.2938,,adl
22.009207,0.0072,0.0086,0.0027,-0.0029,0.0009,0.0032,-14.9813,12.3938,-43.2938,,adl
22.030986,0.0072,0.0086,0.0027,-0.0129,-0.0027,0.006,-14.9813,12.3938,-43.2938,,adl
22.048488,0.0072,0.0086,0.0027,-0.0129,-0.0027,0.006,-14.9813,12.3938,-43.2938,,adl
22.050963,0.0072,0.0086,0.0027,-0.0129,-0.0027,0.006,-15.2063,12.3,-43.4813,,adl
22.069574,-0.0008,0.0111,0.0198,-0.0129,-0.0027,0.006,-15.2063,12.3,-43.4813,,adl
22.088553,-0.0008,0.0111,0.0198,-0.01,0.0076,0.0073,-15.2063,12.3,-43.4813,,adl
22.10683,-0.0008,0.0111,0.0198,-0.01,0.0076,0.0073,-15.2813,12.2438,-43.5,,adl
22.108921,-0.0008,0.0111,0.0198,-0.01,0.0076,0.0073,-15.2813,12.2438,-43.5,,adl
22.148564,-0.0008,0.0111,0.0198,-0.0125,-0.0048,0.0099,-15.2813,12.2438,-43.5,,adl
22.150777,0.0305,-0.0121,-0.0076,-0.0125,-0.0048,0.0099,-15.2813,12.2438,-43.5,,adl
22.164814,0.0305,-0.0121,-0.0076,-0.0125,-0.0048,0.0099,-15.3,12.225,-43.5375,,adl
22.167373,0.0305,-0.0121,-0.0076,-0.0125,-0.0048,0.0099,-15.3,12.225,-43.5375,,adl
22.210191,0.0305,-0.0121,-0.0076,-0.0097,0.0009,0.012,-15.3,12.225,-43.5375,,adl
22.213826,-0.0166,0.0056,0.0151,-0.0097,0.0009,0.012,-15.3,12.225,-43.5375,,adl
22.22499,-0.0166,0.0056,0.0151,-0.0097,0.0009,0.012,-15.3938,12.2438,-43.8563,,adl
22.228178,-0.0166,0.0056,0.0151,-0.0097,0.0009,0.012,-15.3938,12.2438,-43.8563,,adl
22.271603,-0.0166,0.0056,0.0151,-0.0025,0.0052,0.0127,-15.3938,12.2438,-43.8563,,adl
22.273448,0.0077,-0.0039,0.0033,-0.0025,0.0052,0.0127,-15.3938,12.2438,-43.8563,,adl
22.286437,0.0077,-0.0039,0.0033,-0.0025,0.0052,0.0127,-15.4688,12.2063,-43.7438,,adl
22.290506,0.0077,-0.0039,0.0033,-0.0025,0.0052,0.0127,-15.4688,12.2063,-43.7438,,adl
22.332365,0.0077,-0.0039,0.0033,-0.0072,0.0016,0.0109,-15.4688,12.2063,-43.7438,,adl
22.335214,0.0137,-0.0145,-0.0075,-0.0072,0.0016,0.0109,-15.4688,12.2063,-43.7438,,adl
22.345163,0.0137,-0.0145,-0.0075,-0.0072,0.0016,0.0109,-15.2813,12.2438,-43.6125,,adl
22.351284,0.0137,-0.0145,-0.0075,-0.0072,0.0016,0.0109,-15.2813,12.2438,-43.6125,,adl
22.396868,0.0137,-0.0145,-0.0075,-0.0104,-0.0041,0.0088,-15.2813,12.2438,-43.6125,,adl
22.407282,0.0137,-0.0145,-0.0075,-0.0104,-0.0041,0.0088,-15.3188,12.2625,-43.6875,,adl
22.412422,0.0137,-0.0145,-0.0075,-0.0104,-0.0041,0.0088,-15.3188,12.2625,-43.6875,,adl
22.413745,-0.0069,0.0074,0.0109,-0.0104,-0.0041,0.0088,-15.3188,12.2625,-43.6875,,adl
22.456907,-0.0069,0.0074,0.0109,-0.0196,-0.0137,0.006,-15.3188,12.2625,-43.6875,,adl
22.465999,-0.0069,0.0074,0.0109,-0.0196,-0.0137,0.006,-15.4313,12.2813,-43.8,,adl
22.472963,-0.0069,0.0074,0.0109,-0.0196,-0.0137,0.006,-15.4313,12.2813,-43.8,,adl
22.47423,-0.0125,0.0065,0.0149,-0.0196,-0.0137,0.006,-15.4313,12.2813,-43.8,,adl
22.515514,-0.0125,0.0065,0.0149,-0.0142,-0.0108,0.0049,-15.4313,12.2813,-43.8,,adl
22.526268,-0.0125,0.0065,0.0149,-0.0142,-0.0108,0.0049,-15.1875,12.2813,-43.5938,,adl
22.533627,-0.0125,0.0065,0.0149,-0.0142,-0.0108,0.0049,-15.1875,12.2813,-43.5938,,adl
22.535,0.005,-0.0004,-0.0008,-0.0142,-0.0108,0.0049,-15.1875,12.2813,-43.5938,,adl
22.576912,0.005,-0.0004,-0.0008,-0.0104,-0.0133,0.0045,-15.1875,12.2813,-43.5938,,adl
22.584423,0.005,-0.0004,-0.0008,-0.0104,-0.0133,0.0045,-15.15,12.3563,-43.5563,,adl
22.595036,0.005,-0.0004,-0.0008,-0.0104,-0.0133,0.0045,-15.15,12.3563,-43.5563,,adl
22.61777,0.0018,0.0104,0.0026,-0.0104,-0.0133,0.0045,-15.15,12.3563,-43.5563,,adl
22.636242,0.0018,0.0104,0.0026,-0.0012,-0.0059,-0.0,-15.15,12.3563,-43.5563,,adl
22.647828,0.0018,0.0104,0.0026,-0.0012,-0.0059,-0.0,-15.1688,12.375,-43.5375,,adl
22.657943,0.0018,0.0104,0.0026,-0.0012,-0.0059,-0.0,-15.1688,12.375,-43.5375,,adl
22.676604,-0.005,-0.017,-0.0064,-0.0012,-0.0059,-0.0,-15.1688,12.375,-43.5375,,adl
22.69827,-0.005,-0.017,-0.0064,-0.0019,-0.0087,0.0003,-15.1688,12.375,-43.5375,,adl
