time,ax,ay,az,wx,wy,wz,Bx,By,Bz,Unnamed: 10,label
0.122693,0.0,0.0,0.0,0.0,0.0,0.0,11.3438,29.3625,-33.6375,,adl
0.155709,0.0,0.0,0.0,0.0017,0.0059,-0.002,11.3438,29.3625,-33.6375,,adl
0.181955,0.0,0.0,0.0,0.0017,0.0059,-0.002,8.4563,25.5,-38.3625,,adl
0.213346,0.0,0.0,0.0,0.0003,0.002,-0.002,8.4563,25.5,-38.3625,,adl
0.23453,0.0,0.0,0.0,0.0003,0.002,-0.002,8.4563,25.5,-38.3625,,adl
0.242263,0.0,0.0,0.0,0.0003,0.002,-0.002,7.125,23.8125,-39.8625,,adl
0.253422,0.0,0.0,0.0,0.0003,0.002,-0.002,7.125,23.8125,-39.8625,,adl
0.273236,0.0,0.0,0.0,-0.0,0.0013,0.0001,7.125,23.8125,-39.8625,,adl
0.293694,0.0,0.0,0.0,-0.0,0.0013,0.0001,7.125,23.8125,-39.8625,,adl
0.300632,0.0,0.0,0.0,-0.0,0.0013,0.0001,6.5625,23.325,-40.875,,adl
0.314396,0.02,-0.0218,-0.0087,-0.0,0.0013,0.0001,6.5625,23.325,-40.875,,adl
0.33442,0.02,-0.0218,-0.0087,0.0138,-0.0016,0.0125,6.5625,23.325,-40.875,,adl
0.35439,0.02,-0.0218,-0.0087,0.0138,-0.0016,0.0125,6.5625,23.325,-40.875,,adl
0.362737,0.02,-0.0218,-0.0087,0.0138,-0.0016,0.0125,6.3938,23.1,-41.625,,adl
0.395964,0.02,-0.0218,-0.0087,0.0166,0.0048,0.0157,6.3938,23.1,-41.625,,adl
0.397455,0.0078,-0.0043,0.0023,0.0166,0.0048,0.0157,6.3938,23.1,-41.625,,adl
0.417236,0.0078,-0.0043,0.0023,0.0166,0.0048,0.0157,6.3938,23.1,-41.625,,adl
0.423195,0.0078,-0.0043,0.0023,0.0166,0.0048,0.0157,6.3,22.95,-41.9625,,adl
0.45742,-0.031,0.0137,0.0186,0.0166,0.0048,0.0157,6.3,22.95,-41.9625,,adl
0.45869,-0.031,0.0137,0.0186,0.0075,-0.0023,0.0087,6.3,22.95,-41.9625,,adl
0.476385,-0.031,0.0137,0.0186,0.0075,-0.0023,0.0087,6.3,22.95,-41.9625,,adl
0.480721,-0.031,0.0137,0.0186,0.0075,-0.0023,0.0087,6.1875,22.7438,-42.1125,,adl
0.518349,-0.031,0.0137,0.0186,-0.0107,-0.0133,0.0015,6.1875,22.7438,-42.1125,,adl
0.52011,-0.019,0.0138,0.0173,-0.0107,-0.0133,0.0015,6.1875,22.7438,-42.1125,,adl
0.537381,-0.019,0.0138,0.0173,-0.0107,-0.0133,0.0015,6.1875,22.7438,-42.1125,,adl
0.542003,-0.019,0.0138,0.0173,-0.0107,-0.0133,0.0015,6.0,22.575,-42.4875,,adl
0.578777,-0.019,0.0138,0.0173,-0.0083,-0.0097,-0.0028,6.0,22.575,-42.4875,,adl
0.580815,-0.0017,0.005,-0.0024,-0.0083,-0.0097,-0.0028,6.0,22.575,-42.4875,,adl
0.59876,-0.0017,0.005,-0.0024,-0.0083,-0.0097,-0.0028,6.0,22.575,-42.4875,,adl
0.60056,-0.0017,0.005,-0.0024,-0.0083,-0.0097,-0.0028,5.3063,21.6188,-44.0625,,adl
0.639069,-0.0017,0.005,-0.0024,-0.026,-0.037,0.01,5.3063,21.6188,-44.0625,,adl
0.659399,0.0326,-0.0124,0.0507,-0.026,-0.037,0.01,5.3063,21.6188,-44.0625,,adl
0.660403,0.0326,-0.0124,0.0507,-0.026,-0.037,0.01,5.3063,21.6188,-44.0625,,adl
0.660706,0.0326,-0.0124,0.0507,-0.026,-0.037,0.01,5.1938,21.675,-44.25,,adl
0.699586,0.0326,-0.0124,0.0507,-0.0411,-0.0232,0.0168,5.1938,21.675,-44.25,,adl
0.720004,0.0326,-0.0124,0.0507,-0.0411,-0.0232,0.0168,5.1938,21.675,-44.25,,adl
0.722198,-0.0086,-0.0059,-0.0427,-0.0411,-0.0232,0.0168,5.1938,21.675,-44.25,,adl
0.724193,-0.0086,-0.0059,-0.0427,-0.0411,-0.0232,0.0168,5.25,21.75,-44.325,,adl
0.762402,-0.0086,-0.0059,-0.0427,0.0045,0.0229,0.0083,5.25,21.75,-44.325,,adl
0.782374,-0.0086,-0.0059,-0.0427,0.0045,0.0229,0.0083,5.25,21.5813,-44.175,,adl
0.783419,-0.0086,-0.0059,-0.0427,0.0045,0.0229,0.0083,5.25,21.5813,-44.175,,adl
0.783888,0.0247,-0.0232,-0.0673,0.0045,0.0229,0.0083,5.25,21.5813,-44.175,,adl
0.822619,0.0247,-0.0232,-0.0673,0.0312,0.031,0.0025,5.25,21.5813,-44.175,,adl
0.844573,0.0247,-0.0232,-0.0673,0.0312,0.031,0.0025,5.25,21.5813,-44.175,,adl
0.845312,0.0247,-0.0232,-0.0673,0.0312,0.031,0.0025,5.25,21.375,-44.025,,adl
0.863553,-0.0517,0.0324,0.0603,0.0312,0.031,0.0025,5.25,21.375,-44.025,,adl
0.8839,-0.0517,0.0324,0.0603,-0.0121,0.0067,-0.0045,5.25,21.375,-44.025,,adl
0.901333,-0.0517,0.0324,0.0603,-0.0121,0.0067,-0.0045,5.1375,21.225,-43.95,,adl
0.903146,-0.0517,0.0324,0.0603,-0.0121,0.0067,-0.0045,5.1375,21.225,-43.95,,adl
0.925861,-0.0087,0.0043,0.0321,-0.0121,0.0067,-0.0045,5.1375,21.225,-43.95,,adl
0.945068,-0.0087,0.0043,0.0321,-0.038,-0.0027,-0.0031,5.1375,21.225,-43.95,,adl
0.962518,-0.0087,0.0043,0.0321,-0.038,-0.0027,-0.0031,5.1375,21.1313,-43.9125,,adl
0.963827,-0.0087,0.0043,0.0321,-0.038,-0.0027,-0.0031,5.1375,21.1313,-43.9125,,adl
0.986142,0.0194,-0.0073,-0.0117,-0.038,-0.0027,-0.0031,5.1375,21.1313,-43.9125,,adl
1.004453,0.0194,-0.0073,-0.0117,-0.0302,-0.004,0.0025,5.1375,21.1313,-43.9125,,adl
1.022712,0.0194,-0.0073,-0.0117,-0.0302,-0.004,0.0025,5.3625,21.1688,-43.6688,,adl
1.027485,0.0194,-0.0073,-0.0117,-0.0302,-0.004,0.0025,5.3625,21.1688,-43.6688,,adl
1.046286,0.0162,-0.0133,-0.0332,-0.0302,-0.004,0.0025,5.3625,21.1688,-43.6688,,adl
1.065509,0.0162,-0.0133,-0.0332,-0.0047,0.0112,0.004,5.3625,21.1688,-43.6688,,adl
1.083054,0.0162,-0.0133,-0.0332,-0.0047,0.0112,0.004,5.2875,21.3188,-43.1813,,adl
1.086194,0.0162,-0.0133,-0.0332,-0.0047,0.0112,0.004,5.2875,21.3188,-43.1813,,adl
1.126646,0.0162,-0.0133,-0.0332,-0.0085,0.0031,0.0068,5.2875,21.3188,-43.1813,,adl
1.127966,-0.0051,0.0133,0.0132,-0.0085,0.0031,0.0068,5.2875,21.3188,-43.1813,,adl
1.143103,-0.0051,0.0133,0.0132,-0.0085,0.0031,0.0068,5.3813,21.3563,-42.975,,adl
1.146757,-0.0051,0.0133,0.0132,-0.0085,0.0031,0.0068,5.3813,21.3563,-42.975,,adl
1.187581,-0.0051,0.0133,0.0132,-0.0107,0.0016,0.0061,5.3813,21.3563,-42.975,,adl
1.188712,-0.0194,0.0015,0.0035,-0.0107,0.0016,0.0061,5.3813,21.3563,-42.975,,adl
1.201169,-0.0194,0.0015,0.0035,-0.0107,0.0016,0.0061,5.5125,21.525,-43.0875,,adl
1.209955,-0.0194,0.0015,0.0035,-0.0107,0.0016,0.0061,5.5125,21.525,-43.0875,,adl
1.254441,-0.0194,0.0015,0.0035,-0.0068,0.0041,0.0036,5.5125,21.525,-43.0875,,adl
1.255833,-0.0021,-0.0063,-0.0095,-0.0068,0.0041,0.0036,5.5125,21.525,-43.0875,,adl
1.262017,-0.0021,-0.0063,-0.0095,-0.0068,0.0041,0.0036,5.5312,21.7313,-43.2938,,adl
1.268354,-0.0021,-0.0063,-0.0095,-0.0068,0.0041,0.0036,5.5312,21.7313,-43.2938,,adl
1.309605,-0.0021,-0.0063,-0.0095,-0.0015,0.0127,0.0015,5.5312,21.7313,-43.2938,,adl
1.321429,-0.0021,-0.0063,-0.0095,-0.0015,0.0127,0.0015,5.6438,21.8625,-43.4062,,adl
1.329482,-0.0104,-0.0087,-0.0082,-0.0015,0.0127,0.0015,5.6438,21.8625,-43.4062,,adl
1.330607,-0.0104,-0.0087,-0.0082,-0.0015,0.0127,0.0015,5.6438,21.8625,-43.4062,,adl
1.370737,-0.0104,-0.0087,-0.0082,0.0077,0.0084,-0.0063,5.6438,21.8625,-43.4062,,adl
1.382173,-0.0104,-0.0087,-0.0082,0.0077,0.0084,-0.0063,5.7938,21.8813,-43.3875,,adl
1.392724,-0.0104,-0.0087,-0.0082,0.0077,0.0084,-0.0063,5.7938,21.8813,-43.3875,,adl
1.393777,0.0037,0.002,-0.02,0.0077,0.0084,-0.0063,5.7938,21.8813,-43.3875,,adl
1.431623,0.0037,0.002,-0.02,0.0141,0.0003,-0.0105,5.7938,21.8813,-43.3875,,adl
1.443015,0.0037,0.002,-0.02,0.0141,0.0003,-0.0105,5.925,21.975,-43.4062,,adl
1.452589,0.0037,0.002,-0.02,0.0141,0.0003,-0.0105,5.925,21.975,-43.4062,,adl
1.45313,-0.0144,-0.0064,-0.0008,0.0141,0.0003,-0.0105,5.925,21.975,-43.4062,,adl
1.493019,-0.0144,-0.0064,-0.0008,0.0075,-0.0008,-0.0162,5.925,21.975,-43.4062,,adl
1.502009,-0.0144,-0.0064,-0.0008,0.0075,-0.0008,-0.0162,5.8125,21.825,-43.3688,,adl
1.514557,-0.0144,-0.0064,-0.0008,0.0075,-0.0008,-0.0162,5.8125,21.825,-43.3688,,adl
1.515934,-0.016,0.0124,0.0051,0.0075,-0.0008,-0.0162,5.8125,21.825,-43.3688,,adl
1.552686,-0.016,0.0124,0.0051,0.0011,0.0041,-0.0205,5.8125,21.825,-43.3688,,adl
1.561297,-0.016,0.0124,0.0051,0.0011,0.0041,-0.0205,5.8125,21.675,-43.5188,,adl
1.573103,-0.016,0.0124,0.0051,0.0011,0.0041,-0.0205,5.8125,21.675,-43.5188,,adl
1.59407,0.0082,-0.0144,-0.0094,0.0011,0.0041,-0.0205,5.8125,21.675,-43.5188,,adl
1.615438,0.0082,-0.0144,-0.0094,0.0096,0.0088,-0.0237,5.8125,21.675,-43.5188,,adl
1.624325,0.0082,-0.0144,-0.0094,0.0096,0.0088,-0.0237,5.8875,21.5625,-43.4625,,adl
1.634578,0.0082,-0.0144,-0.0094,0.0096,0.0088,-0.0237,5.8875,21.5625,-43.4625,,adl
1.656577,-0.018,0.0055,0.0041,0.0096,0.0088,-0.0237,5.8875,21.5625,-43.4625,,adl
1.675362,-0.018,0.0055,0.0041,0.0107,-0.0005,-0.029,5.8875,21.5625,-43.4625,,adl
1.683841,-0.018,0.0055,0.0041,0.0107,-0.0005,-0.029,5.7938,21.45,-43.1625,,adl
1.69565,-0.018,0.0055,0.0041,0.0107,-0.0005,-0.029,5.7938,21.45,-43.1625,,adl
1.716734,0.027,-0.0079,-0.0048,0.0107,-0.0005,-0.029,5.7938,21.45,-43.1625,,adl
1.737011,0.027,-0.0079,-0.0048,0.0081,0.0084,-0.0269,5.7938,21.45,-43.1625,,adl
1.74222,0.027,-0.0079,-0.0048,0.0081,0.0084,-0.0269,5.8313,21.2625,-42.9,,adl
1.756765,0.027,-0.0079,-0.0048,0.0081,0.0084,-0.0269,5.8313,21.2625,-42.9,,adl
1.798207,0.027,-0.0079,-0.0048,0.0103,0.019,-0.0297,5.8313,21.2625,-42.9,,adl
1.799514,-0.0128,0.0027,-0.0105,0.0103,0.019,-0.0297,5.8313,21.2625,-42.9,,adl
1.802068,-0.0128,0.0027,-0.0105,0.0103,0.019,-0.0297,5.8875,21.2063,-42.6938,,adl
1.817751,-0.0128,0.0027,-0.0105,0.0103,0.019,-0.0297,5.8875,21.2063,-42.6938,,adl
1.857403,-0.0128,0.0027,-0.0105,0.0138,0.0144,-0.0305,5.8875,21.2063,-42.6938,,adl
1.858523,0.01,-0.0051,-0.0068,0.0138,0.0144,-0.0305,5.8875,21.2063,-42.6938,,adl
1.861443,0.01,-0.0051,-0.0068,0.0138,0.0144,-0.0305,5.7938,21.225,-42.7125,,adl
1.878174,0.01,-0.0051,-0.0068,0.0138,0.0144,-0.0305,5.7938,21.225,-42.7125,,adl
1.919636,0.01,-0.0051,-0.0068,0.0162,0.0137,-0.0297,5.7938,21.225,-42.7125,,adl
1.920966,0.0064,0.0063,-0.0003,0.0162,0.0137,-0.0297,5.7938,21.225,-42.7125,,adl
1.922723,0.0064,0.0063,-0.0003,0.0162,0.0137,-0.0297,5.7375,21.2812,-42.6188,,adl
1.940528,0.0064,0.0063,-0.0003,0.0162,0.0137,-0.0297,5.7375,21.2812,-42.6188,,adl
1.979897,0.0064,0.0063,-0.0003,0.0192,0.019,-0.0305,5.7375,21.2812,-42.6188,,adl
1.981072,0.0007,-0.015,-0.0154,0.0192,0.019,-0.0305,5.7375,21.2812,-42.6188,,adl
1.981868,0.0007,-0.015,-0.0154,0.0192,0.019,-0.0305,5.8313,21.2438,-42.6,,adl
2.000036,0.0007,-0.015,-0.0154,0.0192,0.019,-0.0305,5.8313,21.2438,-42.6,,adl
2.041925,0.0007,-0.015,-0.0154,0.0369,0.0222,-0.0344,5.8313,21.2438,-42.6,,adl
2.044493,0.0007,-0.015,-0.0154,0.0369,0.0222,-0.0344,5.9438,21.2438,-42.5813,,adl
2.062999,0.0007,-0.015,-0.0154,0.0369,0.0222,-0.0344,5.9438,21.2438,-42.5813,,adl
2.064106,0.0244,-0.0078,-0.0174,0.0369,0.0222,-0.0344,5.9438,21.2438,-42.5813,,adl
2.102989,0.0244,-0.0078,-0.0174,0.0369,0.0222,-0.0344,6.0375,21.375,-42.6562,,adl
2.104118,0.0244,-0.0078,-0.0174,0.0514,0.0364,-0.0361,6.0375,21.375,-42.6562,,adl
2.122988,0.0244,-0.0078,-0.0174,0.0514,0.0364,-0.0361,6.0375,21.375,-42.6562,,adl
2.123594,-0.0129,-0.0042,-0.0138,0.0514,0.0364,-0.0361,6.0375,21.375,-42.6562,,adl
2.164838,-0.0129,-0.0042,-0.0138,0.0597,0.0523,-0.0446,6.0375,21.375,-42.6562,,adl
2.166075,-0.0129,-0.0042,-0.0138,0.0597,0.0523,-0.0446,6.2438,21.3938,-42.6938,,adl
2.18295,0.0189,-0.0202,-0.0377,0.0597,0.0523,-0.0446,6.2438,21.3938,-42.6938,,adl
2.184013,0.0189,-0.0202,-0.0377,0.0597,0.0523,-0.0446,6.2438,21.3938,-42.6938,,adl
2.223022,0.0189,-0.0202,-0.0377,0.071,0.0826,-0.0574,6.2438,21.3938,-42.6938,,adl
2.224103,0.0189,-0.0202,-0.0377,0.071,0.0826,-0.0574,6.2813,21.3563,-42.675,,adl
2.24418,0.0189,-0.0202,-0.0377,0.071,0.0826,-0.0574,6.2813,21.3563,-42.675,,adl
2.264265,-0.027,0.0286,0.0317,0.071,0.0826,-0.0574,6.2813,21.3563,-42.675,,adl
2.28242,-0.027,0.0286,0.0317,0.071,0.0826,-0.0574,6.2625,21.2063,-42.7125,,adl
2.284793,-0.027,0.0286,0.0317,0.049,0.0794,-0.0578,6.2625,21.2063,-42.7125,,adl
2.3046,-0.027,0.0286,0.0317,0.049,0.0794,-0.0578,6.2625,21.2063,-42.7125,,adl
2.324917,-0.0515,0.0402,0.0938,0.049,0.0794,-0.0578,6.2625,21.2063,-42.7125,,adl
2.344987,-0.0515,0.0402,0.0938,0.049,0.0794,-0.0578,6.3938,21.1125,-42.6938,,adl
2.346537,-0.0515,0.0402,0.0938,0.0043,0.0201,-0.061,6.3938,21.1125,-42.6938,,adl
2.365794,-0.0515,0.0402,0.0938,0.0043,0.0201,-0.061,6.3938,21.1125,-42.6938,,adl
2.386802,-0.0459,0.0012,0.027,0.0043,0.0201,-0.061,6.3938,21.1125,-42.6938,,adl
2.402474,-0.0459,0.0012,0.027,0.0043,0.0201,-0.061,6.4125,20.8125,-42.6375,,adl
2.40754,-0.0459,0.0012,0.027,-0.0096,0.0176,-0.0784,6.4125,20.8125,-42.6375,,adl
2.426802,-0.0459,0.0012,0.027,-0.0096,0.0176,-0.0784,6.4125,20.8125,-42.6375,,adl
2.447235,0.003,-0.0342,0.0192,-0.0096,0.0176,-0.0784,6.4125,20.8125,-42.6375,,adl
2.462406,0.003,-0.0342,0.0192,-0.0096,0.0176,-0.0784,6.45,20.8125,-42.6188,,adl
2.466091,0.003,-0.0342,0.0192,-0.0064,0.0393,-0.083,6.45,20.8125,-42.6188,,adl
2.488685,0.003,-0.0342,0.0192,-0.0064,0.0393,-0.083,6.45,20.8125,-42.6188,,adl
2.522245,0.003,-0.0342,0.0192,-0.0064,0.0393,-0.083,6.45,20.5875,-42.5813,,adl
2.528101,0.003,-0.0342,0.0192,-0.0142,0.0704,-0.0774,6.45,20.5875,-42.5813,,adl
2.529216,0.0236,-0.0111,0.0201,-0.0142,0.0704,-0.0774,6.45,20.5875,-42.5813,,adl
2.548098,0.0236,-0.0111,0.0201,-0.0142,0.0704,-0.0774,6.45,20.5875,-42.5813,,adl
2.582592,0.0236,-0.0111,0.0201,-0.0142,0.0704,-0.0774,6.375,20.2313,-42.5063,,adl
2.588413,-0.0115,0.0115,0.007,-0.0142,0.0704,-0.0774,6.375,20.2313,-42.5063,,adl
2.589154,-0.0115,0.0115,0.007,-0.0153,0.0694,-0.0702,6.375,20.2313,-42.5063,,adl
2.610028,-0.0115,0.0115,0.007,-0.0153,0.0694,-0.0702,6.375,20.2313,-42.5063,,adl
2.641216,-0.0115,0.0115,0.007,-0.0153,0.0694,-0.0702,6.5625,20.1938,-42.525,,adl
2.649892,-0.0115,0.0115,0.007,-0.0075,0.0606,-0.0593,6.5625,20.1938,-42.525,,adl
2.651342,0.0848,-0.0023,-0.0063,-0.0075,0.0606,-0.0593,6.5625,20.1938,-42.525,,adl
2.670942,0.0848,-0.0023,-0.0063,-0.0075,0.0606,-0.0593,6.5625,20.1938,-42.525,,adl
2.705251,0.0848,-0.0023,-0.0063,-0.0075,0.0606,-0.0593,6.6188,20.1188,-42.5813,,adl
2.71088,0.0848,-0.0023,-0.0063,-0.0021,0.0783,-0.0333,6.6188,20.1188,-42.5813,,adl
2.731229,0.0848,-0.0023,-0.0063,-0.0021,0.0783,-0.0333,6.6188,20.1188,-42.5813,,adl
2.732091,0.1048,-0.0485,-0.0272,-0.0021,0.0783,-0.0333,6.6188,20.1188,-42.5813,,adl
2.763098,0.1048,-0.0485,-0.0272,-0.0021,0.0783,-0.0333,6.675,20.2125,-42.5813,,adl
2.771508,0.1048,-0.0485,-0.0272,0.012,0.1226,-0.0035,6.675,20.2125,-42.5813,,adl
2.790888,0.1048,-0.0485,-0.0272,0.012,0.1226,-0.0035,6.675,20.2125,-42.5813,,adl
2.792773,-0.0699,0.0176,0.0785,0.012,0.1226,-0.0035,6.675,20.2125,-42.5813,,adl
2.822834,-0.0699,0.0176,0.0785,0.012,0.1226,-0.0035,6.825,20.1938,-42.5813,,adl
2.83329,-0.0699,0.0176,0.0785,-0.0015,0.0687,0.0108,6.825,20.1938,-42.5813,,adl
2.853193,-0.0699,0.0176,0.0785,-0.0015,0.0687,0.0108,6.825,20.1938,-42.5813,,adl
2.854253,0.0686,0.0053,-0.0157,-0.0015,0.0687,0.0108,6.825,20.1938,-42.5813,,adl
2.883226,0.0686,0.0053,-0.0157,-0.0015,0.0687,0.0108,7.1438,20.3438,-42.6562,,adl
2.892324,0.0686,0.0053,-0.0157,-0.0004,0.275,0.036,7.1438,20.3438,-42.6562,,adl
2.914176,0.0686,0.0053,-0.0157,-0.0004,0.275,0.036,7.1438,20.3438,-42.6562,,adl
2.915058,-0.1375,0.1569,-0.0131,-0.0004,0.275,0.036,7.1438,20.3438,-42.6562,,adl
2.942027,-0.1375,0.1569,-0.0131,-0.0004,0.275,0.036,7.3313,20.3625,-42.6938,,adl
2.954233,-0.1375,0.1569,-0.0131,-0.0213,0.0879,0.0313,7.3313,20.3625,-42.6938,,adl
2.97553,-0.1375,0.1569,-0.0131,-0.0213,0.0879,0.0313,7.3313,20.3625,-42.6938,,adl
2.996097,0.2659,-0.0249,-0.091,-0.0213,0.0879,0.0313,7.3313,20.3625,-42.6938,,adl
3.002148,0.2659,-0.0249,-0.091,-0.0213,0.0879,0.0313,7.5188,20.4188,-42.675,,adl
3.015122,0.2659,-0.0249,-0.091,-0.0196,-0.0992,0.0519,7.5188,20.4188,-42.675,,adl
3.035719,0.2659,-0.0249,-0.091,-0.0196,-0.0992,0.0519,7.5188,20.4188,-42.675,,adl
3.05667,-0.052,0.0023,-0.0227,-0.0196,-0.0992,0.0519,7.5188,20.4188,-42.675,,adl
3.060661,-0.052,0.0023,-0.0227,-0.0196,-0.0992,0.0519,7.8563,20.5125,-42.6562,,adl
3.076518,-0.052,0.0023,-0.0227,0.0109,-0.122,0.0601,7.8563,20.5125,-42.6562,,adl
3.096475,-0.052,0.0023,-0.0227,0.0109,-0.122,0.0601,7.8563,20.5125,-42.6562,,adl
3.117784,0.0654,-0.0474,0.0224,0.0109,-0.122,0.0601,7.8563,20.5125,-42.6562,,adl
3.122233,0.0654,-0.0474,0.0224,0.0109,-0.122,0.0601,7.8375,20.4188,-42.5625,,adl
3.137531,0.0654,-0.0474,0.0224,0.0067,-0.069,0.0707,7.8375,20.4188,-42.5625,,adl
3.157702,0.0654,-0.0474,0.0224,0.0067,-0.069,0.0707,7.8375,20.4188,-42.5625,,adl
3.182331,0.0654,-0.0474,0.0224,0.0067,-0.069,0.0707,8.025,20.475,-42.5438,,adl
3.198961,0.0654,-0.0474,0.0224,-0.0146,-0.0743,0.0668,8.025,20.475,-42.5438,,adl
3.201049,-0.0233,0.0041,0.0496,-0.0146,-0.0743,0.0668,8.025,20.475,-42.5438,,adl
3.218432,-0.0233,0.0041,0.0496,-0.0146,-0.0743,0.0668,8.025,20.475,-42.5438,,adl
3.244296,-0.0233,0.0041,0.0496,-0.0146,-0.0743,0.0668,8.0813,20.4938,-42.675,,adl
3.258385,-0.0233,0.0041,0.0496,0.0021,-0.0466,0.0654,8.0813,20.4938,-42.675,,adl
3.260209,-0.012,-0.0466,-0.0155,0.0021,-0.0466,0.0654,8.0813,20.4938,-42.675,,adl
3.279268,-0.012,-0.0466,-0.0155,0.0021,-0.0466,0.0654,8.0813,20.4938,-42.675,,adl
3.303415,-0.012,-0.0466,-0.0155,0.0021,-0.0466,0.0654,8.1188,20.6063,-42.7688,,adl
3.319887,-0.012,-0.0466,-0.0155,0.0007,-0.0176,0.0586,8.1188,20.6063,-42.7688,,adl
3.321297,0.0064,-0.0104,0.0055,0.0007,-0.0176,0.0586,8.1188,20.6063,-42.7688,,adl
3.339607,0.0064,-0.0104,0.0055,0.0007,-0.0176,0.0586,8.1188,20.6063,-42.7688,,adl
3.362569,0.0064,-0.0104,0.0055,0.0007,-0.0176,0.0586,7.9125,20.5875,-42.9188,,adl
3.379365,0.0064,-0.0104,0.0055,-0.0614,0.1156,0.0554,7.9125,20.5875,-42.9188,,adl
3.380148,0.1743,0.0565,0.1616,-0.0614,0.1156,0.0554,7.9125,20.5875,-42.9188,,adl
3.401457,0.1743,0.0565,0.1616,-0.0614,0.1156,0.0554,7.9125,20.5875,-42.9188,,adl
3.421772,0.1743,0.0565,0.1616,-0.0614,0.1156,0.0554,7.8563,20.7938,-43.0688,,adl
3.4425,0.1743,0.0565,0.1616,0.126,0.0084,0.0771,7.8563,20.7938,-43.0688,,adl
3.465065,0.1743,0.0565,0.1616,0.126,0.0084,0.0771,7.8563,20.7938,-43.0688,,adl
3.466465,-0.2021,-0.1775,0.1729,0.126,0.0084,0.0771,7.8563,20.7938,-43.0688,,adl
3.483601,-0.2021,-0.1775,0.1729,0.126,0.0084,0.0771,7.9313,20.775,-43.0875,,adl
3.502814,-0.2021,-0.1775,0.1729,0.1214,0.0037,0.1222,7.9313,20.775,-43.0875,,adl
3.523464,-0.2021,-0.1775,0.1729,0.1214,0.0037,0.1222,7.9313,20.775,-43.0875,,adl
3.524573,0.6589,0.197,-0.3964,0.1214,0.0037,0.1222,7.9313,20.775,-43.0875,,adl
3.542743,0.6589,0.197,-0.3964,0.1214,0.0037,0.1222,7.7625,20.6813,-43.05,,adl
3.563292,0.6589,0.197,-0.3964,-0.0294,0.357,0.1353,7.7625,20.6813,-43.05,,adl
3.584197,0.6589,0.197,-0.3964,-0.0294,0.357,0.1353,7.7625,20.6813,-43.05,,adl
3.585982,-0.3536,0.0123,0.1312,-0.0294,0.357,0.1353,7.7625,20.6813,-43.05,,adl
3.603144,-0.3536,0.0123,0.1312,-0.0294,0.357,0.1353,8.1188,20.6813,-43.1625,,adl
3.624428,-0.3536,0.0123,0.1312,-0.1453,0.2153,0.1453,8.1188,20.6813,-43.1625,,adl
3.644947,-0.3536,0.0123,0.1312,-0.1453,0.2153,0.1453,8.1188,20.6813,-43.1625,,adl
3.662852,-0.3536,0.0123,0.1312,-0.1453,0.2153,0.1453,8.4938,20.625,-43.0312,,adl
3.664275,0.0413,0.0091,0.017,-0.1453,0.2153,0.1453,8.4938,20.625,-43.0312,,adl
3.685772,0.0413,0.0091,0.017,-0.1879,0.3325,0.1747,8.4938,20.625,-43.0312,,adl
3.705939,0.0413,0.0091,0.017,-0.1879,0.3325,0.1747,8.4938,20.625,-43.0312,,adl
3.721698,0.0413,0.0091,0.017,-0.1879,0.3325,0.1747,9.0563,20.5125,-42.8063,,adl
3.727457,-0.256,0.0961,0.1309,-0.1879,0.3325,0.1747,9.0563,20.5125,-42.8063,,adl
3.746069,-0.256,0.0961,0.1309,-0.225,-0.1028,0.2887,9.0563,20.5125,-42.8063,,adl
3.766639,-0.256,0.0961,0.1309,-0.225,-0.1028,0.2887,9.0563,20.5125,-42.8063,,adl
3.782583,-0.256,0.0961,0.1309,-0.225,-0.1028,0.2887,9.4688,20.5312,-42.5438,,adl
3.785785,0.1123,0.0647,0.0999,-0.225,-0.1028,0.2887,9.4688,20.5312,-42.5438,,adl
3.807216,0.1123,0.0647,0.0999,-0.2378,-0.3939,0.3511,9.4688,20.5312,-42.5438,,adl
3.828663,0.1123,0.0647,0.0999,-0.2378,-0.3939,0.3511,9.4688,20.5312,-42.5438,,adl
3.842277,0.1123,0.0647,0.0999,-0.2378,-0.3939,0.3511,9.975,20.7188,-42.375,,adl
3.847236,0.1405,-0.1098,-0.4813,-0.2378,-0.3939,0.3511,9.975,20.7188,-42.375,,adl
3.867752,0.1405,-0.1098,-0.4813,-0.2372,-0.3193,0.4129,9.975,20.7188,-42.375,,adl
3.889244,0.1405,-0.1098,-0.4813,-0.2372,-0.3193,0.4129,9.975,20.7188,-42.375,,adl
3.901492,0.1405,-0.1098,-0.4813,-0.2372,-0.3193,0.4129,10.2188,20.8313,-42.0,,adl
3.929298,0.1405,-0.1098,-0.4813,-0.3015,-0.1915,0.6015,10.2188,20.8313,-42.0,,adl
3.931496,0.0372,0.3189,-0.0021,-0.3015,-0.1915,0.6015,10.2188,20.8313,-42.0,,adl
3.94994,0.0372,0.3189,-0.0021,-0.3015,-0.1915,0.6015,10.2188,20.8313,-42.0,,adl
3.96392,0.0372,0.3189,-0.0021,-0.3015,-0.1915,0.6015,10.575,21.2625,-41.9438,,adl
3.992631,0.0372,0.3189,-0.0021,-0.1645,0.1593,0.8702,10.575,21.2625,-41.9438,,adl
3.994802,0.2858,-0.2869,0.0909,-0.1645,0.1593,0.8702,10.575,21.2625,-41.9438,,adl
4.010316,0.2858,-0.2869,0.0909,-0.1645,0.1593,0.8702,10.575,21.2625,-41.9438,,adl
4.022185,0.2858,-0.2869,0.0909,-0.1645,0.1593,0.8702,10.9688,21.6188,-41.925,,adl
4.051851,0.2858,-0.2869,0.0909,-0.0405,0.3201,1.0292,10.9688,21.6188,-41.925,,adl
4.054286,0.1229,-0.3107,-0.0076,-0.0405,0.3201,1.0292,10.9688,21.6188,-41.925,,adl
4.071027,0.1229,-0.3107,-0.0076,-0.0405,0.3201,1.0292,10.9688,21.6188,-41.925,,adl
4.082733,0.1229,-0.3107,-0.0076,-0.0405,0.3201,1.0292,11.3625,22.0312,-41.7563,,adl
4.111692,0.1229,-0.3107,-0.0076,0.0067,0.3794,0.6028,11.3625,22.0312,-41.7563,,adl
4.132396,0.1229,-0.3107,-0.0076,0.0067,0.3794,0.6028,11.3625,22.0312,-41.7563,,adl
4.133406,-0.4229,0.0223,-0.0648,0.0067,0.3794,0.6028,11.3625,22.0312,-41.7563,,adl
4.14274,-0.4229,0.0223,-0.0648,0.0067,0.3794,0.6028,11.7938,22.2375,-41.5688,,adl
4.172174,-0.4229,0.0223,-0.0648,-0.1005,0.2111,0.1336,11.7938,22.2375,-41.5688,,adl
4.192979,-0.4229,0.0223,-0.0648,-0.1005,0.2111,0.1336,11.7938,22.2375,-41.5688,,adl
4.194977,-0.1183,-0.0067,0.1125,-0.1005,0.2111,0.1336,11.7938,22.2375,-41.5688,,adl
4.20177,-0.1183,-0.0067,0.1125,-0.1005,0.2111,0.1336,12.2438,22.4625,-41.3813,,adl
4.234149,-0.1183,-0.0067,0.1125,-0.0252,0.3879,0.0924,12.2438,22.4625,-41.3813,,adl
4.254922,-0.1183,-0.0067,0.1125,-0.0252,0.3879,0.0924,12.2438,22.4625,-41.3813,,adl
4.256434,-0.1181,0.0211,0.0044,-0.0252,0.3879,0.0924,12.2438,22.4625,-41.3813,,adl
4.260805,-0.1181,0.0211,0.0044,-0.0252,0.3879,0.0924,12.825,22.5563,-41.2125,,adl
4.294319,-0.1181,0.0211,0.0044,-0.081,0.3427,0.0782,12.825,22.5563,-41.2125,,adl
4.315528,-0.1181,0.0211,0.0044,-0.081,0.3427,0.0782,12.825,22.5563,-41.2125,,adl
4.317048,-0.1122,0.0551,-0.0483,-0.081,0.3427,0.0782,12.825,22.5563,-41.2125,,adl
4.322025,-0.1122,0.0551,-0.0483,-0.081,0.3427,0.0782,13.4438,22.5938,-41.025,,adl
4.355507,-0.1122,0.0551,-0.0483,-0.1225,0.3489,0.0675,13.4438,22.5938,-41.025,,adl
4.375524,-0.1122,0.0551,-0.0483,-0.1225,0.3489,0.0675,13.4438,22.5938,-41.025,,adl
4.383696,-0.1122,0.0551,-0.0483,-0.1225,0.3489,0.0675,14.3813,22.5,-40.8375,,adl
4.39609,-0.0663,-0.0015,-0.0315,-0.1225,0.3489,0.0675,14.3813,22.5,-40.8375,,adl
4.415782,-0.0663,-0.0015,-0.0315,-0.1336,0.3233,0.0569,14.3813,22.5,-40.8375,,adl
4.436813,-0.0663,-0.0015,-0.0315,-0.1336,0.3233,0.0569,14.3813,22.5,-40.8375,,adl
4.441998,-0.0663,-0.0015,-0.0315,-0.1336,0.3233,0.0569,15.3188,22.4438,-40.4625,,adl
4.457502,-0.2198,0.1017,0.3423,-0.1336,0.3233,0.0569,15.3188,22.4438,-40.4625,,adl
4.476826,-0.2198,0.1017,0.3423,-0.2397,0.3768,0.0522,15.3188,22.4438,-40.4625,,adl
4.497354,-0.2198,0.1017,0.3423,-0.2397,0.3768,0.0522,15.3188,22.4438,-40.4625,,adl
4.502658,-0.2198,0.1017,0.3423,-0.2397,0.3768,0.0522,16.4813,22.5,-40.0875,,adl
4.517532,-0.1378,-0.022,0.2055,-0.2397,0.3768,0.0522,16.4813,22.5,-40.0875,,adl
4.538571,-0.1378,-0.022,0.2055,-0.3128,0.4499,0.0462,16.4813,22.5,-40.0875,,adl
4.559099,-0.1378,-0.022,0.2055,-0.3128,0.4499,0.0462,16.4813,22.5,-40.0875,,adl
4.562951,-0.1378,-0.022,0.2055,-0.3128,0.4499,0.0462,10.2563,15.075,-43.2,,adl
4.599326,-0.1795,-0.0811,0.2337,-0.3128,0.4499,0.0462,10.2563,15.075,-43.2,,adl
4.601377,-0.1795,-0.0811,0.2337,-0.4366,0.4425,-0.0162,10.2563,15.075,-43.2,,adl
4.619029,-0.1795,-0.0811,0.2337,-0.4366,0.4425,-0.0162,10.2563,15.075,-43.2,,adl
4.622731,-0.1795,-0.0811,0.2337,-0.4366,0.4425,-0.0162,11.3063,15.5625,-42.8438,,adl
4.659767,-0.1795,-0.0811,0.2337,-0.6135,0.7017,-0.1455,11.3063,15.5625,-42.8438,,adl
4.662606,-0.1882,-0.9865,0.5175,-0.6135,0.7017,-0.1455,11.3063,15.5625,-42.8438,,adl
4.680371,-0.1882,-0.9865,0.5175,-0.6135,0.7017,-0.1455,11.3063,15.5625,-42.8438,,adl
4.682286,-0.1882,-0.9865,0.5175,-0.6135,0.7017,-0.1455,12.4313,16.1625,-42.3,,adl
4.719123,-0.1882,-0.9865,0.5175,-0.7931,0.8345,-0.2566,12.4313,16.1625,-42.3,,adl
4.721419,-0.6157,-1.6452,1.6997,-0.7931,0.8345,-0.2566,12.4313,16.1625,-42.3,,adl
4.740396,-0.6157,-1.6452,1.6997,-0.7931,0.8345,-0.2566,12.4313,16.1625,-42.3,,adl
4.741466,-0.6157,-1.6452,1.6997,-0.7931,0.8345,-0.2566,13.6688,17.0438,-41.475,,adl
4.78289,0.9042,-0.9955,0.91,-0.7931,0.8345,-0.2566,13.6688,17.0438,-41.475,,adl
4.784988,0.9042,-0.9955,0.91,-1.1594,1.0233,-0.24,13.6688,17.0438,-41.475,,adl
4.803742,0.9042,-0.9955,0.91,-1.1594,1.0233,-0.24,13.6688,17.0438,-41.475,,adl
4.806239,0.9042,-0.9955,0.91,-1.1594,1.0233,-0.24,14.925,17.9625,-40.5188,,adl
4.84283,0.9042,-0.9955,0.91,-1.4707,0.7649,-0.0944,14.925,17.9625,-40.5188,,adl
4.86319,0.9042,-0.9955,0.91,-1.4707,0.7649,-0.0944,16.425,19.6313,-38.9625,,adl
4.865805,0.6372,-0.9616,2.5556,-1.4707,0.7649,-0.0944,16.425,19.6313,-38.9625,,adl
4.867362,0.6372,-0.9616,2.5556,-1.4707,0.7649,-0.0944,16.425,19.6313,-38.9625,,adl
4.904262,0.6372,-0.9616,2.5556,-0.4321,0.3361,-0.2093,16.425,19.6313,-38.9625,,adl
4.923678,0.6372,-0.9616,2.5556,-0.4321,0.3361,-0.2093,17.7375,21.4875,-37.3125,,adl
4.925087,0.6372,-0.9616,2.5556,-0.4321,0.3361,-0.2093,17.7375,21.4875,-37.3125,,adl
4.925709,-0.7151,0.1265,6.5649,-0.4321,0.3361,-0.2093,17.7375,21.4875,-37.3125,,adl
4.964478,-0.7151,0.1265,6.5649,1.2385,-0.2816,-0.5736,17.7375,21.4875,-37.3125,,adl
4.98378,-1.3255,-0.097,3.097,1.2385,-0.2816,-0.5736,17.7375,21.4875,-37.3125,,adl
4.985752,-1.3255,-0.097,3.097,1.2385,-0.2816,-0.5736,18.7688,23.25,-35.8688,,adl
4.986668,-1.3255,-0.097,3.097,1.2385,-0.2816,-0.5736,18.7688,23.25,-35.8688,,adl
5.025348,-1.3255,-0.097,3.097,2.2546,-0.4687,-0.438,18.7688,23.25,-35.8688,,adl
5.042,-1.3255,-0.097,3.097,2.2546,-0.4687,-0.438,19.2563,24.375,-34.9688,,adl
5.044621,-1.3255,-0.097,3.097,2.2546,-0.4687,-0.438,19.2563,24.375,-34.9688,,adl
5.065651,-3.1423,-0.7173,-0.5419,2.2546,-0.4687,-0.438,19.2563,24.375,-34.9688,,adl
5.084854,-3.1423,-0.7173,-0.5419,2.4477,-1.5326,-0.1051,19.2563,24.375,-34.9688,,adl
5.102684,-3.1423,-0.7173,-0.5419,2.4477,-1.5326,-0.1051,19.1063,24.9,-34.8938,,adl
5.106039,-3.1423,-0.7173,-0.5419,2.4477,-1.5326,-0.1051,19.1063,24.9,-34.8938,,adl
5.127247,-1.7188,-1.3516,-3.1451,2.4477,-1.5326,-0.1051,19.1063,24.9,-34.8938,,adl
5.147818,-1.7188,-1.3516,-3.1451,2.616,-0.304,0.1811,19.1063,24.9,-34.8938,,adl
5.163999,-1.7188,-1.3516,-3.1451,2.616,-0.304,0.1811,18.5063,24.5813,-35.4,,adl
5.166957,-1.7188,-1.3516,-3.1451,2.616,-0.304,0.1811,18.5063,24.5813,-35.4,,adl
5.18634,-0.0394,-1.1779,-4.5615,2.616,-0.304,0.1811,18.5063,24.5813,-35.4,,adl
5.207975,-0.0394,-1.1779,-4.5615,2.5489,1.2047,0.9235,18.5063,24.5813,-35.4,,adl
5.222367,-0.0394,-1.1779,-4.5615,2.5489,1.2047,0.9235,17.85,22.9875,-36.3563,,adl
5.228158,-0.0394,-1.1779,-4.5615,2.5489,1.2047,0.9235,17.85,22.9875,-36.3563,,adl
5.249215,0.9377,-0.8511,-5.169,2.5489,1.2047,0.9235,17.85,22.9875,-36.3563,,adl
5.268952,0.9377,-0.8511,-5.169,1.7245,0.334,0.7824,17.85,22.9875,-36.3563,,adl
5.282648,0.9377,-0.8511,-5.169,1.7245,0.334,0.7824,17.0625,20.1188,-37.7438,,adl
5.289422,0.9377,-0.8511,-5.169,1.7245,0.334,0.7824,17.0625,20.1188,-37.7438,,adl
5.330522,0.9377,-0.8511,-5.169,0.4959,-0.9296,0.32,17.0625,20.1188,-37.7438,,adl
5.332618,1.9183,-0.1367,-6.2792,0.4959,-0.9296,0.32,17.0625,20.1188,-37.7438,,adl
5.343255,1.9183,-0.1367,-6.2792,0.4959,-0.9296,0.32,15.7688,16.3875,-39.6562,,adl
5.350054,1.9183,-0.1367,-6.2792,0.4959,-0.9296,0.32,15.7688,16.3875,-39.6562,,adl
5.391162,1.9183,-0.1367,-6.2792,-0.7547,-1.0988,0.1336,15.7688,16.3875,-39.6562,,adl
5.394453,1.0315,0.2712,-4.6838,-0.7547,-1.0988,0.1336,15.7688,16.3875,-39.6562,,adl
5.404247,1.0315,0.2712,-4.6838,-0.7547,-1.0988,0.1336,14.25,12.4688,-41.7188,,adl
5.409726,1.0315,0.2712,-4.6838,-0.7547,-1.0988,0.1336,14.25,12.4688,-41.7188,,adl
5.453384,1.0315,0.2712,-4.6838,-1.1432,-0.9874,0.3537,14.25,12.4688,-41.7188,,adl
5.456548,0.6737,-2.1117,-0.2491,-1.1432,-0.9874,0.3537,14.25,12.4688,-41.7188,,adl
5.465112,0.6737,-2.1117,-0.2491,-1.1432,-0.9874,0.3537,12.4688,9.0,-43.8563,,adl
5.472773,0.6737,-2.1117,-0.2491,-1.1432,-0.9874,0.3537,12.4688,9.0,-43.8563,,adl
5.514303,0.6737,-2.1117,-0.2491,-1.1864,-0.6743,0.1417,12.4688,9.0,-43.8563,,adl
5.517787,1.217,-0.968,-0.7121,-1.1864,-0.6743,0.1417,12.4688,9.0,-43.8563,,adl
5.524245,1.217,-0.968,-0.7121,-1.1864,-0.6743,0.1417,10.875,6.2063,-45.6,,adl
5.532451,1.217,-0.968,-0.7121,-1.1864,-0.6743,0.1417,10.875,6.2063,-45.6,,adl
5.574241,1.217,-0.968,-0.7121,-0.753,0.1288,0.202,10.875,6.2063,-45.6,,adl
5.580932,1.217,-0.968,-0.7121,-0.753,0.1288,0.202,9.675,4.2938,-46.575,,adl
5.593533,1.217,-0.968,-0.7121,-0.753,0.1288,0.202,9.675,4.2938,-46.575,,adl
5.594693,0.757,-0.4059,0.6956,-0.753,0.1288,0.202,9.675,4.2938,-46.575,,adl
5.63438,0.757,-0.4059,0.6956,-0.5979,0.3027,0.3984,9.675,4.2938,-46.575,,adl
5.642135,0.757,-0.4059,0.6956,-0.5979,0.3027,0.3984,8.7375,3.2625,-47.0438,,adl
5.655564,-0.4272,0.2477,1.2181,-0.5979,0.3027,0.3984,8.7375,3.2625,-47.0438,,adl
5.656876,-0.4272,0.2477,1.2181,-0.5979,0.3027,0.3984,8.7375,3.2625,-47.0438,,adl
5.696011,-0.4272,0.2477,1.2181,-0.6752,-0.0016,0.2752,8.7375,3.2625,-47.0438,,adl
5.706087,-0.4272,0.2477,1.2181,-0.6752,-0.0016,0.2752,7.8375,3.4313,-47.2875,,adl
5.715084,-0.4272,0.2477,1.2181,-0.6752,-0.0016,0.2752,7.8375,3.4313,-47.2875,,adl
5.716894,-0.2182,-0.0606,0.7856,-0.6752,-0.0016,0.2752,7.8375,3.4313,-47.2875,,adl
5.756209,-0.2182,-0.0606,0.7856,-0.6107,0.3116,0.075,7.8375,3.4313,-47.2875,,adl
5.763935,-0.2182,-0.0606,0.7856,-0.6107,0.3116,0.075,6.8438,4.6875,-47.6063,,adl
5.776445,-0.2182,-0.0606,0.7856,-0.6107,0.3116,0.075,6.8438,4.6875,-47.6063,,adl
5.796712,-0.4561,0.0312,1.0576,-0.6107,0.3116,0.075,6.8438,4.6875,-47.6063,,adl
5.816904,-0.4561,0.0312,1.0576,-0.6021,0.1162,-0.0723,6.8438,4.6875,-47.6063,,adl
5.822217,-0.4561,0.0312,1.0576,-0.6021,0.1162,-0.0723,6.3375,6.6,-47.5875,,adl
5.837219,-0.4561,0.0312,1.0576,-0.6021,0.1162,-0.0723,6.3375,6.6,-47.5875,,adl
5.857452,0.0663,-0.1448,0.631,-0.6021,0.1162,-0.0723,6.3375,6.6,-47.5875,,adl
5.876901,0.0663,-0.1448,0.631,-0.541,0.1501,-0.0638,6.3375,6.6,-47.5875,,adl
5.880469,0.0663,-0.1448,0.631,-0.541,0.1501,-0.0638,6.0,8.625,-47.5875,,adl
5.898528,0.0663,-0.1448,0.631,-0.541,0.1501,-0.0638,6.0,8.625,-47.5875,,adl
5.918355,-0.0018,-0.1672,0.4416,-0.541,0.1501,-0.0638,6.0,8.625,-47.5875,,adl
5.938449,-0.0018,-0.1672,0.4416,-0.4871,0.1631,-0.0912,6.0,8.625,-47.5875,,adl
5.941769,-0.0018,-0.1672,0.4416,-0.4871,0.1631,-0.0912,6.075,10.3125,-47.2875,,adl
5.959828,-0.0018,-0.1672,0.4416,-0.4871,0.1631,-0.0912,6.075,10.3125,-47.2875,,adl
5.980706,-0.1353,-0.2562,0.6129,-0.4871,0.1631,-0.0912,6.075,10.3125,-47.2875,,adl
6.001777,-0.1353,-0.2562,0.6129,-0.5751,0.2788,-0.1923,6.075,10.3125,-47.2875,,adl
6.004081,-0.1353,-0.2562,0.6129,-0.5751,0.2788,-0.1923,6.6188,12.0938,-46.8188,,adl
6.019962,-0.1353,-0.2562,0.6129,-0.5751,0.2788,-0.1923,6.6188,12.0938,-46.8188,,adl
6.062192,-0.1353,-0.2562,0.6129,-0.8187,0.2732,-0.3081,6.6188,12.0938,-46.8188,,adl
6.064213,-0.0951,-0.2759,0.8161,-0.8187,0.2732,-0.3081,6.6188,12.0938,-46.8188,,adl
6.065229,-0.0951,-0.2759,0.8161,-0.8187,0.2732,-0.3081,7.1438,13.7625,-46.2188,,adl
6.081359,-0.0951,-0.2759,0.8161,-0.8187,0.2732,-0.3081,7.1438,13.7625,-46.2188,,adl
6.121856,-0.0951,-0.2759,0.8161,-1.1193,0.2562,-0.4539,7.1438,13.7625,-46.2188,,adl
6.124216,-0.0951,-0.2759,0.8161,-1.1193,0.2562,-0.4539,7.6875,15.6563,-45.6,,adl
6.125209,-0.0518,-0.4919,0.8045,-1.1193,0.2562,-0.4539,7.6875,15.6563,-45.6,,adl
6.143003,-0.0518,-0.4919,0.8045,-1.1193,0.2562,-0.4539,7.6875,15.6563,-45.6,,adl
6.184431,-0.0518,-0.4919,0.8045,-1.381,0.5402,-0.5963,7.6875,15.6563,-45.6,,adl
6.186724,-0.1918,-2.8822,1.431,-1.381,0.5402,-0.5963,7.6875,15.6563,-45.6,,adl
6.187571,-0.1918,-2.8822,1.431,-1.381,0.5402,-0.5963,8.2313,17.7938,-44.7563,,adl
6.20431,-0.1918,-2.8822,1.431,-1.381,0.5402,-0.5963,8.2313,17.7938,-44.7563,,adl
6.243611,-0.1918,-2.8822,1.431,-1.381,0.5402,-0.5963,8.6813,20.2875,-43.5563,,adl
6.245955,-0.1918,-2.8822,1.431,-1.7633,0.9317,-1.0163,8.6813,20.2875,-43.5563,,adl
6.263586,-0.2029,-4.0449,4.0203,-1.7633,0.9317,-1.0163,8.6813,20.2875,-43.5563,,adl
6.266377,-0.2029,-4.0449,4.0203,-1.7633,0.9317,-1.0163,8.6813,20.2875,-43.5563,,adl
6.30502,-0.2029,-4.0449,4.0203,-1.7466,0.3033,-0.6408,8.6813,20.2875,-43.5563,,adl
6.307303,-0.2029,-4.0449,4.0203,-1.7466,0.3033,-0.6408,8.925,23.1,-41.6438,,adl
6.325502,-0.2029,-4.0449,4.0203,-1.7466,0.3033,-0.6408,8.925,23.1,-41.6438,,adl
6.327263,-0.9165,-0.2127,4.4597,-1.7466,0.3033,-0.6408,8.925,23.1,-41.6438,,adl
6.362645,-0.9165,-0.2127,4.4597,-1.7466,0.3033,-0.6408,8.8875,26.1,-39.7688,,adl
6.364932,-0.9165,-0.2127,4.4597,-0.5747,-0.7523,-0.6783,8.8875,26.1,-39.7688,,adl
6.385225,-0.9165,-0.2127,4.4597,-0.5747,-0.7523,-0.6783,8.8875,26.1,-39.7688,,adl
6.386978,-3.9921,0.5463,8.3576,-0.5747,-0.7523,-0.6783,8.8875,26.1,-39.7688,,adl
6.423676,-3.9921,0.5463,8.3576,-0.5747,-0.7523,-0.6783,8.2688,28.5563,-38.25,,adl
6.427752,-3.9921,0.5463,8.3576,1.469,-1.2927,-0.5434,8.2688,28.5563,-38.25,,adl
6.447602,-3.9921,0.5463,8.3576,1.469,-1.2927,-0.5434,8.2688,28.5563,-38.25,,adl
6.449743,-3.633,-0.2224,2.8181,1.469,-1.2927,-0.5434,8.2688,28.5563,-38.25,,adl
6.485044,-3.633,-0.2224,2.8181,1.469,-1.2927,-0.5434,7.2563,30.0188,-37.4813,,adl
6.486946,-3.633,-0.2224,2.8181,2.7132,-1.532,-0.4302,7.2563,30.0188,-37.4813,,adl
6.507723,-3.633,-0.2224,2.8181,2.7132,-1.532,-0.4302,7.2563,30.0188,-37.4813,,adl
6.526551,-3.9265,-0.7551,-2.1179,2.7132,-1.532,-0.4302,7.2563,30.0188,-37.4813,,adl
6.542444,-3.9265,-0.7551,-2.1179,2.7132,-1.532,-0.4302,5.2688,30.0,-37.4625,,adl
6.547056,-3.9265,-0.7551,-2.1179,3.0516,-1.6125,0.479,5.2688,30.0,-37.4625,,adl
6.568348,-3.9265,-0.7551,-2.1179,3.0516,-1.6125,0.479,5.2688,30.0,-37.4625,,adl
6.588175,-1.0401,-2.6205,-4.6782,3.0516,-1.6125,0.479,5.2688,30.0,-37.4625,,adl
6.603165,-1.0401,-2.6205,-4.6782,3.0516,-1.6125,0.479,3.0188,28.65,-37.6313,,adl
6.608108,-1.0401,-2.6205,-4.6782,3.2493,0.1756,0.8868,3.0188,28.65,-37.6313,,adl
6.628802,-1.0401,-2.6205,-4.6782,3.2493,0.1756,0.8868,3.0188,28.65,-37.6313,,adl
6.649854,0.8083,-2.1185,-6.2869,3.2493,0.1756,0.8868,3.0188,28.65,-37.6313,,adl
6.662492,0.8083,-2.1185,-6.2869,3.2493,0.1756,0.8868,1.1063,25.8563,-37.35,,adl
6.670181,0.8083,-2.1185,-6.2869,2.8244,0.7674,1.0502,1.1063,25.8563,-37.35,,adl
6.689795,0.8083,-2.1185,-6.2869,2.8244,0.7674,1.0502,1.1063,25.8563,-37.35,,adl
6.722523,0.8083,-2.1185,-6.2869,2.8244,0.7674,1.0502,-0.9,21.9563,-38.325,,adl
6.729155,0.8083,-2.1185,-6.2869,1.6425,-0.2603,1.0061,-0.9,21.9563,-38.325,,adl
6.731093,1.2924,-1.168,-7.0415,1.6425,-0.2603,1.0061,-0.9,21.9563,-38.325,,adl
6.75129,1.2924,-1.168,-7.0415,1.6425,-0.2603,1.0061,-0.9,21.9563,-38.325,,adl
6.782408,1.2924,-1.168,-7.0415,1.6425,-0.2603,1.0061,-3.2438,17.85,-39.0563,,adl
6.790195,1.2924,-1.168,-7.0415,-0.2862,-1.9765,0.5297,-3.2438,17.85,-39.0563,,adl
6.791426,1.9794,0.0876,-8.821,-0.2862,-1.9765,0.5297,-3.2438,17.85,-39.0563,,adl
6.810752,1.9794,0.0876,-8.821,-0.2862,-1.9765,0.5297,-3.2438,17.85,-39.0563,,adl
6.841248,1.9794,0.0876,-8.821,-0.2862,-1.9765,0.5297,-7.9875,-1.6688,-15.3563,,adl
6.85231,1.9794,0.0876,-8.821,-1.4832,-1.4131,0.0927,-7.9875,-1.6688,-15.3563,,adl
6.853751,3.2054,-1.4253,-2.8737,-1.4832,-1.4131,0.0927,-7.9875,-1.6688,-15.3563,,adl
6.871682,3.2054,-1.4253,-2.8737,-1.4832,-1.4131,0.0927,-7.9875,-1.6688,-15.3563,,adl
6.903644,3.2054,-1.4253,-2.8737,-1.4832,-1.4131,0.0927,-8.4563,9.5063,-42.15,,adl
6.913112,3.2054,-1.4253,-2.8737,-1.3863,-1.2539,-0.0425,-8.4563,9.5063,-42.15,,adl
6.915093,2.8623,-4.4918,-2.5225,-1.3863,-1.2539,-0.0425,-8.4563,9.5063,-42.15,,adl
6.933316,2.8623,-4.4918,-2.5225,-1.3863,-1.2539,-0.0425,-8.4563,9.5063,-42.15,,adl
6.963114,2.8623,-4.4918,-2.5225,-1.3863,-1.2539,-0.0425,-10.725,7.4625,-41.7375,,adl
6.974638,2.8623,-4.4918,-2.5225,-1.082,0.8597,0.07,-10.725,7.4625,-41.7375,,adl
6.994874,2.8623,-4.4918,-2.5225,-1.082,0.8597,0.07,-10.725,7.4625,-41.7375,,adl
6.997418,-1.0108,1.2119,1.4898,-1.082,0.8597,0.07,-10.725,7.4625,-41.7375,,adl
7.023798,-1.0108,1.2119,1.4898,-1.082,0.8597,0.07,-12.0,6.5063,-41.8313,,adl
7.034495,-1.0108,1.2119,1.4898,-0.7867,-0.0996,0.2649,-12.0,6.5063,-41.8313,,adl
7.055959,-1.0108,1.2119,1.4898,-0.7867,-0.0996,0.2649,-12.0,6.5063,-41.8313,,adl
7.05856,0.3516,-0.3947,1.3661,-0.7867,-0.0996,0.2649,-12.0,6.5063,-41.8313,,adl
7.082544,0.3516,-0.3947,1.3661,-0.7867,-0.0996,0.2649,-13.2938,6.4875,-41.6625,,adl
7.098485,0.3516,-0.3947,1.3661,-0.7916,-0.3526,0.2337,-13.2938,6.4875,-41.6625,,adl
7.116143,0.3516,-0.3947,1.3661,-0.7916,-0.3526,0.2337,-13.2938,6.4875,-41.6625,,adl
7.118922,-0.3777,-0.0833,0.7648,-0.7916,-0.3526,0.2337,-13.2938,6.4875,-41.6625,,adl
7.14261,-0.3777,-0.0833,0.7648,-0.7916,-0.3526,0.2337,-14.7188,7.8938,-41.3813,,adl
7.157041,-0.3777,-0.0833,0.7648,-0.5354,-0.1397,0.0778,-14.7188,7.8938,-41.3813,,adl
7.176988,-0.3777,-0.0833,0.7648,-0.5354,-0.1397,0.0778,-14.7188,7.8938,-41.3813,,adl
7.197921,0.1832,-0.0483,0.9514,-0.5354,-0.1397,0.0778,-14.7188,7.8938,-41.3813,,adl
7.200736,0.1832,-0.0483,0.9514,-0.5354,-0.1397,0.0778,-16.1438,10.0688,-40.6688,,adl
7.217889,0.1832,-0.0483,0.9514,-0.7511,-0.1141,-0.0326,-16.1438,10.0688,-40.6688,,adl
7.237949,0.1832,-0.0483,0.9514,-0.7511,-0.1141,-0.0326,-16.1438,10.0688,-40.6688,,adl
7.259076,-0.1698,0.1956,1.1825,-0.7511,-0.1141,-0.0326,-16.1438,10.0688,-40.6688,,adl
7.26357,-0.1698,0.1956,1.1825,-0.7511,-0.1141,-0.0326,-17.25,12.5063,-39.9,,adl
7.278213,-0.1698,0.1956,1.1825,-0.8353,-0.375,0.0161,-17.25,12.5063,-39.9,,adl
7.29982,-0.1698,0.1956,1.1825,-0.8353,-0.375,0.0161,-17.25,12.5063,-39.9,,adl
7.319595,0.2294,-0.3585,0.7817,-0.8353,-0.375,0.0161,-17.25,12.5063,-39.9,,adl
7.322837,0.2294,-0.3585,0.7817,-0.8353,-0.375,0.0161,-17.6813,14.8125,-39.0938,,adl
7.339538,0.2294,-0.3585,0.7817,-0.7268,-0.0581,-0.0625,-17.6813,14.8125,-39.0938,,adl
7.359435,0.2294,-0.3585,0.7817,-0.7268,-0.0581,-0.0625,-17.6813,14.8125,-39.0938,,adl
7.380315,-0.1211,-0.209,0.9265,-0.7268,-0.0581,-0.0625,-17.6813,14.8125,-39.0938,,adl
7.382926,-0.1211,-0.209,0.9265,-0.7268,-0.0581,-0.0625,-17.9813,16.6313,-38.55,,adl
7.401166,-0.1211,-0.209,0.9265,-0.7661,-0.0289,-0.1413,-17.9813,16.6313,-38.55,,adl
7.421195,-0.1211,-0.209,0.9265,-0.7661,-0.0289,-0.1413,-17.9813,16.6313,-38.55,,adl
7.442123,-0.1211,-0.209,0.9265,-0.7661,-0.0289,-0.1413,-18.1313,18.4688,-37.725,,adl
7.462134,-0.1211,-0.209,0.9265,-0.8278,0.1301,-0.2178,-18.1313,18.4688,-37.725,,adl
7.464146,0.1338,-0.222,0.7167,-0.8278,0.1301,-0.2178,-18.1313,18.4688,-37.725,,adl
7.481936,0.1338,-0.222,0.7167,-0.8278,0.1301,-0.2178,-18.1313,18.4688,-37.725,,adl
7.503064,0.1338,-0.222,0.7167,-0.8278,0.1301,-0.2178,-18.3375,20.1375,-36.8063,,adl
7.526276,0.1338,-0.222,0.7167,-0.8719,0.4443,-0.2964,-18.3375,20.1375,-36.8063,,adl
7.530264,-0.0156,-0.7671,0.7032,-0.8719,0.4443,-0.2964,-18.3375,20.1375,-36.8063,,adl
7.543502,-0.0156,-0.7671,0.7032,-0.8719,0.4443,-0.2964,-18.3375,20.1375,-36.8063,,adl
7.563594,-0.0156,-0.7671,0.7032,-0.8719,0.4443,-0.2964,-18.1688,22.1438,-35.9062,,adl
7.583071,-0.0156,-0.7671,0.7032,-0.9269,0.6914,-0.4931,-18.1688,22.1438,-35.9062,,adl
7.585479,-0.499,-1.8282,0.9065,-0.9269,0.6914,-0.4931,-18.1688,22.1438,-35.9062,,adl
7.603791,-0.499,-1.8282,0.9065,-0.9269,0.6914,-0.4931,-18.1688,22.1438,-35.9062,,adl
7.623605,-0.499,-1.8282,0.9065,-0.9269,0.6914,-0.4931,-18.0188,23.775,-35.0063,,adl
7.644562,-0.499,-1.8282,0.9065,-1.0788,0.9754,-0.7823,-18.0188,23.775,-35.0063,,adl
7.664421,-0.499,-1.8282,0.9065,-1.0788,0.9754,-0.7823,-18.0188,23.775,-35.0063,,adl
7.66702,-0.0413,-3.7886,2.3957,-1.0788,0.9754,-0.7823,-18.0188,23.775,-35.0063,,adl
7.684145,-0.0413,-3.7886,2.3957,-1.0788,0.9754,-0.7823,-17.8125,25.5938,-34.1063,,adl
7.703291,-0.0413,-3.7886,2.3957,-1.4364,1.4745,-0.7514,-17.8125,25.5938,-34.1063,,adl
7.727883,-1.5735,-1.8234,3.8227,-1.4364,1.4745,-0.7514,-17.8125,25.5938,-34.1063,,adl
7.731159,-1.5735,-1.8234,3.8227,-1.4364,1.4745,-0.7514,-17.8125,25.5938,-34.1063,,adl
7.74273,-1.5735,-1.8234,3.8227,-1.4364,1.4745,-0.7514,-17.2875,26.6438,-33.6938,,adl
7.765975,-1.5735,-1.8234,3.8227,-1.8596,0.0698,-0.6602,-17.2875,26.6438,-33.6938,,adl
7.786175,-1.5735,-1.8234,3.8227,-1.8596,0.0698,-0.6602,-17.2875,26.6438,-33.6938,,adl
7.788023,-2.495,-0.1134,5.9326,-1.8596,0.0698,-0.6602,-17.2875,26.6438,-33.6938,,adl
7.80253,-2.495,-0.1134,5.9326,-1.8596,0.0698,-0.6602,-17.0438,28.5,-32.4563,,adl
7.826915,-2.495,-0.1134,5.9326,0.0557,0.0623,-0.3474,-17.0438,28.5,-32.4563,,adl
7.848064,-3.0447,1.0893,6.0836,0.0557,0.0623,-0.3474,-17.0438,28.5,-32.4563,,adl
7.851141,-3.0447,1.0893,6.0836,0.0557,0.0623,-0.3474,-17.0438,28.5,-32.4563,,adl
7.862796,-3.0447,1.0893,6.0836,0.0557,0.0623,-0.3474,-17.2875,29.85,-31.7438,,adl
7.887644,-3.0447,1.0893,6.0836,1.852,-0.5143,-0.0084,-17.2875,29.85,-31.7438,,adl
7.908715,-3.0447,1.0893,6.0836,1.852,-0.5143,-0.0084,-17.2875,29.85,-31.7438,,adl
7.924648,-3.0447,1.0893,6.0836,1.852,-0.5143,-0.0084,-17.5125,30.7125,-31.5375,,adl
7.928219,-3.0242,1.2495,1.3276,1.852,-0.5143,-0.0084,-17.5125,30.7125,-31.5375,,adl
7.951114,-3.0242,1.2495,1.3276,2.7533,-1.526,0.5872,-17.5125,30.7125,-31.5375,,adl
7.968849,-3.0242,1.2495,1.3276,2.7533,-1.526,0.5872,-17.5125,30.7125,-31.5375,,adl
7.983041,-3.0242,1.2495,1.3276,2.7533,-1.526,0.5872,-18.3563,30.2625,-31.6313,,adl
7.989487,-2.5023,-1.6655,-2.6643,2.7533,-1.526,0.5872,-18.3563,30.2625,-31.6313,,adl
8.009094,-2.5023,-1.6655,-2.6643,3.3001,-1.6445,1.2184,-18.3563,30.2625,-31.6313,,adl
8.030179,-2.5023,-1.6655,-2.6643,3.3001,-1.6445,1.2184,-18.3563,30.2625,-31.6313,,adl
8.042679,-2.5023,-1.6655,-2.6643,3.3001,-1.6445,1.2184,-19.2938,28.1438,-33.0188,,adl
8.051066,-0.1955,-3.9511,-5.7547,3.3001,-1.6445,1.2184,-19.2938,28.1438,-33.0188,,adl
8.069811,-0.1955,-3.9511,-5.7547,3.5621,0.2085,1.4773,-19.2938,28.1438,-33.0188,,adl
8.090567,-0.1955,-3.9511,-5.7547,3.5621,0.2085,1.4773,-19.2938,28.1438,-33.0188,,adl
8.102358,-0.1955,-3.9511,-5.7547,3.5621,0.2085,1.4773,-20.0063,25.875,-35.5125,,adl
8.1316,-0.1955,-3.9511,-5.7547,2.8701,0.9211,1.5408,-20.0063,25.875,-35.5125,,adl
8.134927,2.2414,-3.0282,-6.8007,2.8701,0.9211,1.5408,-20.0063,25.875,-35.5125,,adl
8.150966,2.2414,-3.0282,-6.8007,2.8701,0.9211,1.5408,-20.0063,25.875,-35.5125,,adl
8.163071,2.2414,-3.0282,-6.8007,2.8701,0.9211,1.5408,-20.2875,21.3563,-37.2,,adl
8.192101,2.2414,-3.0282,-6.8007,1.3962,0.8366,1.0108,-20.2875,21.3563,-37.2,,adl
8.195992,3.4761,-1.1353,-6.9046,1.3962,0.8366,1.0108,-20.2875,21.3563,-37.2,,adl
8.212086,3.4761,-1.1353,-6.9046,1.3962,0.8366,1.0108,-20.2875,21.3563,-37.2,,adl
8.222483,3.4761,-1.1353,-6.9046,1.3962,0.8366,1.0108,-20.7188,16.7625,-38.0625,,adl
8.253046,3.4761,-1.1353,-6.9046,-0.3398,0.0442,0.3711,-20.7188,16.7625,-38.0625,,adl
8.255855,3.6493,-0.7675,-5.2728,-0.3398,0.0442,0.3711,-20.7188,16.7625,-38.0625,,adl
8.273509,3.6493,-0.7675,-5.2728,-0.3398,0.0442,0.3711,-20.7188,16.7625,-38.0625,,adl
8.28234,3.6493,-0.7675,-5.2728,-0.3398,0.0442,0.3711,-20.8875,12.0188,-39.2625,,adl
8.314283,3.6493,-0.7675,-5.2728,-1.6685,-1.9424,-0.2218,-20.8875,12.0188,-39.2625,,adl
8.316422,4.1299,-1.0882,-3.8839,-1.6685,-1.9424,-0.2218,-20.8875,12.0188,-39.2625,,adl
8.334224,4.1299,-1.0882,-3.8839,-1.6685,-1.9424,-0.2218,-20.8875,12.0188,-39.2625,,adl
8.342372,4.1299,-1.0882,-3.8839,-1.6685,-1.9424,-0.2218,-21.075,7.8938,-40.2938,,adl
8.376207,4.1299,-1.0882,-3.8839,0.4025,4.2364,-0.012,-21.075,7.8938,-40.2938,,adl
8.396917,4.1299,-1.0882,-3.8839,0.4025,4.2364,-0.012,-21.075,7.8938,-40.2938,,adl
8.399315,3.0289,-3.1906,6.4899,0.4025,4.2364,-0.012,-21.075,7.8938,-40.2938,,adl
8.402251,3.0289,-3.1906,6.4899,0.4025,4.2364,-0.012,-20.1188,4.05,-41.1375,,adl
8.435322,3.0289,-3.1906,6.4899,-1.0196,-1.4116,1.3392,-20.1188,4.05,-41.1375,,adl
8.456052,3.0289,-3.1906,6.4899,-1.0196,-1.4116,1.3392,-20.1188,4.05,-41.1375,,adl
8.458465,-1.7691,-0.6924,-1.4857,-1.0196,-1.4116,1.3392,-20.1188,4.05,-41.1375,,adl
8.462717,-1.7691,-0.6924,-1.4857,-1.0196,-1.4116,1.3392,-18.6938,1.5375,-41.7,,adl
8.495697,-1.7691,-0.6924,-1.4857,0.9621,2.3195,2.0662,-18.6938,1.5375,-41.7,,adl
8.51728,-1.7691,-0.6924,-1.4857,0.9621,2.3195,2.0662,-18.6938,1.5375,-41.7,,adl
8.519123,-1.1297,1.0121,1.2953,0.9621,2.3195,2.0662,-18.6938,1.5375,-41.7,,adl
8.522447,-1.1297,1.0121,1.2953,0.9621,2.3195,2.0662,-16.6125,0.1313,-42.6188,,adl
8.557475,-1.1297,1.0121,1.2953,0.0684,1.4806,0.6356,-16.6125,0.1313,-42.6188,,adl
8.578073,-1.1297,1.0121,1.2953,0.0684,1.4806,0.6356,-16.6125,0.1313,-42.6188,,adl
8.582166,-1.1297,1.0121,1.2953,0.0684,1.4806,0.6356,-14.4,-0.7125,-43.05,,adl
8.597807,-1.5732,-0.4939,0.8999,0.0684,1.4806,0.6356,-14.4,-0.7125,-43.05,,adl
8.618553,-1.5732,-0.4939,0.8999,-0.9248,-0.4712,-0.6155,-14.4,-0.7125,-43.05,,adl
8.638081,-1.5732,-0.4939,0.8999,-0.9248,-0.4712,-0.6155,-14.4,-0.7125,-43.05,,adl
8.642065,-1.5732,-0.4939,0.8999,-0.9248,-0.4712,-0.6155,-12.525,-0.4125,-43.6125,,adl
8.659072,-0.4003,0.67,0.4452,-0.9248,-0.4712,-0.6155,-12.525,-0.4125,-43.6125,,adl
8.678929,-0.4003,0.67,0.4452,-0.1815,0.493,-0.3751,-12.525,-0.4125,-43.6125,,adl
8.699287,-0.4003,0.67,0.4452,-0.1815,0.493,-0.3751,-12.525,-0.4125,-43.6125,,adl
8.704048,-0.4003,0.67,0.4452,-0.1815,0.493,-0.3751,-10.9125,0.4313,-44.1188,,adl
8.719264,-1.054,0.8588,0.8029,-0.1815,0.493,-0.3751,-10.9125,0.4313,-44.1188,,adl
8.741128,-1.054,0.8588,0.8029,-0.4189,0.1352,-0.471,-10.9125,0.4313,-44.1188,,adl
8.760256,-1.054,0.8588,0.8029,-0.4189,0.1352,-0.471,-10.9125,0.4313,-44.1188,,adl
8.762425,-1.054,0.8588,0.8029,-0.4189,0.1352,-0.471,-9.2625,1.1813,-44.6063,,adl
8.781002,-0.3582,0.161,0.3463,-0.4189,0.1352,-0.471,-9.2625,1.1813,-44.6063,,adl
8.801065,-0.3582,0.161,0.3463,-0.3224,0.1688,-0.3759,-9.2625,1.1813,-44.6063,,adl
8.821295,-0.3582,0.161,0.3463,-0.3224,0.1688,-0.3759,-9.2625,1.1813,-44.6063,,adl
8.822425,-0.3582,0.161,0.3463,-0.3224,0.1688,-0.3759,-7.2375,1.6313,-45.0563,,adl
8.863566,-0.3582,0.161,0.3463,-0.2474,0.2302,-0.3397,-7.2375,1.6313,-45.0563,,adl
8.865916,-0.6317,0.4482,0.4143,-0.2474,0.2302,-0.3397,-7.2375,1.6313,-45.0563,,adl
8.883573,-0.6317,0.4482,0.4143,-0.2474,0.2302,-0.3397,-7.2375,1.6313,-45.0563,,adl
8.884811,-0.6317,0.4482,0.4143,-0.2474,0.2302,-0.3397,-6.225,2.3625,-45.2438,,adl
8.923683,-0.7056,0.4077,0.4321,-0.2474,0.2302,-0.3397,-6.225,2.3625,-45.2438,,adl
8.92616,-0.7056,0.4077,0.4321,-0.3213,0.1874,-0.4192,-6.225,2.3625,-45.2438,,adl
8.944913,-0.7056,0.4077,0.4321,-0.3213,0.1874,-0.4192,-4.8938,2.9062,-45.45,,adl
8.946808,-0.7056,0.4077,0.4321,-0.3213,0.1874,-0.4192,-4.8938,2.9062,-45.45,,adl
8.984229,-0.7056,0.4077,0.4321,-0.3412,0.2618,-0.5048,-4.8938,2.9062,-45.45,,adl
8.986512,-0.6196,0.2584,0.4344,-0.3412,0.2618,-0.5048,-4.8938,2.9062,-45.45,,adl
9.003116,-0.6196,0.2584,0.4344,-0.3412,0.2618,-0.5048,-4.8938,2.9062,-45.45,,adl
9.004665,-0.6196,0.2584,0.4344,-0.3412,0.2618,-0.5048,-4.0125,3.5625,-45.3,,adl
9.046858,-0.6196,0.2584,0.4344,-0.3795,0.2469,-0.6844,-4.0125,3.5625,-45.3,,adl
9.063564,-0.6196,0.2584,0.4344,-0.3795,0.2469,-0.6844,-3.6188,4.6125,-45.2625,,adl
9.067079,-0.6196,0.2584,0.4344,-0.3795,0.2469,-0.6844,-3.6188,4.6125,-45.2625,,adl
9.068275,-0.8165,0.0925,0.3031,-0.3795,0.2469,-0.6844,-3.6188,4.6125,-45.2625,,adl
9.105781,-0.8165,0.0925,0.3031,-0.2506,0.389,-0.9055,-3.6188,4.6125,-45.2625,,adl
9.122284,-0.8165,0.0925,0.3031,-0.2506,0.389,-0.9055,-2.6813,5.1188,-45.3375,,adl
9.125502,-0.8165,0.0925,0.3031,-0.2506,0.389,-0.9055,-2.6813,5.1188,-45.3375,,adl
9.126607,-0.8719,-0.7196,0.7963,-0.2506,0.389,-0.9055,-2.6813,5.1188,-45.3375,,adl
9.16689,-0.8719,-0.7196,0.7963,-0.2638,0.7365,-1.1771,-2.6813,5.1188,-45.3375,,adl
9.184661,-0.8719,-0.7196,0.7963,-0.2638,0.7365,-1.1771,-2.025,5.8125,-45.225,,adl
9.186457,-0.8719,-0.7196,0.7963,-0.2638,0.7365,-1.1771,-2.025,5.8125,-45.225,,adl
9.187277,-2.1183,-1.0045,1.8003,-0.2638,0.7365,-1.1771,-2.025,5.8125,-45.225,,adl
9.226418,-2.1183,-1.0045,1.8003,-0.6706,0.0395,-1.1671,-2.025,5.8125,-45.225,,adl
9.24334,-2.1183,-1.0045,1.8003,-0.6706,0.0395,-1.1671,-1.4062,6.75,-45.1688,,adl
9.247668,-2.1183,-1.0045,1.8003,-0.6706,0.0395,-1.1671,-1.4062,6.75,-45.1688,,adl
9.248538,0.998,-0.1172,1.0811,-0.6706,0.0395,-1.1671,-1.4062,6.75,-45.1688,,adl
9.287995,0.998,-0.1172,1.0811,-0.9478,-0.4112,-1.754,-1.4062,6.75,-45.1688,,adl
9.30266,0.998,-0.1172,1.0811,-0.9478,-0.4112,-1.754,-0.45,7.95,-44.8313,,adl
9.307781,0.998,-0.1172,1.0811,-0.9478,-0.4112,-1.754,-0.45,7.95,-44.8313,,adl
9.329431,-1.2261,1.0495,3.9382,-0.9478,-0.4112,-1.754,-0.45,7.95,-44.8313,,adl
9.349107,-1.2261,1.0495,3.9382,0.3812,-0.2341,-0.1916,-0.45,7.95,-44.8313,,adl
9.363468,-1.2261,1.0495,3.9382,0.3812,-0.2341,-0.1916,0.0938,8.8875,-44.4375,,adl
9.371225,-1.2261,1.0495,3.9382,0.3812,-0.2341,-0.1916,0.0938,8.8875,-44.4375,,adl
9.389944,-2.5054,1.1459,3.7305,0.3812,-0.2341,-0.1916,0.0938,8.8875,-44.4375,,adl
9.409923,-2.5054,1.1459,3.7305,0.9212,-1.0318,0.4598,0.0938,8.8875,-44.4375,,adl
9.421988,-2.5054,1.1459,3.7305,0.9212,-1.0318,0.4598,-0.0563,9.2438,-44.2313,,adl
9.430007,-2.5054,1.1459,3.7305,0.9212,-1.0318,0.4598,-0.0563,9.2438,-44.2313,,adl
9.451131,-1.6019,-0.0989,-0.2084,0.9212,-1.0318,0.4598,-0.0563,9.2438,-44.2313,,adl
9.471628,-1.6019,-0.0989,-0.2084,0.5811,-1.2771,-0.0716,-0.0563,9.2438,-44.2313,,adl
9.482147,-1.6019,-0.0989,-0.2084,0.5811,-1.2771,-0.0716,-0.3188,8.8875,-43.875,,adl
9.490806,-1.6019,-0.0989,-0.2084,0.5811,-1.2771,-0.0716,-0.3188,8.8875,-43.875,,adl
9.531521,-1.6019,-0.0989,-0.2084,0.7302,-1.0868,0.1265,-0.3188,8.8875,-43.875,,adl
9.532907,-1.029,0.063,-1.0948,0.7302,-1.0868,0.1265,-0.3188,8.8875,-43.875,,adl
9.543242,-1.029,0.063,-1.0948,0.7302,-1.0868,0.1265,-0.8063,7.9875,-43.8188,,adl
9.552215,-1.029,0.063,-1.0948,0.7302,-1.0868,0.1265,-0.8063,7.9875,-43.8188,,adl
9.593444,-1.029,0.063,-1.0948,0.5647,-1.5352,0.2422,-0.8063,7.9875,-43.8188,,adl
9.596743,-1.235,0.1791,-1.6466,0.5647,-1.5352,0.2422,-0.8063,7.9875,-43.8188,,adl
9.603363,-1.235,0.1791,-1.6466,0.5647,-1.5352,0.2422,2.025,6.6938,-43.6688,,adl
9.612759,-1.235,0.1791,-1.6466,0.5647,-1.5352,0.2422,2.025,6.6938,-43.6688,,adl
9.654008,-1.235,0.1791,-1.6466,0.3887,-1.6104,0.3328,2.025,6.6938,-43.6688,,adl
9.656123,-1.1144,0.1841,-2.6146,0.3887,-1.6104,0.3328,2.025,6.6938,-43.6688,,adl
9.663926,-1.1144,0.1841,-2.6146,0.3887,-1.6104,0.3328,0.5813,4.8188,-43.65,,adl
9.672263,-1.1144,0.1841,-2.6146,0.3887,-1.6104,0.3328,0.5813,4.8188,-43.65,,adl
9.715131,-1.1144,0.1841,-2.6146,0.2904,-1.5207,0.4594,0.5813,4.8188,-43.65,,adl
9.717675,-0.9232,0.3173,-2.8035,0.2904,-1.5207,0.4594,0.5813,4.8188,-43.65,,adl
9.722082,-0.9232,0.3173,-2.8035,0.2904,-1.5207,0.4594,-1.4438,2.3438,-43.4625,,adl
9.734513,-0.9232,0.3173,-2.8035,0.2904,-1.5207,0.4594,-1.4438,2.3438,-43.4625,,adl
9.776149,-0.9232,0.3173,-2.8035,0.1878,-1.396,0.6302,-1.4438,2.3438,-43.4625,,adl
9.786068,-0.9232,0.3173,-2.8035,0.1878,-1.396,0.6302,-3.8063,-0.6562,-43.3313,,adl
9.795773,-0.9232,0.3173,-2.8035,0.1878,-1.396,0.6302,-3.8063,-0.6562,-43.3313,,adl
9.797009,-0.4338,0.3084,-2.8878,0.1878,-1.396,0.6302,-3.8063,-0.6562,-43.3313,,adl
9.836503,-0.4338,0.3084,-2.8878,-0.2052,-1.5682,0.6629,-3.8063,-0.6562,-43.3313,,adl
9.841834,-0.4338,0.3084,-2.8878,-0.2052,-1.5682,0.6629,-6.8438,-3.7313,-42.9375,,adl
9.857007,-0.4338,0.3084,-2.8878,-0.2052,-1.5682,0.6629,-6.8438,-3.7313,-42.9375,,adl
9.858104,-0.065,0.0458,-2.507,-0.2052,-1.5682,0.6629,-6.8438,-3.7313,-42.9375,,adl
9.897314,-0.065,0.0458,-2.507,-0.4505,-1.7016,0.7398,-6.8438,-3.7313,-42.9375,,adl
9.902066,-0.065,0.0458,-2.507,-0.4505,-1.7016,0.7398,-10.3313,-6.4125,-42.1313,,adl
9.917998,-0.065,0.0458,-2.507,-0.4505,-1.7016,0.7398,-10.3313,-6.4125,-42.1313,,adl
9.919126,0.3202,-0.0526,-1.9743,-0.4505,-1.7016,0.7398,-10.3313,-6.4125,-42.1313,,adl
9.95908,0.3202,-0.0526,-1.9743,-0.2868,-1.1039,0.7381,-10.3313,-6.4125,-42.1313,,adl
9.962234,0.3202,-0.0526,-1.9743,-0.2868,-1.1039,0.7381,-14.3625,-8.5312,-40.8938,,adl
9.9782,0.3202,-0.0526,-1.9743,-0.2868,-1.1039,0.7381,-14.3625,-8.5312,-40.8938,,adl
9.99937,2.003,-1.1843,-3.0915,-0.2868,-1.1039,0.7381,-14.3625,-8.5312,-40.8938,,adl
10.018786,2.003,-1.1843,-3.0915,-1.5201,-1.8011,-0.1292,-14.3625,-8.5312,-40.8938,,adl
10.021778,2.003,-1.1843,-3.0915,-1.5201,-1.8011,-0.1292,-18.6562,-9.9375,-39.2812,,adl
10.039681,2.003,-1.1843,-3.0915,-1.5201,-1.8011,-0.1292,-18.6562,-9.9375,-39.2812,,adl
10.059939,2.9235,-4.4761,-2.5301,-1.5201,-1.8011,-0.1292,-18.6562,-9.9375,-39.2812,,adl
10.08016,2.9235,-4.4761,-2.5301,-1.29,-0.5887,-1.4209,-18.6562,-9.9375,-39.2812,,adl
10.083404,2.9235,-4.4761,-2.5301,-1.29,-0.5887,-1.4209,-22.8375,-11.0625,-37.2375,,adl
10.100324,2.9235,-4.4761,-2.5301,-1.29,-0.5887,-1.4209,-22.8375,-11.0625,-37.2375,,adl
10.119199,0.6313,1.3454,0.4715,-1.29,-0.5887,-1.4209,-22.8375,-11.0625,-37.2375,,adl
10.141309,0.6313,1.3454,0.4715,-0.0486,0.2405,1.0157,-22.8375,-11.0625,-37.2375,,adl
10.143685,0.6313,1.3454,0.4715,-0.0486,0.2405,1.0157,-26.5875,-11.6438,-35.3625,,adl
10.162644,0.6313,1.3454,0.4715,-0.0486,0.2405,1.0157,-26.5875,-11.6438,-35.3625,,adl
10.181521,0.7291,-0.6587,0.9679,-0.0486,0.2405,1.0157,-26.5875,-11.6438,-35.3625,,adl
10.202502,0.7291,-0.6587,0.9679,-0.0486,0.2405,1.0157,-29.7375,-11.475,-33.8625,,adl
10.204369,0.7291,-0.6587,0.9679,0.1587,0.5288,1.3132,-29.7375,-11.475,-33.8625,,adl
10.223446,0.7291,-0.6587,0.9679,0.1587,0.5288,1.3132,-29.7375,-11.475,-33.8625,,adl
10.262833,0.7291,-0.6587,0.9679,0.1587,0.5288,1.3132,-32.3813,-10.875,-32.6063,,adl
10.264728,0.7291,-0.6587,0.9679,-0.1161,0.0712,0.6703,-32.3813,-10.875,-32.6063,,adl
10.265488,-1.2559,0.7231,0.3927,-0.1161,0.0712,0.6703,-32.3813,-10.875,-32.6063,,adl
10.282613,-1.2559,0.7231,0.3927,-0.1161,0.0712,0.6703,-32.3813,-10.875,-32.6063,,adl
10.324111,-1.2559,0.7231,0.3927,-0.4302,-0.3615,0.1545,-32.3813,-10.875,-32.6063,,adl
10.326283,-1.2559,0.7231,0.3927,-0.4302,-0.3615,0.1545,-34.3313,-9.8438,-31.6125,,adl
10.327328,0.2419,-0.307,0.8441,-0.4302,-0.3615,0.1545,-34.3313,-9.8438,-31.6125,,adl
10.343601,0.2419,-0.307,0.8441,-0.4302,-0.3615,0.1545,-34.3313,-9.8438,-31.6125,,adl
10.383411,0.2419,-0.307,0.8441,-0.4302,-0.3615,0.1545,-35.4938,-8.6063,-30.6563,,adl
10.385178,-0.4815,0.3883,0.2854,-0.4302,-0.3615,0.1545,-35.4938,-8.6063,-30.6563,,adl
10.385913,-0.4815,0.3883,0.2854,-0.2883,-0.2209,0.2007,-35.4938,-8.6063,-30.6563,,adl
10.404687,-0.4815,0.3883,0.2854,-0.2883,-0.2209,0.2007,-35.4938,-8.6063,-30.6563,,adl
10.442498,-0.4815,0.3883,0.2854,-0.2883,-0.2209,0.2007,-36.3,-7.5,-30.2625,,adl
10.444732,-0.4815,0.3883,0.2854,-0.3714,-0.1915,0.0402,-36.3,-7.5,-30.2625,,adl
10.466242,-0.4815,0.3883,0.2854,-0.3714,-0.1915,0.0402,-36.3,-7.5,-30.2625,,adl
10.467776,0.3103,-0.215,0.6879,-0.3714,-0.1915,0.0402,-36.3,-7.5,-30.2625,,adl
10.502646,0.3103,-0.215,0.6879,-0.3714,-0.1915,0.0402,-36.7313,-6.5625,-29.9438,,adl
10.505901,0.3103,-0.215,0.6879,-0.3117,-0.2135,-0.1189,-36.7313,-6.5625,-29.9438,,adl
10.526586,0.3103,-0.215,0.6879,-0.3117,-0.2135,-0.1189,-36.7313,-6.5625,-29.9438,,adl
10.52841,-0.1457,0.2521,0.2318,-0.3117,-0.2135,-0.1189,-36.7313,-6.5625,-29.9438,,adl
10.562414,-0.1457,0.2521,0.2318,-0.3117,-0.2135,-0.1189,-36.9188,-5.4563,-29.8688,,adl
10.56543,-0.1457,0.2521,0.2318,-0.4076,-0.3033,-0.1473,-36.9188,-5.4563,-29.8688,,adl
10.58722,0.2292,-0.1596,0.4815,-0.4076,-0.3033,-0.1473,-36.9188,-5.4563,-29.8688,,adl
10.58981,0.2292,-0.1596,0.4815,-0.4076,-0.3033,-0.1473,-36.9188,-5.4563,-29.8688,,adl
10.623324,0.2292,-0.1596,0.4815,-0.4076,-0.3033,-0.1473,-37.2,-4.35,-29.6813,,adl
10.62718,0.2292,-0.1596,0.4815,-0.437,-0.3577,-0.2672,-37.2,-4.35,-29.6813,,adl
10.649112,0.2292,-0.1596,0.4815,-0.437,-0.3577,-0.2672,-37.2,-4.35,-29.6813,,adl
10.650927,0.3656,-0.4278,0.3233,-0.437,-0.3577,-0.2672,-37.2,-4.35,-29.6813,,adl
10.68267,0.3656,-0.4278,0.3233,-0.437,-0.3577,-0.2672,-37.5563,-3.6188,-29.175,,adl
10.690083,0.3656,-0.4278,0.3233,-0.1719,-0.2867,-0.2396,-37.5563,-3.6188,-29.175,,adl
10.709283,0.3656,-0.4278,0.3233,-0.1719,-0.2867,-0.2396,-37.5563,-3.6188,-29.175,,adl
10.72936,0.0686,-0.1515,0.2268,-0.1719,-0.2867,-0.2396,-37.5563,-3.6188,-29.175,,adl
10.742324,0.0686,-0.1515,0.2268,-0.1719,-0.2867,-0.2396,-38.0063,-3.1875,-28.6313,,adl
10.74936,0.0686,-0.1515,0.2268,0.0557,-0.1983,-0.2711,-38.0063,-3.1875,-28.6313,,adl
10.769766,0.0686,-0.1515,0.2268,0.0557,-0.1983,-0.2711,-38.0063,-3.1875,-28.6313,,adl
10.790384,0.138,-0.0666,0.2187,0.0557,-0.1983,-0.2711,-38.0063,-3.1875,-28.6313,,adl
10.802204,0.138,-0.0666,0.2187,0.0557,-0.1983,-0.2711,-38.5875,-3.0938,-27.975,,adl
10.810298,0.138,-0.0666,0.2187,0.0916,-0.1254,-0.2598,-38.5875,-3.0938,-27.975,,adl
10.8319,0.138,-0.0666,0.2187,0.0916,-0.1254,-0.2598,-38.5875,-3.0938,-27.975,,adl
10.850997,-0.109,-0.2202,0.1922,0.0916,-0.1254,-0.2598,-38.5875,-3.0938,-27.975,,adl
10.863149,-0.109,-0.2202,0.1922,0.0916,-0.1254,-0.2598,-39.2063,-3.375,-27.525,,adl
10.8723,-0.109,-0.2202,0.1922,0.2129,-0.1593,-0.3716,-39.2063,-3.375,-27.525,,adl
10.891479,-0.109,-0.2202,0.1922,0.2129,-0.1593,-0.3716,-39.2063,-3.375,-27.525,,adl
10.922825,-0.109,-0.2202,0.1922,0.2129,-0.1593,-0.3716,-39.6562,-3.6188,-27.0,,adl
10.933135,-0.109,-0.2202,0.1922,0.078,-0.3001,-0.4838,-39.6562,-3.6188,-27.0,,adl
10.934832,-0.2954,0.1924,0.7236,0.078,-0.3001,-0.4838,-39.6562,-3.6188,-27.0,,adl
10.953961,-0.2954,0.1924,0.7236,0.078,-0.3001,-0.4838,-39.6562,-3.6188,-27.0,,adl
10.982613,-0.2954,0.1924,0.7236,0.078,-0.3001,-0.4838,-39.9188,-4.1438,-26.3625,,adl
10.992799,-0.2954,0.1924,0.7236,-0.0558,-0.4663,-0.7216,-39.9188,-4.1438,-26.3625,,adl
10.995074,0.6278,-0.5291,1.0687,-0.0558,-0.4663,-0.7216,-39.9188,-4.1438,-26.3625,,adl
11.017869,0.6278,-0.5291,1.0687,-0.0558,-0.4663,-0.7216,-39.9188,-4.1438,-26.3625,,adl
11.042158,0.6278,-0.5291,1.0687,-0.0558,-0.4663,-0.7216,-30.0188,-3.5438,-0.225,,adl
11.054058,0.6278,-0.5291,1.0687,-0.6607,-1.4787,-0.5864,-30.0188,-3.5438,-0.225,,adl
11.056518,-1.7129,0.3712,0.998,-0.6607,-1.4787,-0.5864,-30.0188,-3.5438,-0.225,,adl
11.074327,-1.7129,0.3712,0.998,-0.6607,-1.4787,-0.5864,-30.0188,-3.5438,-0.225,,adl
11.102181,-1.7129,0.3712,0.998,-0.6607,-1.4787,-0.5864,-30.6938,-4.4062,1.4062,,adl
11.115812,-1.7129,0.3712,0.998,-1.2911,-3.0489,0.0477,-30.6938,-4.4062,1.4062,,adl
11.117762,-3.7823,2.3981,0.7657,-1.2911,-3.0489,0.0477,-30.6938,-4.4062,1.4062,,adl
11.135302,-3.7823,2.3981,0.7657,-1.2911,-3.0489,0.0477,-30.6938,-4.4062,1.4062,,adl
11.1652,-3.7823,2.3981,0.7657,-1.2911,-3.0489,0.0477,-31.575,-5.1,4.2,,adl
11.174895,-3.7823,2.3981,0.7657,-1.7136,-3.6513,0.0636,-31.575,-5.1,4.2,,adl
11.195504,-3.7823,2.3981,0.7657,-1.7136,-3.6513,0.0636,-31.575,-5.1,4.2,,adl
11.196512,-2.7259,1.5381,-1.5621,-1.7136,-3.6513,0.0636,-31.575,-5.1,4.2,,adl
11.221352,-2.7259,1.5381,-1.5621,-1.7136,-3.6513,0.0636,-32.55,-5.625,8.3063,,adl
11.235913,-2.7259,1.5381,-1.5621,-1.6181,-3.0794,0.0157,-32.55,-5.625,8.3063,,adl
11.255682,-2.7259,1.5381,-1.5621,-1.6181,-3.0794,0.0157,-32.55,-5.625,8.3063,,adl
11.257278,-1.1188,0.7708,-1.4153,-1.6181,-3.0794,0.0157,-32.55,-5.625,8.3063,,adl
11.28136,-1.1188,0.7708,-1.4153,-1.6181,-3.0794,0.0157,-33.15,-5.7375,13.1438,,adl
11.296523,-1.1188,0.7708,-1.4153,-1.2678,-2.506,0.1254,-33.15,-5.7375,13.1438,,adl
11.316323,-1.1188,0.7708,-1.4153,-1.2678,-2.506,0.1254,-33.15,-5.7375,13.1438,,adl
11.317746,-0.2519,0.0646,-1.3519,-1.2678,-2.506,0.1254,-33.15,-5.7375,13.1438,,adl
11.34103,-0.2519,0.0646,-1.3519,-1.2678,-2.506,0.1254,-33.4875,-5.4938,18.8813,,adl
11.356971,-0.2519,0.0646,-1.3519,-1.1438,-2.4753,0.1996,-33.4875,-5.4938,18.8813,,adl
11.377837,-0.2519,0.0646,-1.3519,-1.1438,-2.4753,0.1996,-33.4875,-5.4938,18.8813,,adl
11.379614,-0.3521,0.0212,-2.1848,-1.1438,-2.4753,0.1996,-33.4875,-5.4938,18.8813,,adl
11.400767,-0.3521,0.0212,-2.1848,-1.1438,-2.4753,0.1996,-43.725,-6.7125,0.1688,,adl
11.418255,-0.3521,0.0212,-2.1848,-0.8169,-2.0127,0.3029,-43.725,-6.7125,0.1688,,adl
11.438675,-0.3521,0.0212,-2.1848,-0.8169,-2.0127,0.3029,-43.725,-6.7125,0.1688,,adl
11.459465,0.2017,0.0603,-2.2341,-0.8169,-2.0127,0.3029,-43.725,-6.7125,0.1688,,adl
11.461444,0.2017,0.0603,-2.2341,-0.8169,-2.0127,0.3029,-43.0312,-6.0,7.275,,adl
11.479185,0.2017,0.0603,-2.2341,-0.6501,-1.926,0.6384,-43.0312,-6.0,7.275,,adl
11.499527,0.2017,0.0603,-2.2341,-0.6501,-1.926,0.6384,-43.0312,-6.0,7.275,,adl
11.5204,0.273,0.0559,-2.0805,-0.6501,-1.926,0.6384,-43.0312,-6.0,7.275,,adl
11.523201,0.273,0.0559,-2.0805,-0.6501,-1.926,0.6384,-41.475,-5.0438,14.175,,adl
11.539679,0.273,0.0559,-2.0805,-0.6806,-1.8902,0.7282,-41.475,-5.0438,14.175,,adl
11.560568,0.273,0.0559,-2.0805,-0.6806,-1.8902,0.7282,-41.475,-5.0438,14.175,,adl
11.583006,0.7806,-0.4171,-1.5712,-0.6806,-1.8902,0.7282,-41.475,-5.0438,14.175,,adl
11.585108,0.7806,-0.4171,-1.5712,-0.6806,-1.8902,0.7282,-39.0,-3.6938,20.7,,adl
11.601338,0.7806,-0.4171,-1.5712,-0.4963,-1.5912,0.857,-39.0,-3.6938,20.7,,adl
11.623197,0.7806,-0.4171,-1.5712,-0.4963,-1.5912,0.857,-39.0,-3.6938,20.7,,adl
11.641291,0.7806,-0.4171,-1.5712,-0.4963,-1.5912,0.857,-35.55,-2.4188,26.2125,,adl
11.66195,0.7806,-0.4171,-1.5712,-0.529,-1.4169,0.7647,-35.55,-2.4188,26.2125,,adl
11.663485,1.3292,-1.2844,-1.4989,-0.529,-1.4169,0.7647,-35.55,-2.4188,26.2125,,adl
11.683099,1.3292,-1.2844,-1.4989,-0.529,-1.4169,0.7647,-35.55,-2.4188,26.2125,,adl
11.702454,1.3292,-1.2844,-1.4989,-0.529,-1.4169,0.7647,-31.3875,-1.1625,30.6375,,adl
11.723207,1.3292,-1.2844,-1.4989,-0.5226,-1.0033,0.441,-31.3875,-1.1625,30.6375,,adl
11.725057,2.6314,-1.5251,-1.9596,-0.5226,-1.0033,0.441,-31.3875,-1.1625,30.6375,,adl
11.744515,2.6314,-1.5251,-1.9596,-0.5226,-1.0033,0.441,-31.3875,-1.1625,30.6375,,adl
11.763292,2.6314,-1.5251,-1.9596,-0.5226,-1.0033,0.441,-27.0188,-0.3188,34.2938,,adl
11.785204,2.6314,-1.5251,-1.9596,-1.5312,-1.0108,-1.1345,-27.0188,-0.3188,34.2938,,adl
11.787678,3.8634,-3.0666,-3.051,-1.5312,-1.0108,-1.1345,-27.0188,-0.3188,34.2938,,adl
11.805349,3.8634,-3.0666,-3.051,-1.5312,-1.0108,-1.1345,-27.0188,-0.3188,34.2938,,adl
11.821533,3.8634,-3.0666,-3.051,-1.5312,-1.0108,-1.1345,-22.8,-0.2438,37.05,,adl
11.845668,3.8634,-3.0666,-3.051,-0.7221,-0.0903,-0.132,-22.8,-0.2438,37.05,,adl
11.848455,0.0926,0.1496,0.9242,-0.7221,-0.0903,-0.132,-22.8,-0.2438,37.05,,adl
11.865718,0.0926,0.1496,0.9242,-0.7221,-0.0903,-0.132,-22.8,-0.2438,37.05,,adl
11.883155,0.0926,0.1496,0.9242,-0.7221,-0.0903,-0.132,-19.125,-0.375,39.0188,,adl
11.906293,0.0926,0.1496,0.9242,-0.3356,0.128,0.7172,-19.125,-0.375,39.0188,,adl
11.926694,0.0926,0.1496,0.9242,-0.3356,0.128,0.7172,-19.125,-0.375,39.0188,,adl
11.928485,-0.9152,0.5763,0.3146,-0.3356,0.128,0.7172,-19.125,-0.375,39.0188,,adl
11.94191,-0.9152,0.5763,0.3146,-0.3356,0.128,0.7172,-16.2188,-0.2812,40.4625,,adl
11.967589,-0.9152,0.5763,0.3146,-0.7473,-0.3846,-0.0265,-16.2188,-0.2812,40.4625,,adl
11.987562,-0.9152,0.5763,0.3146,-0.7473,-0.3846,-0.0265,-16.2188,-0.2812,40.4625,,adl
11.990152,0.1745,-0.7688,0.7083,-0.7473,-0.3846,-0.0265,-16.2188,-0.2812,40.4625,,adl
12.001947,0.1745,-0.7688,0.7083,-0.7473,-0.3846,-0.0265,-13.5938,-0.9375,41.5125,,adl
12.027268,0.1745,-0.7688,0.7083,-0.5144,-0.1727,-0.1888,-13.5938,-0.9375,41.5125,,adl
12.047588,0.1745,-0.7688,0.7083,-0.5144,-0.1727,-0.1888,-13.5938,-0.9375,41.5125,,adl
12.04928,-0.0248,-0.0372,-0.0002,-0.5144,-0.1727,-0.1888,-13.5938,-0.9375,41.5125,,adl
12.061131,-0.0248,-0.0372,-0.0002,-0.5144,-0.1727,-0.1888,-11.5688,-2.0813,42.075,,adl
12.089144,-0.0248,-0.0372,-0.0002,-0.2301,0.0478,-0.1125,-11.5688,-2.0813,42.075,,adl
12.109427,-0.0248,-0.0372,-0.0002,-0.2301,0.0478,-0.1125,-11.5688,-2.0813,42.075,,adl
12.122348,-0.0248,-0.0372,-0.0002,-0.2301,0.0478,-0.1125,-10.35,-3.375,42.3375,,adl
12.129955,-0.1484,0.0889,0.4255,-0.2301,0.0478,-0.1125,-10.35,-3.375,42.3375,,adl
12.150484,-0.1484,0.0889,0.4255,-0.2858,0.0613,-0.1859,-10.35,-3.375,42.3375,,adl
12.170513,-0.1484,0.0889,0.4255,-0.2858,0.0613,-0.1859,-10.35,-3.375,42.3375,,adl
12.181828,-0.1484,0.0889,0.4255,-0.2858,0.0613,-0.1859,-9.6188,-4.8563,42.525,,adl
12.190722,-0.2122,0.0556,0.2603,-0.2858,0.0613,-0.1859,-9.6188,-4.8563,42.525,,adl
12.211676,-0.2122,0.0556,0.2603,-0.2546,0.171,-0.224,-9.6188,-4.8563,42.525,,adl
12.23141,-0.2122,0.0556,0.2603,-0.2546,0.171,-0.224,-9.6188,-4.8563,42.525,,adl
12.243574,-0.2122,0.0556,0.2603,-0.2546,0.171,-0.224,-9.225,-6.1875,42.675,,adl
12.2511,-0.192,-0.0426,0.4151,-0.2546,0.171,-0.224,-9.225,-6.1875,42.675,,adl
12.271847,-0.192,-0.0426,0.4151,-0.4023,-0.0434,-0.3738,-9.225,-6.1875,42.675,,adl
12.291736,-0.192,-0.0426,0.4151,-0.4023,-0.0434,-0.3738,-9.225,-6.1875,42.675,,adl
12.301398,-0.192,-0.0426,0.4151,-0.4023,-0.0434,-0.3738,-9.0563,-7.2188,42.5625,,adl
12.312656,-0.3455,0.004,0.2214,-0.4023,-0.0434,-0.3738,-9.0563,-7.2188,42.5625,,adl
12.332653,-0.3455,0.004,0.2214,-0.3451,0.0361,-0.4305,-9.0563,-7.2188,42.5625,,adl
12.352274,-0.3455,0.004,0.2214,-0.3451,0.0361,-0.4305,-9.0563,-7.2188,42.5625,,adl
12.360407,-0.3455,0.004,0.2214,-0.3451,0.0361,-0.4305,-8.925,-8.1,42.45,,adl
12.394344,-0.3455,0.004,0.2214,-0.1932,0.2402,-0.4718,-8.925,-8.1,42.45,,adl
12.398198,-0.2126,-0.181,0.2523,-0.1932,0.2402,-0.4718,-8.925,-8.1,42.45,,adl
12.413965,-0.2126,-0.181,0.2523,-0.1932,0.2402,-0.4718,-8.925,-8.1,42.45,,adl
12.421792,-0.2126,-0.181,0.2523,-0.1932,0.2402,-0.4718,-8.9625,-9.0938,42.1688,,adl
12.4582,-0.2126,-0.181,0.2523,-0.1903,0.2867,-0.5967,-8.9625,-9.0938,42.1688,,adl
12.460648,-0.2622,-0.1193,0.2647,-0.1903,0.2867,-0.5967,-8.9625,-9.0938,42.1688,,adl
12.475826,-0.2622,-0.1193,0.2647,-0.1903,0.2867,-0.5967,-8.9625,-9.0938,42.1688,,adl
12.484132,-0.2622,-0.1193,0.2647,-0.1903,0.2867,-0.5967,-8.9438,-10.05,41.7938,,adl
12.515195,-0.4537,-0.7239,0.6987,-0.1903,0.2867,-0.5967,-8.9438,-10.05,41.7938,,adl
12.518806,-0.4537,-0.7239,0.6987,-0.0728,0.3563,-0.7262,-8.9438,-10.05,41.7938,,adl
12.53649,-0.4537,-0.7239,0.6987,-0.0728,0.3563,-0.7262,-8.9438,-10.05,41.7938,,adl
12.542255,-0.4537,-0.7239,0.6987,-0.0728,0.3563,-0.7262,-9.0188,-10.875,41.6438,,adl
12.577474,-0.4537,-0.7239,0.6987,-0.1949,0.5827,-0.9404,-9.0188,-10.875,41.6438,,adl
12.597128,-0.4537,-0.7239,0.6987,-0.1949,0.5827,-0.9404,-9.0188,-10.875,41.6438,,adl
12.598767,-1.8985,-1.5911,1.3932,-0.1949,0.5827,-0.9404,-9.0188,-10.875,41.6438,,adl
12.601629,-1.8985,-1.5911,1.3932,-0.1949,0.5827,-0.9404,-9.1688,-11.8125,41.3063,,adl
12.636935,-1.8985,-1.5911,1.3932,-0.9361,0.298,-1.4816,-9.1688,-11.8125,41.3063,,adl
12.658417,-1.8985,-1.5911,1.3932,-0.9361,0.298,-1.4816,-9.1688,-11.8125,41.3063,,adl
12.660135,-2.1096,0.3175,2.2814,-0.9361,0.298,-1.4816,-9.1688,-11.8125,41.3063,,adl
12.66122,-2.1096,0.3175,2.2814,-0.9361,0.298,-1.4816,-9.0563,-12.9188,40.6125,,adl
12.700464,-2.1096,0.3175,2.2814,-1.2649,-0.7129,-1.2289,-9.0563,-12.9188,40.6125,,adl
12.717881,-2.1096,0.3175,2.2814,-1.2649,-0.7129,-1.2289,-9.0563,-12.9188,40.6125,,adl
12.719937,-4.8073,2.8566,4.0581,-1.2649,-0.7129,-1.2289,-9.0563,-12.9188,40.6125,,adl
12.72277,-4.8073,2.8566,4.0581,-1.2649,-0.7129,-1.2289,-8.625,-14.4188,39.8438,,adl
12.758945,-4.8073,2.8566,4.0581,0.1153,-0.9147,0.5326,-8.625,-14.4188,39.8438,,adl
12.779832,-4.8073,2.8566,4.0581,0.1153,-0.9147,0.5326,-8.625,-14.4188,39.8438,,adl
12.782587,-4.2368,2.443,2.4369,0.1153,-0.9147,0.5326,-8.625,-14.4188,39.8438,,adl
12.784481,-4.2368,2.443,2.4369,0.1153,-0.9147,0.5326,-7.7438,-15.3375,39.3938,,adl
12.819353,-4.2368,2.443,2.4369,1.0398,-0.3918,0.7871,-7.7438,-15.3375,39.3938,,adl
12.839526,-4.2368,2.443,2.4369,1.0398,-0.3918,0.7871,-7.7438,-15.3375,39.3938,,adl
12.840844,-4.2368,2.443,2.4369,1.0398,-0.3918,0.7871,-6.5063,-15.525,38.925,,adl
12.860028,-1.3264,0.4894,1.3493,1.0398,-0.3918,0.7871,-6.5063,-15.525,38.925,,adl
12.879311,-1.3264,0.4894,1.3493,1.2709,-1.1478,1.5116,-6.5063,-15.525,38.925,,adl
12.90009,-1.3264,0.4894,1.3493,1.2709,-1.1478,1.5116,-6.5063,-15.525,38.925,,adl
12.902069,-1.3264,0.4894,1.3493,1.2709,-1.1478,1.5116,-5.1938,-14.5875,38.7563,,adl
12.923647,1.4094,-3.0275,-1.0426,1.2709,-1.1478,1.5116,-5.1938,-14.5875,38.7563,,adl
12.942643,1.4094,-3.0275,-1.0426,1.7249,-0.38,1.3221,-5.1938,-14.5875,38.7563,,adl
12.962708,1.4094,-3.0275,-1.0426,1.7249,-0.38,1.3221,-3.1313,-12.9375,38.9625,,adl
12.965675,1.4094,-3.0275,-1.0426,1.7249,-0.38,1.3221,-3.1313,-12.9375,38.9625,,adl
12.98334,1.969,-2.9337,-1.1463,1.7249,-0.38,1.3221,-3.1313,-12.9375,38.9625,,adl
13.003544,1.969,-2.9337,-1.1463,1.7072,-0.5412,1.5014,-3.1313,-12.9375,38.9625,,adl
13.023543,1.969,-2.9337,-1.1463,1.7072,-0.5412,1.5014,-3.1313,-12.9375,38.9625,,adl
13.025245,1.969,-2.9337,-1.1463,1.7072,-0.5412,1.5014,-0.375,-10.8938,38.9813,,adl
13.06371,1.969,-2.9337,-1.1463,1.4175,-0.2601,0.9742,-0.375,-10.8938,38.9813,,adl
13.065788,2.318,-3.0932,-3.1668,1.4175,-0.2601,0.9742,-0.375,-10.8938,38.9813,,adl
13.083274,2.318,-3.0932,-3.1668,1.4175,-0.2601,0.9742,-0.375,-10.8938,38.9813,,adl
13.084657,2.318,-3.0932,-3.1668,1.4175,-0.2601,0.9742,2.6438,-8.2125,39.225,,adl
13.124201,2.318,-3.0932,-3.1668,1.4669,0.0755,1.0984,2.6438,-8.2125,39.225,,adl
13.126085,2.706,-2.179,-2.5153,1.4669,0.0755,1.0984,2.6438,-8.2125,39.225,,adl
13.141691,2.706,-2.179,-2.5153,1.4669,0.0755,1.0984,5.6438,-4.8938,39.5063,,adl
13.14344,2.706,-2.179,-2.5153,1.4669,0.0755,1.0984,5.6438,-4.8938,39.5063,,adl
13.185833,2.706,-2.179,-2.5153,0.8705,-0.2625,0.7232,5.6438,-4.8938,39.5063,,adl
13.187953,3.502,-1.9051,-3.6373,0.8705,-0.2625,0.7232,5.6438,-4.8938,39.5063,,adl
13.202099,3.502,-1.9051,-3.6373,0.8705,-0.2625,0.7232,8.3813,-0.975,39.825,,adl
13.203954,3.502,-1.9051,-3.6373,0.8705,-0.2625,0.7232,8.3813,-0.975,39.825,,adl
13.249793,3.502,-1.9051,-3.6373,0.065,-0.1063,-0.214,8.3813,-0.975,39.825,,adl
13.253188,4.239,-2.1775,-5.2413,0.065,-0.1063,-0.214,8.3813,-0.975,39.825,,adl
13.263823,4.239,-2.1775,-5.2413,0.065,-0.1063,-0.214,10.5563,2.6438,39.975,,adl
13.265429,4.239,-2.1775,-5.2413,0.065,-0.1063,-0.214,10.5563,2.6438,39.975,,adl
13.307552,4.239,-2.1775,-5.2413,-0.7511,-0.1035,-0.9928,10.5563,2.6438,39.975,,adl
13.323432,4.239,-2.1775,-5.2413,-0.7511,-0.1035,-0.9928,12.5063,5.7938,40.2563,,adl
13.326385,4.239,-2.1775,-5.2413,-0.7511,-0.1035,-0.9928,12.5063,5.7938,40.2563,,adl
13.327689,0.3749,-0.9347,-0.6509,-0.7511,-0.1035,-0.9928,12.5063,5.7938,40.2563,,adl
13.370259,0.3749,-0.9347,-0.6509,0.7686,2.1863,1.337,12.5063,5.7938,40.2563,,adl
13.38188,0.3749,-0.9347,-0.6509,0.7686,2.1863,1.337,13.5375,8.175,40.4625,,adl
13.388855,0.3749,-0.9347,-0.6509,0.7686,2.1863,1.337,13.5375,8.175,40.4625,,adl
13.389718,-1.4362,-1.8327,-1.8889,0.7686,2.1863,1.337,13.5375,8.175,40.4625,,adl
13.428525,-1.4362,-1.8327,-1.8889,-0.2719,1.0414,0.4182,13.5375,8.175,40.4625,,adl
13.442554,-1.4362,-1.8327,-1.8889,-0.2719,1.0414,0.4182,13.8188,9.6,40.2563,,adl
13.450803,-1.4362,-1.8327,-1.8889,-0.2719,1.0414,0.4182,13.8188,9.6,40.2563,,adl
13.451749,-1.0776,1.8428,1.64,-0.2719,1.0414,0.4182,13.8188,9.6,40.2563,,adl
13.489971,-1.0776,1.8428,1.64,-1.3049,-0.3854,-0.7384,13.8188,9.6,40.2563,,adl
13.502671,-1.0776,1.8428,1.64,-1.3049,-0.3854,-0.7384,13.3875,10.425,40.4062,,adl
13.509494,-1.0776,1.8428,1.64,-1.3049,-0.3854,-0.7384,13.3875,10.425,40.4062,,adl
13.531813,-0.1179,-0.5397,0.7606,-1.3049,-0.3854,-0.7384,13.3875,10.425,40.4062,,adl
13.551432,-0.1179,-0.5397,0.7606,-1.1634,-0.1932,-0.8172,13.3875,10.425,40.4062,,adl
13.562497,-0.1179,-0.5397,0.7606,-1.1634,-0.1932,-0.8172,12.8438,10.3688,40.6313,,adl
13.572087,-0.1179,-0.5397,0.7606,-1.1634,-0.1932,-0.8172,12.8438,10.3688,40.6313,,adl
13.590829,-0.2869,0.1973,0.4407,-1.1634,-0.1932,-0.8172,12.8438,10.3688,40.6313,,adl
13.611201,-0.2869,0.1973,0.4407,-0.3993,0.3828,-0.4188,12.8438,10.3688,40.6313,,adl
13.622087,-0.2869,0.1973,0.4407,-0.3993,0.3828,-0.4188,12.0563,9.9375,41.0063,,adl
13.631799,-0.2869,0.1973,0.4407,-0.3993,0.3828,-0.4188,12.0563,9.9375,41.0063,,adl
13.651812,-0.7032,0.5418,0.5164,-0.3993,0.3828,-0.4188,12.0563,9.9375,41.0063,,adl
13.672553,-0.7032,0.5418,0.5164,-0.4136,0.2256,-0.3418,12.0563,9.9375,41.0063,,adl
13.682306,-0.7032,0.5418,0.5164,-0.4136,0.2256,-0.3418,10.2938,9.3938,41.7563,,adl
13.692455,-0.7032,0.5418,0.5164,-0.4136,0.2256,-0.3418,10.2938,9.3938,41.7563,,adl
13.713344,-0.7654,0.6059,0.5574,-0.4136,0.2256,-0.3418,10.2938,9.3938,41.7563,,adl
13.733081,-0.7654,0.6059,0.5574,-0.5088,0.0502,-0.2658,10.2938,9.3938,41.7563,,adl
13.741993,-0.7654,0.6059,0.5574,-0.5088,0.0502,-0.2658,9.2438,8.3625,42.1875,,adl
13.753371,-0.7654,0.6059,0.5574,-0.5088,0.0502,-0.2658,9.2438,8.3625,42.1875,,adl
13.794511,-0.7654,0.6059,0.5574,-0.5329,-0.0523,-0.2392,9.2438,8.3625,42.1875,,adl
13.796578,-0.208,-0.1962,0.708,-0.5329,-0.0523,-0.2392,9.2438,8.3625,42.1875,,adl
13.801815,-0.208,-0.1962,0.708,-0.5329,-0.0523,-0.2392,8.2125,7.1063,42.4688,,adl
13.814819,-0.208,-0.1962,0.708,-0.5329,-0.0523,-0.2392,8.2125,7.1063,42.4688,,adl
13.85669,-0.208,-0.1962,0.708,-0.5297,0.0893,-0.2975,8.2125,7.1063,42.4688,,adl
13.860166,-0.4508,0.1564,0.5666,-0.5297,0.0893,-0.2975,8.2125,7.1063,42.4688,,adl
13.862103,-0.4508,0.1564,0.5666,-0.5297,0.0893,-0.2975,7.4438,5.8688,43.05,,adl
13.875963,-0.4508,0.1564,0.5666,-0.5297,0.0893,-0.2975,7.4438,5.8688,43.05,,adl
13.916392,-0.4508,0.1564,0.5666,-0.5542,0.2388,-0.5055,7.4438,5.8688,43.05,,adl
13.91984,-0.66,0.1589,0.5335,-0.5542,0.2388,-0.5055,7.4438,5.8688,43.05,,adl
13.923697,-0.66,0.1589,0.5335,-0.5542,0.2388,-0.5055,7.05,4.35,43.1625,,adl
13.935939,-0.66,0.1589,0.5335,-0.5542,0.2388,-0.5055,7.05,4.35,43.1625,,adl
13.976837,-0.66,0.1589,0.5335,-0.6312,0.2743,-0.8456,7.05,4.35,43.1625,,adl
13.980183,-0.66,0.1589,0.5335,-0.6312,0.2743,-0.8456,6.6938,2.8875,43.275,,adl
13.997466,-0.8016,-0.2547,0.4886,-0.6312,0.2743,-0.8456,6.6938,2.8875,43.275,,adl
14.000055,-0.8016,-0.2547,0.4886,-0.6312,0.2743,-0.8456,6.6938,2.8875,43.275,,adl
14.037647,-0.8016,-0.2547,0.4886,-0.5535,0.5413,-1.0678,6.6938,2.8875,43.275,,adl
14.041394,-0.8016,-0.2547,0.4886,-0.5535,0.5413,-1.0678,6.0,1.5938,43.1625,,adl
14.058337,-0.8016,-0.2547,0.4886,-0.5535,0.5413,-1.0678,6.0,1.5938,43.1625,,adl
14.059479,-1.673,-1.6539,0.6875,-0.5535,0.5413,-1.0678,6.0,1.5938,43.1625,,adl
14.100028,-1.673,-1.6539,0.6875,-0.1964,1.2537,-1.2679,6.0,1.5938,43.1625,,adl
14.102753,-1.673,-1.6539,0.6875,-0.1964,1.2537,-1.2679,4.2938,0.2438,43.6125,,adl
14.119215,-1.673,-1.6539,0.6875,-0.1964,1.2537,-1.2679,4.2938,0.2438,43.6125,,adl
14.120381,-1.7652,-3.4814,2.7171,-0.1964,1.2537,-1.2679,4.2938,0.2438,43.6125,,adl
14.159112,-1.7652,-3.4814,2.7171,0.0326,2.3169,-1.3774,4.2938,0.2438,43.6125,,adl
14.162204,-1.7652,-3.4814,2.7171,0.0326,2.3169,-1.3774,3.2438,-0.7125,43.575,,adl
14.179755,-1.7652,-3.4814,2.7171,0.0326,2.3169,-1.3774,3.2438,-0.7125,43.575,,adl
14.181681,-3.9147,0.3136,4.3295,0.0326,2.3169,-1.3774,3.2438,-0.7125,43.575,,adl
14.22146,-3.9147,0.3136,4.3295,-0.8012,0.5689,-1.2304,3.2438,-0.7125,43.575,,adl
14.223685,-3.9147,0.3136,4.3295,-0.8012,0.5689,-1.2304,1.7438,-1.9313,43.4062,,adl
14.241078,-3.9147,0.3136,4.3295,-0.8012,0.5689,-1.2304,1.7438,-1.9313,43.4062,,adl
14.262012,-5.9821,4.0549,4.106,-0.8012,0.5689,-1.2304,1.7438,-1.9313,43.4062,,adl
14.282487,-5.9821,4.0549,4.106,-0.8012,0.5689,-1.2304,0.0563,-3.3375,43.1813,,adl
14.284925,-5.9821,4.0549,4.106,-0.2812,-1.3722,-0.4533,0.0563,-3.3375,43.1813,,adl
14.304112,-5.9821,4.0549,4.106,-0.2812,-1.3722,-0.4533,0.0563,-3.3375,43.1813,,adl
14.324169,-3.742,3.6584,2.3457,-0.2812,-1.3722,-0.4533,0.0563,-3.3375,43.1813,,adl
14.342902,-3.742,3.6584,2.3457,-0.2812,-1.3722,-0.4533,-0.825,-4.35,42.8438,,adl
14.344046,-3.742,3.6584,2.3457,1.1822,-1.2416,0.4517,-0.825,-4.35,42.8438,,adl
14.363284,-3.742,3.6584,2.3457,1.1822,-1.2416,0.4517,-0.825,-4.35,42.8438,,adl
14.383799,-2.4974,2.0576,-0.7417,1.1822,-1.2416,0.4517,-0.825,-4.35,42.8438,,adl
14.405047,-2.4974,2.0576,-0.7417,1.7192,-1.724,1.6944,-0.825,-4.35,42.8438,,adl
14.407876,-2.4974,2.0576,-0.7417,1.7192,-1.724,1.6944,-1.275,-4.6688,42.75,,adl
14.426482,-2.4974,2.0576,-0.7417,1.7192,-1.724,1.6944,-1.275,-4.6688,42.75,,adl
14.463284,-2.4974,2.0576,-0.7417,1.7192,-1.724,1.6944,-1.125,-4.35,42.45,,adl
14.466276,-2.4974,2.0576,-0.7417,1.8034,-1.249,2.2341,-1.125,-4.35,42.45,,adl
14.46828,-0.9362,-2.0051,-3.7937,1.8034,-1.249,2.2341,-1.125,-4.35,42.45,,adl
14.485121,-0.9362,-2.0051,-3.7937,1.8034,-1.249,2.2341,-1.125,-4.35,42.45,,adl
14.523286,-0.9362,-2.0051,-3.7937,1.8034,-1.249,2.2341,-0.8438,-3.225,42.3,,adl
14.525425,-0.9362,-2.0051,-3.7937,2.6397,0.5682,2.3303,-0.8438,-3.225,42.3,,adl
14.526718,1.3954,-4.3641,-2.8518,2.6397,0.5682,2.3303,-0.8438,-3.225,42.3,,adl
14.546074,1.3954,-4.3641,-2.8518,2.6397,0.5682,2.3303,-0.8438,-3.225,42.3,,adl
14.583154,1.3954,-4.3641,-2.8518,2.6397,0.5682,2.3303,-0.5063,-1.0875,41.9813,,adl
14.586423,1.3954,-4.3641,-2.8518,2.4441,1.045,2.5937,-0.5063,-1.0875,41.9813,,adl
14.589285,4.2313,-5.8264,-2.8544,2.4441,1.045,2.5937,-0.5063,-1.0875,41.9813,,adl
14.605996,4.2313,-5.8264,-2.8544,2.4441,1.045,2.5937,-0.5063,-1.0875,41.9813,,adl
14.642491,4.2313,-5.8264,-2.8544,2.4441,1.045,2.5937,0.4875,1.6688,41.55,,adl
14.64761,4.2313,-5.8264,-2.8544,0.8598,-0.3775,1.4722,0.4875,1.6688,41.55,,adl
14.650065,6.6736,-5.3331,-4.5517,0.8598,-0.3775,1.4722,0.4875,1.6688,41.55,,adl
14.667124,6.6736,-5.3331,-4.5517,0.8598,-0.3775,1.4722,0.4875,1.6688,41.55,,adl
14.70352,6.6736,-5.3331,-4.5517,0.8598,-0.3775,1.4722,2.25,4.9125,41.2875,,adl
14.707749,6.6736,-5.3331,-4.5517,-0.7831,-0.2714,-1.4111,2.25,4.9125,41.2875,,adl
14.72839,6.6736,-5.3331,-4.5517,-0.7831,-0.2714,-1.4111,2.25,4.9125,41.2875,,adl
14.73042,5.363,-3.4183,-2.9617,-0.7831,-0.2714,-1.4111,2.25,4.9125,41.2875,,adl
14.762671,5.363,-3.4183,-2.9617,-0.7831,-0.2714,-1.4111,3.2625,8.1562,41.2688,,adl
14.770024,5.363,-3.4183,-2.9617,-0.208,1.0276,0.0995,3.2625,8.1562,41.2688,,adl
14.789372,5.363,-3.4183,-2.9617,-0.208,1.0276,0.0995,3.2625,8.1562,41.2688,,adl
14.791618,-1.0365,-2.4667,-0.7467,-0.208,1.0276,0.0995,3.2625,8.1562,41.2688,,adl
14.823786,-1.0365,-2.4667,-0.7467,-0.208,1.0276,0.0995,3.9188,11.2125,41.3438,,adl
14.829002,-1.0365,-2.4667,-0.7467,-0.322,0.3617,0.6571,3.9188,11.2125,41.3438,,adl
14.851534,-1.0365,-2.4667,-0.7467,-0.322,0.3617,0.6571,3.9188,11.2125,41.3438,,adl
14.853782,-0.668,0.6147,1.2466,-0.322,0.3617,0.6571,3.9188,11.2125,41.3438,,adl
14.883597,-0.668,0.6147,1.2466,-0.322,0.3617,0.6571,3.6938,13.6875,41.2688,,adl
14.891511,-0.668,0.6147,1.2466,-0.5836,0.5888,-0.5306,3.6938,13.6875,41.2688,,adl
14.911379,-0.668,0.6147,1.2466,-0.5836,0.5888,-0.5306,3.6938,13.6875,41.2688,,adl
14.931303,-1.2801,1.2652,1.4056,-0.5836,0.5888,-0.5306,3.6938,13.6875,41.2688,,adl
14.943518,-1.2801,1.2652,1.4056,-0.5836,0.5888,-0.5306,3.0,15.4125,41.3438,,adl
14.952146,-1.2801,1.2652,1.4056,-1.5538,-0.7645,-0.9112,3.0,15.4125,41.3438,,adl
14.972502,-1.2801,1.2652,1.4056,-1.5538,-0.7645,-0.9112,3.0,15.4125,41.3438,,adl
14.994213,-0.0813,-0.4256,0.3882,-1.5538,-0.7645,-0.9112,3.0,15.4125,41.3438,,adl
15.004522,-0.0813,-0.4256,0.3882,-1.5538,-0.7645,-0.9112,2.3813,15.8625,41.775,,adl
15.012269,-0.0813,-0.4256,0.3882,-0.7835,0.1173,-0.7479,2.3813,15.8625,41.775,,adl
15.034626,-0.0813,-0.4256,0.3882,-0.7835,0.1173,-0.7479,2.3813,15.8625,41.775,,adl
15.055835,-0.5164,0.3798,0.5327,-0.7835,0.1173,-0.7479,2.3813,15.8625,41.775,,adl
15.063092,-0.5164,0.3798,0.5327,-0.7835,0.1173,-0.7479,1.725,15.2625,42.2438,,adl
15.073808,-0.5164,0.3798,0.5327,-0.3068,0.3783,-0.3589,1.725,15.2625,42.2438,,adl
15.094643,-0.5164,0.3798,0.5327,-0.3068,0.3783,-0.3589,1.725,15.2625,42.2438,,adl
15.113694,-0.6219,0.4391,0.6839,-0.3068,0.3783,-0.3589,1.725,15.2625,42.2438,,adl
15.121534,-0.6219,0.4391,0.6839,-0.3068,0.3783,-0.3589,0.8813,14.1,42.8813,,adl
15.134058,-0.6219,0.4391,0.6839,-0.283,0.4471,-0.273,0.8813,14.1,42.8813,,adl
15.155275,-0.6219,0.4391,0.6839,-0.283,0.4471,-0.273,0.8813,14.1,42.8813,,adl
15.184206,-0.6219,0.4391,0.6839,-0.283,0.4471,-0.273,-0.4688,12.4875,43.5563,,adl
15.197292,-0.6219,0.4391,0.6839,-0.4438,0.2143,-0.4614,-0.4688,12.4875,43.5563,,adl
15.20088,-1.1116,0.6296,0.6198,-0.4438,0.2143,-0.4614,-0.4688,12.4875,43.5563,,adl
15.216355,-1.1116,0.6296,0.6198,-0.4438,0.2143,-0.4614,-0.4688,12.4875,43.5563,,adl
15.243043,-1.1116,0.6296,0.6198,-0.4438,0.2143,-0.4614,-1.4062,10.8938,44.1,,adl
15.257369,-0.4882,0.0083,0.5826,-0.4438,0.2143,-0.4614,-1.4062,10.8938,44.1,,adl
15.259377,-0.4882,0.0083,0.5826,-0.534,0.0581,-0.5278,-1.4062,10.8938,44.1,,adl
15.277012,-0.4882,0.0083,0.5826,-0.534,0.0581,-0.5278,-1.4062,10.8938,44.1,,adl
15.302798,-0.4882,0.0083,0.5826,-0.534,0.0581,-0.5278,-2.475,9.0188,44.4563,,adl
15.317376,-0.4882,0.0083,0.5826,-0.3593,0.1997,-0.3666,-2.475,9.0188,44.4563,,adl
15.319049,-0.3893,0.0776,0.3896,-0.3593,0.1997,-0.3666,-2.475,9.0188,44.4563,,adl
15.337546,-0.3893,0.0776,0.3896,-0.3593,0.1997,-0.3666,-2.475,9.0188,44.4563,,adl
15.362854,-0.3893,0.0776,0.3896,-0.3593,0.1997,-0.3666,-3.0938,7.2188,44.9062,,adl
15.379162,-0.3893,0.0776,0.3896,-0.1886,0.3754,-0.2555,-3.0938,7.2188,44.9062,,adl
15.400296,-0.7882,0.0244,0.3017,-0.1886,0.3754,-0.2555,-3.0938,7.2188,44.9062,,adl
15.403348,-0.7882,0.0244,0.3017,-0.1886,0.3754,-0.2555,-3.0938,7.2188,44.9062,,adl
15.424667,-0.7882,0.0244,0.3017,-0.1886,0.3754,-0.2555,-3.825,5.8125,45.2625,,adl
15.441098,-0.7882,0.0244,0.3017,-0.0411,0.6658,-0.3723,-3.825,5.8125,45.2625,,adl
15.463261,-0.7364,-0.2617,0.4203,-0.0411,0.6658,-0.3723,-3.825,5.8125,45.2625,,adl
15.467282,-0.7364,-0.2617,0.4203,-0.0411,0.6658,-0.3723,-3.825,5.8125,45.2625,,adl
15.483945,-0.7364,-0.2617,0.4203,-0.0411,0.6658,-0.3723,-4.9313,4.8938,45.3375,,adl
15.503465,-0.7364,-0.2617,0.4203,0.2374,1.0879,-0.4867,-4.9313,4.8938,45.3375,,adl
15.52112,-0.7364,-0.2617,0.4203,0.2374,1.0879,-0.4867,-4.9313,4.8938,45.3375,,adl
15.523478,-2.3422,-0.9632,0.4271,0.2374,1.0879,-0.4867,-4.9313,4.8938,45.3375,,adl
15.543594,-2.3422,-0.9632,0.4271,0.2374,1.0879,-0.4867,-6.375,4.2938,45.2625,,adl
15.562263,-2.3422,-0.9632,0.4271,0.5257,1.9349,-0.5782,-6.375,4.2938,45.2625,,adl
15.583565,-2.3422,-0.9632,0.4271,0.5257,1.9349,-0.5782,-6.375,4.2938,45.2625,,adl
15.586536,-1.3669,-0.6929,1.9006,0.5257,1.9349,-0.5782,-6.375,4.2938,45.2625,,adl
15.604383,-1.3669,-0.6929,1.9006,0.5257,1.9349,-0.5782,-8.4188,3.6375,44.9813,,adl
15.625088,-1.3669,-0.6929,1.9006,0.11,2.1597,-0.8665,-8.4188,3.6375,44.9813,,adl
15.644321,-1.3669,-0.6929,1.9006,0.11,2.1597,-0.8665,-8.4188,3.6375,44.9813,,adl
15.664238,-1.3669,-0.6929,1.9006,0.11,2.1597,-0.8665,-10.7812,3.2625,44.3438,,adl
15.66847,-1.9142,0.7567,2.1886,0.11,2.1597,-0.8665,-10.7812,3.2625,44.3438,,adl
15.683065,-1.9142,0.7567,2.1886,0.442,2.2594,-0.3759,-10.7812,3.2625,44.3438,,adl
15.703792,-1.9142,0.7567,2.1886,0.442,2.2594,-0.3759,-10.7812,3.2625,44.3438,,adl
15.722257,-1.9142,0.7567,2.1886,0.442,2.2594,-0.3759,-13.5938,3.5438,43.275,,adl
15.726242,-3.2535,3.4961,4.0849,0.442,2.2594,-0.3759,-13.5938,3.5438,43.275,,adl
15.743808,-3.2535,3.4961,4.0849,1.5858,1.7003,1.118,-13.5938,3.5438,43.275,,adl
15.764328,-3.2535,3.4961,4.0849,1.5858,1.7003,1.118,-13.5938,3.5438,43.275,,adl
15.784236,-3.2535,3.4961,4.0849,1.5858,1.7003,1.118,-16.5188,5.1562,41.7938,,adl
15.787352,-0.6999,1.8166,2.1362,1.5858,1.7003,1.118,-16.5188,5.1562,41.7938,,adl
15.805218,-0.6999,1.8166,2.1362,2.5581,1.8735,1.675,-16.5188,5.1562,41.7938,,adl
15.826225,-0.6999,1.8166,2.1362,2.5581,1.8735,1.675,-16.5188,5.1562,41.7938,,adl
15.845414,-0.6999,1.8166,2.1362,2.5581,1.8735,1.675,-19.4438,8.0063,39.525,,adl
15.865482,-0.6999,1.8166,2.1362,2.9216,1.9108,2.5359,-19.4438,8.0063,39.525,,adl
15.867889,0.6176,-1.1742,1.2879,2.9216,1.9108,2.5359,-19.4438,8.0063,39.525,,adl
15.887168,0.6176,-1.1742,1.2879,2.9216,1.9108,2.5359,-19.4438,8.0063,39.525,,adl
15.902697,0.6176,-1.1742,1.2879,2.9216,1.9108,2.5359,-22.1438,12.075,36.225,,adl
15.926702,0.6176,-1.1742,1.2879,2.0164,0.4329,2.4875,-22.1438,12.075,36.225,,adl
15.929464,1.5277,-3.8031,0.2457,2.0164,0.4329,2.4875,-22.1438,12.075,36.225,,adl
15.947221,1.5277,-3.8031,0.2457,2.0164,0.4329,2.4875,-22.1438,12.075,36.225,,adl
15.962315,1.5277,-3.8031,0.2457,2.0164,0.4329,2.4875,-23.8313,16.875,32.3813,,adl
15.987703,3.2967,-4.9638,-1.912,2.0164,0.4329,2.4875,-23.8313,16.875,32.3813,,adl
15.991249,3.2967,-4.9638,-1.912,1.296,-0.4073,1.8052,-23.8313,16.875,32.3813,,adl
16.007303,3.2967,-4.9638,-1.912,1.296,-0.4073,1.8052,-23.8313,16.875,32.3813,,adl
16.024807,3.2967,-4.9638,-1.912,1.296,-0.4073,1.8052,-24.4313,22.1438,28.2938,,adl
16.058824,3.2967,-4.9638,-1.912,1.0895,0.6242,0.4786,-24.4313,22.1438,28.2938,,adl
16.062195,4.8657,-3.5948,-3.2915,1.0895,0.6242,0.4786,-24.4313,22.1438,28.2938,,adl
16.070237,4.8657,-3.5948,-3.2915,1.0895,0.6242,0.4786,-24.4313,22.1438,28.2938,,adl
16.083537,4.8657,-3.5948,-3.2915,1.0895,0.6242,0.4786,-17.9813,11.2875,-3.5813,,adl
16.108243,4.8657,-3.5948,-3.2915,0.7888,1.4823,-0.3233,-17.9813,11.2875,-3.5813,,adl
16.129744,4.8657,-3.5948,-3.2915,0.7888,1.4823,-0.3233,-17.9813,11.2875,-3.5813,,adl
16.131589,2.1728,-1.3381,-1.3826,0.7888,1.4823,-0.3233,-17.9813,11.2875,-3.5813,,adl
16.141688,2.1728,-1.3381,-1.3826,0.7888,1.4823,-0.3233,-17.5125,17.925,-4.0875,,adl
16.171921,2.1728,-1.3381,-1.3826,0.3808,0.8675,-0.2779,-17.5125,17.925,-4.0875,,adl
16.191175,2.1728,-1.3381,-1.3826,0.3808,0.8675,-0.2779,-17.5125,17.925,-4.0875,,adl
16.193217,-0.213,0.6896,0.3886,0.3808,0.8675,-0.2779,-17.5125,17.925,-4.0875,,adl
16.203939,-0.213,0.6896,0.3886,0.3808,0.8675,-0.2779,-16.9875,22.4625,-8.4,,adl
16.231848,-0.213,0.6896,0.3886,0.6297,0.9204,-0.1948,-16.9875,22.4625,-8.4,,adl
16.253409,-0.213,0.6896,0.3886,0.6297,0.9204,-0.1948,-16.9875,22.4625,-8.4,,adl
16.256593,0.3572,-1.2138,-0.3145,0.6297,0.9204,-0.1948,-16.9875,22.4625,-8.4,,adl
16.263393,0.3572,-1.2138,-0.3145,0.6297,0.9204,-0.1948,-16.2563,26.1938,-12.8438,,adl
16.299406,0.3572,-1.2138,-0.3145,1.2073,2.4269,-0.1501,-16.2563,26.1938,-12.8438,,adl
16.311232,0.3572,-1.2138,-0.3145,1.2073,2.4269,-0.1501,-16.2563,26.1938,-12.8438,,adl
16.325147,0.3572,-1.2138,-0.3145,1.2073,2.4269,-0.1501,-22.1438,43.2,6.525,,adl
16.332939,-1.4673,1.1321,-0.1844,1.2073,2.4269,-0.1501,-22.1438,43.2,6.525,,adl
16.351902,-1.4673,1.1321,-0.1844,0.1515,1.0418,-0.0137,-22.1438,43.2,6.525,,adl
16.374742,-1.4673,1.1321,-0.1844,0.1515,1.0418,-0.0137,-22.1438,43.2,6.525,,adl
16.382991,-1.4673,1.1321,-0.1844,0.1515,1.0418,-0.0137,-21.3563,44.3063,3.1125,,adl
16.393146,-1.9872,1.7634,-0.1708,0.1515,1.0418,-0.0137,-21.3563,44.3063,3.1125,,adl
16.414819,-1.9872,1.7634,-0.1708,-0.9486,-0.3562,-0.3156,-21.3563,44.3063,3.1125,,adl
16.433244,-1.9872,1.7634,-0.1708,-0.9486,-0.3562,-0.3156,-21.3563,44.3063,3.1125,,adl
16.442063,-1.9872,1.7634,-0.1708,-0.9486,-0.3562,-0.3156,-21.5438,44.6438,0.5813,,adl
16.453338,0.265,-0.9496,-0.3223,-0.9486,-0.3562,-0.3156,-21.5438,44.6438,0.5813,,adl
16.473426,0.265,-0.9496,-0.3223,-0.7193,0.1802,-0.5253,-21.5438,44.6438,0.5813,,adl
16.495351,0.265,-0.9496,-0.3223,-0.7193,0.1802,-0.5253,-21.5438,44.6438,0.5813,,adl
16.507469,0.265,-0.9496,-0.3223,-0.7193,0.1802,-0.5253,-22.425,44.475,-1.4625,,adl
16.516583,-0.2319,0.0747,-0.512,-0.7193,0.1802,-0.5253,-22.425,44.475,-1.4625,,adl
16.534962,-0.2319,0.0747,-0.512,0.0077,0.7947,0.0253,-22.425,44.475,-1.4625,,adl
16.555522,-0.2319,0.0747,-0.512,0.0077,0.7947,0.0253,-22.425,44.475,-1.4625,,adl
16.562422,-0.2319,0.0747,-0.512,0.0077,0.7947,0.0253,-23.0813,44.175,-3.2625,,adl
16.596072,-0.5047,0.1514,0.1376,0.0077,0.7947,0.0253,-23.0813,44.175,-3.2625,,adl
16.599007,-0.5047,0.1514,0.1376,-0.0987,0.2362,-0.0972,-23.0813,44.175,-3.2625,,adl
16.61649,-0.5047,0.1514,0.1376,-0.0987,0.2362,-0.0972,-23.0813,44.175,-3.2625,,adl
16.622985,-0.5047,0.1514,0.1376,-0.0987,0.2362,-0.0972,-23.4938,43.8938,-4.5188,,adl
16.656469,-0.5047,0.1514,0.1376,0.1285,0.428,-0.1991,-23.4938,43.8938,-4.5188,,adl
16.662602,-0.5925,0.5985,-0.1659,0.1285,0.428,-0.1991,-23.4938,43.8938,-4.5188,,adl
16.675815,-0.5925,0.5985,-0.1659,0.1285,0.428,-0.1991,-23.4938,43.8938,-4.5188,,adl
16.681005,-0.5925,0.5985,-0.1659,0.1285,0.428,-0.1991,-23.85,43.7438,-5.8125,,adl
16.717212,-0.4859,0.4793,-0.1066,0.1285,0.428,-0.1991,-23.85,43.7438,-5.8125,,adl
16.721881,-0.4859,0.4793,-0.1066,0.0298,0.249,-0.2502,-23.85,43.7438,-5.8125,,adl
16.739279,-0.4859,0.4793,-0.1066,0.0298,0.249,-0.2502,-23.85,43.7438,-5.8125,,adl
16.748579,-0.4859,0.4793,-0.1066,0.0298,0.249,-0.2502,-24.1688,43.6125,-6.45,,adl
16.781939,-0.4859,0.4793,-0.1066,-0.0121,0.1418,-0.3148,-24.1688,43.6125,-6.45,,adl
16.800063,-0.4859,0.4793,-0.1066,-0.0121,0.1418,-0.3148,-24.1688,43.6125,-6.45,,adl
16.802507,-0.4378,0.2344,-0.1388,-0.0121,0.1418,-0.3148,-24.1688,43.6125,-6.45,,adl
16.803604,-0.4378,0.2344,-0.1388,-0.0121,0.1418,-0.3148,-24.4688,43.3313,-6.4125,,adl
16.839532,-0.4378,0.2344,-0.1388,-0.0241,0.182,-0.3535,-24.4688,43.3313,-6.4125,,adl
16.859987,-0.4378,0.2344,-0.1388,-0.0241,0.182,-0.3535,-24.4688,43.3313,-6.4125,,adl
16.861456,-0.4651,0.3409,-0.1652,-0.0241,0.182,-0.3535,-24.4688,43.3313,-6.4125,,adl
16.862621,-0.4651,0.3409,-0.1652,-0.0241,0.182,-0.3535,-25.0313,42.8813,-6.1688,,adl
16.899476,-0.4651,0.3409,-0.1652,-0.0742,0.2324,-0.3617,-25.0313,42.8813,-6.1688,,adl
16.91961,-0.1921,0.1507,-0.0682,-0.0742,0.2324,-0.3617,-25.0313,42.8813,-6.1688,,adl
16.921515,-0.1921,0.1507,-0.0682,-0.0742,0.2324,-0.3617,-25.0313,42.8813,-6.1688,,adl
16.922606,-0.1921,0.1507,-0.0682,-0.0742,0.2324,-0.3617,-25.4625,42.675,-6.5625,,adl
16.961086,-0.1921,0.1507,-0.0682,-0.1389,0.2863,-0.3301,-25.4625,42.675,-6.5625,,adl
16.981132,-0.1921,0.1507,-0.0682,-0.1389,0.2863,-0.3301,-25.9875,42.3,-7.1063,,adl
16.982759,-0.1921,0.1507,-0.0682,-0.1389,0.2863,-0.3301,-25.9875,42.3,-7.1063,,adl
16.98344,-0.2072,0.0729,0.0794,-0.1389,0.2863,-0.3301,-25.9875,42.3,-7.1063,,adl
17.021937,-0.2072,0.0729,0.0794,-0.0852,0.3016,-0.4032,-25.9875,42.3,-7.1063,,adl
17.041987,-0.2072,0.0729,0.0794,-0.0852,0.3016,-0.4032,-25.9875,42.3,-7.1063,,adl
17.043438,-0.2072,0.0729,0.0794,-0.0852,0.3016,-0.4032,-26.6063,42.0375,-7.6313,,adl
17.061701,-0.4181,0.0445,0.0796,-0.0852,0.3016,-0.4032,-26.6063,42.0375,-7.6313,,adl
17.082713,-0.4181,0.0445,0.0796,0.0706,0.5739,-0.5711,-26.6063,42.0375,-7.6313,,adl
17.10302,-0.4181,0.0445,0.0796,0.0706,0.5739,-0.5711,-27.3,41.475,-8.2313,,adl
17.106061,-0.4181,0.0445,0.0796,0.0706,0.5739,-0.5711,-27.3,41.475,-8.2313,,adl
17.124555,-0.8655,-0.4527,0.2218,0.0706,0.5739,-0.5711,-27.3,41.475,-8.2313,,adl
17.144856,-0.8655,-0.4527,0.2218,0.0823,0.6272,-0.8147,-27.3,41.475,-8.2313,,adl
17.161889,-0.8655,-0.4527,0.2218,0.0823,0.6272,-0.8147,-28.0875,40.7063,-8.6063,,adl
17.164719,-0.8655,-0.4527,0.2218,0.0823,0.6272,-0.8147,-28.0875,40.7063,-8.6063,,adl
17.184307,-1.2087,0.0817,-0.0284,0.0823,0.6272,-0.8147,-28.0875,40.7063,-8.6063,,adl
17.204574,-1.2087,0.0817,-0.0284,0.0667,1.1866,-0.7944,-28.0875,40.7063,-8.6063,,adl
17.222148,-1.2087,0.0817,-0.0284,0.0667,1.1866,-0.7944,-28.9125,39.75,-9.2625,,adl
17.224721,-1.2087,0.0817,-0.0284,0.0667,1.1866,-0.7944,-28.9125,39.75,-9.2625,,adl
17.245413,-1.1401,0.0722,0.0463,0.0667,1.1866,-0.7944,-28.9125,39.75,-9.2625,,adl
17.266036,-1.1401,0.0722,0.0463,0.1051,1.7195,-0.6212,-28.9125,39.75,-9.2625,,adl
17.282782,-1.1401,0.0722,0.0463,0.1051,1.7195,-0.6212,-29.7375,38.7375,-10.4062,,adl
17.285001,-1.1401,0.0722,0.0463,0.1051,1.7195,-0.6212,-29.7375,38.7375,-10.4062,,adl
17.325797,-1.1401,0.0722,0.0463,0.1292,2.1678,-0.6041,-29.7375,38.7375,-10.4062,,adl
17.327362,-0.9362,0.1352,0.4383,0.1292,2.1678,-0.6041,-29.7375,38.7375,-10.4062,,adl
17.34128,-0.9362,0.1352,0.4383,0.1292,2.1678,-0.6041,-30.4313,37.725,-12.5438,,adl
17.344698,-0.9362,0.1352,0.4383,0.1292,2.1678,-0.6041,-30.4313,37.725,-12.5438,,adl
17.38623,-0.9362,0.1352,0.4383,0.6226,2.4429,-0.3237,-30.4313,37.725,-12.5438,,adl
17.388024,-1.0537,2.4411,1.2321,0.6226,2.4429,-0.3237,-30.4313,37.725,-12.5438,,adl
17.400738,-1.0537,2.4411,1.2321,0.6226,2.4429,-0.3237,-30.5063,36.0938,-15.0375,,adl
17.406577,-1.0537,2.4411,1.2321,0.6226,2.4429,-0.3237,-30.5063,36.0938,-15.0375,,adl
17.446943,-1.0537,2.4411,1.2321,2.0473,3.1985,1.5063,-30.5063,36.0938,-15.0375,,adl
17.448656,-1.2168,2.7562,1.4633,2.0473,3.1985,1.5063,-30.5063,36.0938,-15.0375,,adl
17.461007,-1.2168,2.7562,1.4633,2.0473,3.1985,1.5063,-29.5688,34.6875,-18.4125,,adl
17.467295,-1.2168,2.7562,1.4633,2.0473,3.1985,1.5063,-29.5688,34.6875,-18.4125,,adl
17.509113,-1.2168,2.7562,1.4633,2.9092,3.8335,2.851,-29.5688,34.6875,-18.4125,,adl
17.521276,-1.2168,2.7562,1.4633,2.9092,3.8335,2.851,-27.075,32.5312,-22.4625,,adl
17.528525,-1.2168,2.7562,1.4633,2.9092,3.8335,2.851,-27.075,32.5312,-22.4625,,adl
17.529869,0.4641,-0.9361,1.0598,2.9092,3.8335,2.851,-27.075,32.5312,-22.4625,,adl
17.569438,0.4641,-0.9361,1.0598,2.5883,3.3628,2.3703,-27.075,32.5312,-22.4625,,adl
17.580833,0.4641,-0.9361,1.0598,2.5883,3.3628,2.3703,-23.1938,29.8125,-26.8875,,adl
17.589279,0.4641,-0.9361,1.0598,2.5883,3.3628,2.3703,-23.1938,29.8125,-26.8875,,adl
17.591524,2.4129,-3.1778,1.9263,2.5883,3.3628,2.3703,-23.1938,29.8125,-26.8875,,adl
17.630966,2.4129,-3.1778,1.9263,1.4512,1.4571,1.3757,-23.1938,29.8125,-26.8875,,adl
17.642503,2.4129,-3.1778,1.9263,1.4512,1.4571,1.3757,-19.1063,26.025,-30.5063,,adl
17.652067,2.4129,-3.1778,1.9263,1.4512,1.4571,1.3757,-19.1063,26.025,-30.5063,,adl
17.653068,3.3134,-2.6071,1.0157,1.4512,1.4571,1.3757,-19.1063,26.025,-30.5063,,adl
17.692976,3.3134,-2.6071,1.0157,-0.0699,-1.0052,0.4822,-19.1063,26.025,-30.5063,,adl
17.702266,3.3134,-2.6071,1.0157,-0.0699,-1.0052,0.4822,-14.3813,22.7438,-34.65,,adl
17.712691,3.3134,-2.6071,1.0157,-0.0699,-1.0052,0.4822,-14.3813,22.7438,-34.65,,adl
17.714376,2.0331,-1.6214,-0.712,-0.0699,-1.0052,0.4822,-14.3813,22.7438,-34.65,,adl
17.752609,2.0331,-1.6214,-0.712,0.2566,0.0037,0.2254,-14.3813,22.7438,-34.65,,adl
17.7623,2.0331,-1.6214,-0.712,0.2566,0.0037,0.2254,-9.825,19.6688,-38.4938,,adl
17.772671,2.0331,-1.6214,-0.712,0.2566,0.0037,0.2254,-9.825,19.6688,-38.4938,,adl
17.794185,-1.514,1.1385,0.0282,0.2566,0.0037,0.2254,-9.825,19.6688,-38.4938,,adl
17.813396,-1.514,1.1385,0.0282,0.8189,0.9675,0.8308,-9.825,19.6688,-38.4938,,adl
17.820516,-1.514,1.1385,0.0282,0.8189,0.9675,0.8308,-4.9313,16.5188,-41.325,,adl
17.834392,-1.514,1.1385,0.0282,0.8189,0.9675,0.8308,-4.9313,16.5188,-41.325,,adl
17.854766,-0.9006,0.0981,0.2312,0.8189,0.9675,0.8308,-4.9313,16.5188,-41.325,,adl
17.87506,-0.9006,0.0981,0.2312,-0.1807,-0.1393,-0.0077,-4.9313,16.5188,-41.325,,adl
17.882162,-0.9006,0.0981,0.2312,-0.1807,-0.1393,-0.0077,-0.3188,13.5188,-43.725,,adl
17.894874,-0.9006,0.0981,0.2312,-0.1807,-0.1393,-0.0077,-0.3188,13.5188,-43.725,,adl
17.915859,-0.418,0.5403,-0.2542,-0.1807,-0.1393,-0.0077,-0.3188,13.5188,-43.725,,adl
17.935622,-0.418,0.5403,-0.2542,-0.2599,-0.0566,-0.1445,-0.3188,13.5188,-43.725,,adl
17.943679,-0.418,0.5403,-0.2542,-0.2599,-0.0566,-0.1445,3.3,10.7625,-44.9062,,adl
17.95592,-0.418,0.5403,-0.2542,-0.2599,-0.0566,-0.1445,3.3,10.7625,-44.9062,,adl
17.997313,-0.418,0.5403,-0.2542,-0.4353,-0.1454,-0.1075,3.3,10.7625,-44.9062,,adl
17.999777,-0.0332,0.0476,0.4396,-0.4353,-0.1454,-0.1075,3.3,10.7625,-44.9062,,adl
18.001074,-0.0332,0.0476,0.4396,-0.4353,-0.1454,-0.1075,5.3813,8.775,-45.3938,,adl
18.01665,-0.0332,0.0476,0.4396,-0.4353,-0.1454,-0.1075,5.3813,8.775,-45.3938,,adl
18.057537,-0.0332,0.0476,0.4396,-0.3887,-0.1695,-0.1814,5.3813,8.775,-45.3938,,adl
18.060046,-0.2199,-0.3526,-0.5596,-0.3887,-0.1695,-0.1814,5.3813,8.775,-45.3938,,adl
18.062254,-0.2199,-0.3526,-0.5596,-0.3887,-0.1695,-0.1814,6.0563,7.7625,-45.3375,,adl
18.077206,-0.2199,-0.3526,-0.5596,-0.3887,-0.1695,-0.1814,6.0563,7.7625,-45.3375,,adl
18.118394,-0.2199,-0.3526,-0.5596,0.1658,0.1748,-0.1458,6.0563,7.7625,-45.3375,,adl
18.121073,-0.0983,0.0155,-0.4453,0.1658,0.1748,-0.1458,6.0563,7.7625,-45.3375,,adl
18.122858,-0.0983,0.0155,-0.4453,0.1658,0.1748,-0.1458,6.0938,7.4625,-45.2625,,adl
18.138932,-0.0983,0.0155,-0.4453,0.1658,0.1748,-0.1458,6.0938,7.4625,-45.2625,,adl
18.178678,-0.0983,0.0155,-0.4453,0.3245,0.1535,-0.1266,6.0938,7.4625,-45.2625,,adl
18.18356,-0.2631,0.3335,-0.1043,0.3245,0.1535,-0.1266,6.0938,7.4625,-45.2625,,adl
18.185891,-0.2631,0.3335,-0.1043,0.3245,0.1535,-0.1266,6.3188,7.2938,-45.2438,,adl
18.198782,-0.2631,0.3335,-0.1043,0.3245,0.1535,-0.1266,6.3188,7.2938,-45.2438,,adl
18.240265,-0.2631,0.3335,-0.1043,0.3414,0.1376,-0.1096,6.3188,7.2938,-45.2438,,adl
18.243754,-0.2631,0.3335,-0.1043,0.3414,0.1376,-0.1096,6.7688,7.1813,-45.0938,,adl
18.260578,-0.2631,0.3335,-0.1043,0.3414,0.1376,-0.1096,6.7688,7.1813,-45.0938,,adl
18.262531,-0.1391,-0.0745,-0.0763,0.3414,0.1376,-0.1096,6.7688,7.1813,-45.0938,,adl
18.30149,-0.1391,-0.0745,-0.0763,0.4402,0.1262,-0.1614,6.7688,7.1813,-45.0938,,adl
18.305212,-0.1391,-0.0745,-0.0763,0.4402,0.1262,-0.1614,6.9563,7.1438,-45.0188,,adl
18.320876,-0.1391,-0.0745,-0.0763,0.4402,0.1262,-0.1614,6.9563,7.1438,-45.0188,,adl
18.322431,-0.538,0.3022,-0.3257,0.4402,0.1262,-0.1614,6.9563,7.1438,-45.0188,,adl
18.364797,-0.538,0.3022,-0.3257,0.4402,0.1262,-0.1614,6.8625,7.05,-44.9813,,adl
18.367127,-0.538,0.3022,-0.3257,0.3192,0.1884,-0.0806,6.8625,7.05,-44.9813,,adl
18.382476,-0.538,0.3022,-0.3257,0.3192,0.1884,-0.0806,6.8625,7.05,-44.9813,,adl
18.384402,0.0159,0.201,0.0239,0.3192,0.1884,-0.0806,6.8625,7.05,-44.9813,,adl
18.424176,0.0159,0.201,0.0239,0.2453,0.302,-0.028,6.8625,7.05,-44.9813,,adl
18.427965,0.0159,0.201,0.0239,0.2453,0.302,-0.028,7.1438,6.8813,-45.0,,adl
18.443935,0.0159,0.201,0.0239,0.2453,0.302,-0.028,7.1438,6.8813,-45.0,,adl
18.464534,0.0669,0.173,0.346,0.2453,0.302,-0.028,7.1438,6.8813,-45.0,,adl
18.483008,0.0669,0.173,0.346,0.2453,0.302,-0.028,7.575,6.5625,-44.9062,,adl
18.485266,0.0669,0.173,0.346,0.0663,0.1024,-0.0855,7.575,6.5625,-44.9062,,adl
18.503637,0.0669,0.173,0.346,0.0663,0.1024,-0.0855,7.575,6.5625,-44.9062,,adl
18.523946,-0.1896,0.1293,-0.1343,0.0663,0.1024,-0.0855,7.575,6.5625,-44.9062,,adl
18.542894,-0.1896,0.1293,-0.1343,0.0663,0.1024,-0.0855,8.175,6.15,-44.8313,,adl
18.545541,-0.1896,0.1293,-0.1343,0.1093,0.1407,-0.0901,8.175,6.15,-44.8313,,adl
18.56476,-0.1896,0.1293,-0.1343,0.1093,0.1407,-0.0901,8.175,6.15,-44.8313,,adl
18.585025,0.2465,-0.1189,0.0321,0.1093,0.1407,-0.0901,8.175,6.15,-44.8313,,adl
18.602091,0.2465,-0.1189,0.0321,0.1093,0.1407,-0.0901,8.475,5.5688,-44.8313,,adl
18.606317,0.2465,-0.1189,0.0321,0.2272,0.2458,0.0019,8.475,5.5688,-44.8313,,adl
18.625429,0.2465,-0.1189,0.0321,0.2272,0.2458,0.0019,8.475,5.5688,-44.8313,,adl
18.646126,-0.0085,0.0889,0.0655,0.2272,0.2458,0.0019,8.475,5.5688,-44.8313,,adl
18.66289,-0.0085,0.0889,0.0655,0.2272,0.2458,0.0019,8.8875,4.875,-44.6438,,adl
18.666389,-0.0085,0.0889,0.0655,0.1611,0.155,-0.0397,8.8875,4.875,-44.6438,,adl
18.68699,-0.0085,0.0889,0.0655,0.1611,0.155,-0.0397,8.8875,4.875,-44.6438,,adl
18.722292,-0.0085,0.0889,0.0655,0.1611,0.155,-0.0397,9.1875,4.3125,-44.5875,,adl
18.727287,-0.0085,0.0889,0.0655,0.0447,-0.0253,0.0807,9.1875,4.3125,-44.5875,,adl
18.730362,-0.0428,0.0122,0.1262,0.0447,-0.0253,0.0807,9.1875,4.3125,-44.5875,,adl
18.746929,-0.0428,0.0122,0.1262,0.0447,-0.0253,0.0807,9.1875,4.3125,-44.5875,,adl
18.782854,-0.0428,0.0122,0.1262,0.0447,-0.0253,0.0807,9.4875,3.8813,-44.4375,,adl
18.787717,-0.0428,0.0122,0.1262,0.0407,-0.0005,0.0242,9.4875,3.8813,-44.4375,,adl
18.789939,-0.0532,0.1221,-0.0429,0.0407,-0.0005,0.0242,9.4875,3.8813,-44.4375,,adl
18.808583,-0.0532,0.1221,-0.0429,0.0407,-0.0005,0.0242,9.4875,3.8813,-44.4375,,adl
18.842074,-0.0532,0.1221,-0.0429,0.0407,-0.0005,0.0242,9.8438,3.4688,-44.3063,,adl
18.849212,-0.0532,0.1221,-0.0429,-0.0383,-0.0875,0.0029,9.8438,3.4688,-44.3063,,adl
18.851119,-0.1424,-0.0333,-0.026,-0.0383,-0.0875,0.0029,9.8438,3.4688,-44.3063,,adl
18.869159,-0.1424,-0.0333,-0.026,-0.0383,-0.0875,0.0029,9.8438,3.4688,-44.3063,,adl
18.902899,-0.1424,-0.0333,-0.026,-0.0383,-0.0875,0.0029,9.9938,3.1313,-44.3438,,adl
18.909881,-0.1424,-0.0333,-0.026,0.0437,0.0822,-0.0088,9.9938,3.1313,-44.3438,,adl
18.930163,-0.1424,-0.0333,-0.026,0.0437,0.0822,-0.0088,9.9938,3.1313,-44.3438,,adl
18.931591,0.1263,0.0643,-0.0746,0.0437,0.0822,-0.0088,9.9938,3.1313,-44.3438,,adl
18.962672,0.1263,0.0643,-0.0746,0.0437,0.0822,-0.0088,9.8625,2.8125,-44.2875,,adl
18.970708,0.1263,0.0643,-0.0746,0.1441,0.227,0.1587,9.8625,2.8125,-44.2875,,adl
18.993175,0.1263,0.0643,-0.0746,0.1441,0.227,0.1587,9.8625,2.8125,-44.2875,,adl
18.995747,-0.1538,0.0493,0.0862,0.1441,0.227,0.1587,9.8625,2.8125,-44.2875,,adl
19.023838,-0.1538,0.0493,0.0862,0.1441,0.227,0.1587,9.975,2.55,-44.2875,,adl
19.032738,-0.1538,0.0493,0.0862,0.0269,0.0822,0.0732,9.975,2.55,-44.2875,,adl
19.054282,-0.1538,0.0493,0.0862,0.0269,0.0822,0.0732,9.975,2.55,-44.2875,,adl
19.057073,-0.0312,0.023,-0.0545,0.0269,0.0822,0.0732,9.975,2.55,-44.2875,,adl
19.083119,-0.0312,0.023,-0.0545,0.0269,0.0822,0.0732,10.2938,2.3813,-44.1375,,adl
19.09125,-0.0312,0.023,-0.0545,0.1115,0.2558,0.0633,10.2938,2.3813,-44.1375,,adl
19.114548,-0.0312,0.023,-0.0545,0.1115,0.2558,0.0633,10.2938,2.3813,-44.1375,,adl
19.117256,-0.086,0.0379,-0.0041,0.1115,0.2558,0.0633,10.2938,2.3813,-44.1375,,adl
19.143429,-0.086,0.0379,-0.0041,0.1115,0.2558,0.0633,10.4813,2.3813,-44.175,,adl
19.153142,-0.086,0.0379,-0.0041,0.038,0.0975,0.1555,10.4813,2.3813,-44.175,,adl
19.174355,-0.086,0.0379,-0.0041,0.038,0.0975,0.1555,10.4813,2.3813,-44.175,,adl
19.194012,0.0603,-0.227,0.0318,0.038,0.0975,0.1555,10.4813,2.3813,-44.175,,adl
19.201883,0.0603,-0.227,0.0318,0.038,0.0975,0.1555,10.4625,2.0625,-44.0813,,adl
19.214113,0.0603,-0.227,0.0318,-0.0249,0.0321,0.1084,10.4625,2.0625,-44.0813,,adl
19.234695,0.0603,-0.227,0.0318,-0.0249,0.0321,0.1084,10.4625,2.0625,-44.0813,,adl
19.254942,-0.2187,0.1609,-0.0024,-0.0249,0.0321,0.1084,10.4625,2.0625,-44.0813,,adl
19.262771,-0.2187,0.1609,-0.0024,-0.0249,0.0321,0.1084,10.6125,1.8375,-44.1562,,adl
19.276542,-0.2187,0.1609,-0.0024,-0.2361,-0.1301,-0.2783,10.6125,1.8375,-44.1562,,adl
19.297298,-0.2187,0.1609,-0.0024,-0.2361,-0.1301,-0.2783,10.6125,1.8375,-44.1562,,adl
19.316112,-0.1592,0.4697,-0.0102,-0.2361,-0.1301,-0.2783,10.6125,1.8375,-44.1562,,adl
19.3242,-0.1592,0.4697,-0.0102,-0.2361,-0.1301,-0.2783,10.8375,1.9313,-44.2313,,adl
19.335928,-0.1592,0.4697,-0.0102,-0.2844,-0.1284,-0.1402,10.8375,1.9313,-44.2313,,adl
19.356322,-0.1592,0.4697,-0.0102,-0.2844,-0.1284,-0.1402,10.8375,1.9313,-44.2313,,adl
19.38241,-0.1592,0.4697,-0.0102,-0.2844,-0.1284,-0.1402,10.9313,2.1188,-44.2313,,adl
19.396165,-0.1592,0.4697,-0.0102,-0.1048,-0.1124,0.0941,10.9313,2.1188,-44.2313,,adl
19.398722,0.09,-0.2425,0.004,-0.1048,-0.1124,0.0941,10.9313,2.1188,-44.2313,,adl
19.417029,0.09,-0.2425,0.004,-0.1048,-0.1124,0.0941,10.9313,2.1188,-44.2313,,adl
19.442221,0.09,-0.2425,0.004,-0.1048,-0.1124,0.0941,11.1375,2.2688,-44.25,,adl
19.460668,0.09,-0.2425,0.004,0.0092,-0.0527,-0.0614,11.1375,2.2688,-44.25,,adl
19.462937,-0.0215,-0.1222,-0.0647,0.0092,-0.0527,-0.0614,11.1375,2.2688,-44.25,,adl
19.477443,-0.0215,-0.1222,-0.0647,0.0092,-0.0527,-0.0614,11.1375,2.2688,-44.25,,adl
19.502331,-0.0215,-0.1222,-0.0647,0.0092,-0.0527,-0.0614,11.1188,2.3813,-44.3063,,adl
19.521451,-0.0215,-0.1222,-0.0647,-0.0426,-0.0282,-0.0137,11.1188,2.3813,-44.3063,,adl
19.524696,-0.0047,0.111,0.0176,-0.0426,-0.0282,-0.0137,11.1188,2.3813,-44.3063,,adl
19.538976,-0.0047,0.111,0.0176,-0.0426,-0.0282,-0.0137,11.1188,2.3813,-44.3063,,adl
19.564574,-0.0047,0.111,0.0176,-0.0426,-0.0282,-0.0137,11.1188,2.55,-44.4375,,adl
19.580154,-0.0047,0.111,0.0176,-0.0622,-0.0172,0.0087,11.1188,2.55,-44.4375,,adl
19.582862,-0.0352,-0.191,0.0063,-0.0622,-0.0172,0.0087,11.1188,2.55,-44.4375,,adl
19.600434,-0.0352,-0.191,0.0063,-0.0622,-0.0172,0.0087,11.1188,2.55,-44.4375,,adl
19.623829,-0.0352,-0.191,0.0063,-0.0622,-0.0172,0.0087,10.9313,2.775,-44.4375,,adl
19.640388,-0.0352,-0.191,0.0063,-0.2133,-0.2068,-0.3294,10.9313,2.775,-44.4375,,adl
19.663663,-0.0352,-0.191,0.0063,-0.2133,-0.2068,-0.3294,10.9313,2.775,-44.4375,,adl
19.666161,0.3689,-0.7901,-0.0088,-0.2133,-0.2068,-0.3294,10.9313,2.775,-44.4375,,adl
19.68208,0.3689,-0.7901,-0.0088,-0.2133,-0.2068,-0.3294,10.9125,3.3188,-44.475,,adl
19.703877,0.3689,-0.7901,-0.0088,-0.3959,-0.1493,-1.1682,10.9125,3.3188,-44.475,,adl
19.723303,0.3689,-0.7901,-0.0088,-0.3959,-0.1493,-1.1682,10.9125,3.3188,-44.475,,adl
19.724761,-0.3523,-0.3793,0.0054,-0.3959,-0.1493,-1.1682,10.9125,3.3188,-44.475,,adl
19.742139,-0.3523,-0.3793,0.0054,-0.3959,-0.1493,-1.1682,10.6875,4.0312,-44.5312,,adl
19.764222,-0.3523,-0.3793,0.0054,-0.671,-0.0794,-1.1522,10.6875,4.0312,-44.5312,,adl
19.784034,-0.3523,-0.3793,0.0054,-0.671,-0.0794,-1.1522,10.6875,4.0312,-44.5312,,adl
19.786502,-0.5113,0.0146,0.2558,-0.671,-0.0794,-1.1522,10.6875,4.0312,-44.5312,,adl
19.802587,-0.5113,0.0146,0.2558,-0.671,-0.0794,-1.1522,10.35,4.8563,-44.55,,adl
19.823329,-0.5113,0.0146,0.2558,-0.6422,-0.0587,-1.552,10.35,4.8563,-44.55,,adl
19.843349,-0.5113,0.0146,0.2558,-0.6422,-0.0587,-1.552,10.35,4.8563,-44.55,,adl
19.863462,-0.5113,0.0146,0.2558,-0.6422,-0.0587,-1.552,9.975,5.8688,-44.4563,,adl
19.86635,-0.999,0.5052,0.0626,-0.6422,-0.0587,-1.552,9.975,5.8688,-44.4563,,adl
19.884575,-0.999,0.5052,0.0626,-0.5736,-0.047,-1.4454,9.975,5.8688,-44.4563,,adl
19.905201,-0.999,0.5052,0.0626,-0.5736,-0.047,-1.4454,9.975,5.8688,-44.4563,,adl
19.9291,-0.999,0.5052,0.0626,-0.5736,-0.047,-1.4454,9.525,7.3875,-44.4563,,adl
19.931236,-0.2571,-0.3256,0.052,-0.5736,-0.047,-1.4454,9.525,7.3875,-44.4563,,adl
19.945312,-0.2571,-0.3256,0.052,-0.9539,-0.2017,-0.9737,9.525,7.3875,-44.4563,,adl
19.967449,-0.2571,-0.3256,0.052,-0.9539,-0.2017,-0.9737,9.525,7.3875,-44.4563,,adl
19.984197,-0.2571,-0.3256,0.052,-0.9539,-0.2017,-0.9737,8.7938,9.2438,-44.175,,adl
19.987404,-0.3001,0.0862,0.0419,-0.9539,-0.2017,-0.9737,8.7938,9.2438,-44.175,,adl
20.007619,-0.3001,0.0862,0.0419,-1.0093,-0.3941,-0.2182,8.7938,9.2438,-44.175,,adl
20.03031,-0.3001,0.0862,0.0419,-1.0093,-0.3941,-0.2182,8.7938,9.2438,-44.175,,adl
20.043286,-0.3001,0.0862,0.0419,-1.0093,-0.3941,-0.2182,7.8563,11.3625,-43.725,,adl
20.046917,0.6936,-0.4065,0.1112,-1.0093,-0.3941,-0.2182,7.8563,11.3625,-43.725,,adl
20.067662,0.6936,-0.4065,0.1112,-0.5726,-0.2607,-0.0493,7.8563,11.3625,-43.725,,adl
20.089526,0.6936,-0.4065,0.1112,-0.5726,-0.2607,-0.0493,7.8563,11.3625,-43.725,,adl
20.103247,0.6936,-0.4065,0.1112,-0.5726,-0.2607,-0.0493,6.9938,13.6875,-43.3125,,adl
20.130306,0.6936,-0.4065,0.1112,-0.2844,-0.2522,-0.3979,6.9938,13.6875,-43.3125,,adl
20.13433,0.3127,-0.7714,-0.0942,-0.2844,-0.2522,-0.3979,6.9938,13.6875,-43.3125,,adl
20.148174,0.3127,-0.7714,-0.0942,-0.2844,-0.2522,-0.3979,6.9938,13.6875,-43.3125,,adl
20.162941,0.3127,-0.7714,-0.0942,-0.2844,-0.2522,-0.3979,5.925,15.9938,-42.8063,,adl
20.191461,0.3127,-0.7714,-0.0942,-0.1487,-0.3824,-0.7226,5.925,15.9938,-42.8063,,adl
20.195398,-0.2029,-0.65,-0.1936,-0.1487,-0.3824,-0.7226,5.925,15.9938,-42.8063,,adl
20.210934,-0.2029,-0.65,-0.1936,-0.1487,-0.3824,-0.7226,5.925,15.9938,-42.8063,,adl
20.223684,-0.2029,-0.65,-0.1936,-0.1487,-0.3824,-0.7226,4.65,18.1688,-42.4125,,adl
20.252352,-0.2029,-0.65,-0.1936,-0.1892,-0.2625,-0.7124,4.65,18.1688,-42.4125,,adl
20.255786,-0.7743,0.041,-0.1278,-0.1892,-0.2625,-0.7124,4.65,18.1688,-42.4125,,adl
20.271431,-0.7743,0.041,-0.1278,-0.1892,-0.2625,-0.7124,4.65,18.1688,-42.4125,,adl
20.284527,-0.7743,0.041,-0.1278,-0.1892,-0.2625,-0.7124,3.2438,20.0063,-41.775,,adl
20.313132,-0.7743,0.041,-0.1278,-0.1683,-0.1932,-0.6169,3.2438,20.0063,-41.775,,adl
20.334271,-0.7743,0.041,-0.1278,-0.1683,-0.1932,-0.6169,3.2438,20.0063,-41.775,,adl
20.335644,0.4485,0.1395,0.338,-0.1683,-0.1932,-0.6169,3.2438,20.0063,-41.775,,adl
20.342071,0.4485,0.1395,0.338,-0.1683,-0.1932,-0.6169,1.6125,21.4313,-41.2313,,adl
20.371593,0.4485,0.1395,0.338,0.1434,-0.0609,-0.7816,1.6125,21.4313,-41.2313,,adl
20.393877,-0.5342,1.0316,0.0243,0.1434,-0.0609,-0.7816,1.6125,21.4313,-41.2313,,adl
20.395973,-0.5342,1.0316,0.0243,0.1434,-0.0609,-0.7816,1.6125,21.4313,-41.2313,,adl
20.403081,-0.5342,1.0316,0.0243,0.1434,-0.0609,-0.7816,0.0563,22.6313,-40.6313,,adl
20.433918,-0.5342,1.0316,0.0243,-0.316,0.034,-0.3254,0.0563,22.6313,-40.6313,,adl
20.453861,-0.5342,1.0316,0.0243,-0.316,0.034,-0.3254,0.0563,22.6313,-40.6313,,adl
20.455571,0.0095,1.2698,0.0526,-0.316,0.034,-0.3254,0.0563,22.6313,-40.6313,,adl
20.460575,0.0095,1.2698,0.0526,-0.316,0.034,-0.3254,-1.4625,23.3625,-40.2938,,adl
20.494262,0.0095,1.2698,0.0526,-0.3511,0.0489,-0.3116,-1.4625,23.3625,-40.2938,,adl
20.513856,0.0095,1.2698,0.0526,-0.3511,0.0489,-0.3116,-1.4625,23.3625,-40.2938,,adl
20.515634,0.4718,0.9862,0.6652,-0.3511,0.0489,-0.3116,-1.4625,23.3625,-40.2938,,adl
20.523284,0.4718,0.9862,0.6652,-0.3511,0.0489,-0.3116,-2.6813,24.0375,-40.0875,,adl
20.555934,0.4718,0.9862,0.6652,0.0652,0.0059,-0.4987,-2.6813,24.0375,-40.0875,,adl
20.575263,0.4718,0.9862,0.6652,0.0652,0.0059,-0.4987,-2.6813,24.0375,-40.0875,,adl
20.582274,0.4718,0.9862,0.6652,0.0652,0.0059,-0.4987,-4.125,24.3938,-39.975,,adl
20.594562,-0.0105,0.159,0.1684,0.0652,0.0059,-0.4987,-4.125,24.3938,-39.975,,adl
20.617072,-0.0105,0.159,0.1684,-0.1783,0.0182,-0.4547,-4.125,24.3938,-39.975,,adl
