time,ax,ay,az,wx,wy,wz,Bx,By,Bz,Unnamed: 10,label
0.112984,0.0,0.0,0.0,0.0,0.0,0.0,-2.6438,-8.4375,-28.6875,,adl
0.173024,0.0,0.0,0.0,0.0,0.0,0.0,-20.325,-22.725,-8.175,,adl
0.184829,0.0,0.0,0.0,0.0003,-0.0033,0.0013,-20.325,-22.725,-8.175,,adl
0.228048,0.0,0.0,0.0,0.0003,-0.0033,0.0013,-20.325,-22.725,-8.175,,adl
0.233264,0.0,0.0,0.0,0.0003,-0.0033,0.0013,-22.5563,-27.1313,-9.1313,,adl
0.247346,0.0,0.0,0.0,0.0003,-0.0059,0.0027,-22.5563,-27.1313,-9.1313,,adl
0.288657,0.0,0.0,0.0,0.0003,-0.0059,0.0027,-22.5563,-27.1313,-9.1313,,adl
0.293642,0.0,0.0,0.0,0.0003,-0.0059,0.0027,-23.925,-29.3813,-9.6188,,adl
0.307298,0.0,0.0,0.0,0.0009,-0.0051,0.0024,-23.925,-29.3813,-9.6188,,adl
0.329368,0.0,0.0,0.0,0.0009,-0.0051,0.0024,-23.925,-29.3813,-9.6188,,adl
0.348659,0.0,0.0,0.0,0.0009,-0.0051,0.0024,-23.925,-29.3813,-9.6188,,adl
0.351062,0.0,0.0,0.0,0.0009,-0.0051,0.0024,-24.6563,-30.45,-9.975,,adl
0.370588,0.0,0.0,0.0,-0.0033,0.0067,0.0003,-24.6563,-30.45,-9.975,,adl
0.388978,-0.0002,0.0066,0.0,-0.0033,0.0067,0.0003,-24.6563,-30.45,-9.975,,adl
0.408962,-0.0002,0.0066,0.0,-0.0033,0.0067,0.0003,-24.6563,-30.45,-9.975,,adl
0.411064,-0.0002,0.0066,0.0,-0.0033,0.0067,0.0003,-25.0125,-31.1813,-9.9375,,adl
0.429307,-0.0002,0.0066,0.0,0.0056,-0.0076,0.0095,-25.0125,-31.1813,-9.9375,,adl
0.471677,-0.0002,0.0066,0.0,0.0056,-0.0076,0.0095,-25.0125,-31.1813,-9.9375,,adl
0.473944,-0.0285,-0.022,0.0115,0.0056,-0.0076,0.0095,-25.0125,-31.1813,-9.9375,,adl
0.47617,-0.0285,-0.022,0.0115,0.0056,-0.0076,0.0095,-25.3313,-31.8375,-10.0875,,adl
0.489622,-0.0285,-0.022,0.0115,-0.0027,0.0013,-0.0051,-25.3313,-31.8375,-10.0875,,adl
0.532253,-0.0285,-0.022,0.0115,-0.0027,0.0013,-0.0051,-25.3313,-31.8375,-10.0875,,adl
0.534272,-0.0285,-0.022,0.0115,-0.0027,0.0013,-0.0051,-25.6125,-32.2688,-10.3875,,adl
0.536653,0.0371,0.0512,-0.0137,-0.0027,0.0013,-0.0051,-25.6125,-32.2688,-10.3875,,adl
0.552651,0.0371,0.0512,-0.0137,-0.0055,-0.0012,-0.0037,-25.6125,-32.2688,-10.3875,,adl
0.594995,0.0371,0.0512,-0.0137,-0.0055,-0.0012,-0.0037,-27.2813,-35.5125,-11.0813,,adl
0.597549,0.0371,0.0512,-0.0137,-0.0055,-0.0012,-0.0037,-27.2813,-35.5125,-11.0813,,adl
0.59876,-0.0253,-0.0082,0.0064,-0.0055,-0.0012,-0.0037,-27.2813,-35.5125,-11.0813,,adl
0.612203,-0.0253,-0.0082,0.0064,0.0041,0.0045,0.0037,-27.2813,-35.5125,-11.0813,,adl
0.653561,-0.0253,-0.0082,0.0064,0.0041,0.0045,0.0037,-27.2813,-35.5125,-11.0813,,adl
0.654726,0.0114,-0.0163,0.0034,0.0041,0.0045,0.0037,-27.2813,-35.5125,-11.0813,,adl
0.65579,0.0114,-0.0163,0.0034,0.0041,0.0045,0.0037,-27.3375,-35.4375,-11.0438,,adl
0.672933,0.0114,-0.0163,0.0034,-0.0012,-0.0012,0.0003,-27.3375,-35.4375,-11.0438,,adl
0.712626,0.0114,-0.0163,0.0034,-0.0012,-0.0012,0.0003,-27.4125,-35.4188,-11.1,,adl
0.714452,0.0114,-0.0163,0.0034,-0.0012,-0.0012,0.0003,-27.4125,-35.4188,-11.1,,adl
0.735583,0.0114,-0.0163,0.0034,0.0031,-0.0104,0.0009,-27.4125,-35.4188,-11.1,,adl
0.737744,-0.0037,-0.0007,0.0024,0.0031,-0.0104,0.0009,-27.4125,-35.4188,-11.1,,adl
0.773268,-0.0037,-0.0007,0.0024,0.0031,-0.0104,0.0009,-27.375,-35.4,-11.1375,,adl
0.776185,-0.0037,-0.0007,0.0024,0.0031,-0.0104,0.0009,-27.375,-35.4,-11.1375,,adl
0.794761,-0.0037,-0.0007,0.0024,-0.0016,-0.0048,-0.0023,-27.375,-35.4,-11.1375,,adl
0.795865,-0.007,0.0034,-0.0109,-0.0016,-0.0048,-0.0023,-27.375,-35.4,-11.1375,,adl
0.832413,-0.007,0.0034,-0.0109,-0.0016,-0.0048,-0.0023,-27.225,-35.3813,-11.0625,,adl
0.835619,-0.007,0.0034,-0.0109,-0.0016,-0.0048,-0.0023,-27.225,-35.3813,-11.0625,,adl
0.856342,-0.007,0.0034,-0.0109,0.0003,0.0005,0.0009,-27.225,-35.3813,-11.0625,,adl
0.858208,0.006,0.0037,0.0016,0.0003,0.0005,0.0009,-27.225,-35.3813,-11.0625,,adl
0.894266,0.006,0.0037,0.0016,0.0003,0.0005,0.0009,-27.3,-35.55,-11.1562,,adl
0.8969,0.006,0.0037,0.0016,0.0003,0.0005,0.0009,-27.3,-35.55,-11.1562,,adl
0.918246,0.006,0.0037,0.0016,0.0009,0.0016,0.002,-27.3,-35.55,-11.1562,,adl
0.93661,-0.0047,-0.008,0.0053,0.0009,0.0016,0.002,-27.3,-35.55,-11.1562,,adl
0.951574,-0.0047,-0.008,0.0053,0.0009,0.0016,0.002,-27.375,-35.55,-11.25,,adl
0.955699,-0.0047,-0.008,0.0053,0.0009,0.0016,0.002,-27.375,-35.55,-11.25,,adl
0.978274,-0.0047,-0.008,0.0053,-0.0001,0.0016,-0.0005,-27.375,-35.55,-11.25,,adl
0.99823,0.0028,0.0027,0.0047,-0.0001,0.0016,-0.0005,-27.375,-35.55,-11.25,,adl
1.012992,0.0028,0.0027,0.0047,-0.0001,0.0016,-0.0005,-27.1688,-35.5875,-11.0625,,adl
1.017957,0.0028,0.0027,0.0047,-0.0001,0.0016,-0.0005,-27.1688,-35.5875,-11.0625,,adl
1.040924,0.0028,0.0027,0.0047,0.0003,-0.0136,-0.0016,-27.1688,-35.5875,-11.0625,,adl
1.058462,-0.03,0.0033,-0.0043,0.0003,-0.0136,-0.0016,-27.1688,-35.5875,-11.0625,,adl
1.071552,-0.03,0.0033,-0.0043,0.0003,-0.0136,-0.0016,-27.1313,-35.55,-11.0813,,adl
1.079858,-0.03,0.0033,-0.0043,0.0003,-0.0136,-0.0016,-27.1313,-35.55,-11.0813,,adl
1.099784,-0.03,0.0033,-0.0043,0.0003,0.0041,0.0005,-27.1313,-35.55,-11.0813,,adl
1.120591,0.0197,0.0025,-0.0059,0.0003,0.0041,0.0005,-27.1313,-35.55,-11.0813,,adl
1.13151,0.0197,0.0025,-0.0059,0.0003,0.0041,0.0005,-27.3,-35.6063,-11.1,,adl
1.141516,0.0197,0.0025,-0.0059,0.0003,0.0041,0.0005,-27.3,-35.6063,-11.1,,adl
1.16343,0.0197,0.0025,-0.0059,-0.0016,0.0041,0.0013,-27.3,-35.6063,-11.1,,adl
1.191665,0.0197,0.0025,-0.0059,-0.0016,0.0041,0.0013,-27.15,-35.55,-11.0063,,adl
1.200915,0.0197,0.0025,-0.0059,-0.0016,0.0041,0.0013,-27.15,-35.55,-11.0063,,adl
1.202264,-0.0071,0.0001,0.0005,-0.0016,0.0041,0.0013,-27.15,-35.55,-11.0063,,adl
1.221346,-0.0071,0.0001,0.0005,0.0024,-0.008,0.0009,-27.15,-35.55,-11.0063,,adl
1.252457,-0.0071,0.0001,0.0005,0.0024,-0.008,0.0009,-27.1875,-35.5312,-11.1188,,adl
1.26246,-0.0071,0.0001,0.0005,0.0024,-0.008,0.0009,-27.1875,-35.5312,-11.1188,,adl
1.263506,-0.0215,-0.0088,0.0104,0.0024,-0.008,0.0009,-27.1875,-35.5312,-11.1188,,adl
1.281507,-0.0215,-0.0088,0.0104,-0.0001,0.0013,0.0003,-27.1875,-35.5312,-11.1188,,adl
1.313525,-0.0215,-0.0088,0.0104,-0.0001,0.0013,0.0003,-27.1875,-35.6063,-11.175,,adl
1.322562,-0.0215,-0.0088,0.0104,-0.0001,0.0013,0.0003,-27.1875,-35.6063,-11.175,,adl
1.323519,0.007,0.0126,-0.0006,-0.0001,0.0013,0.0003,-27.1875,-35.6063,-11.175,,adl
1.34364,0.007,0.0126,-0.0006,-0.0005,-0.0019,-0.0016,-27.1875,-35.6063,-11.175,,adl
1.372064,0.007,0.0126,-0.0006,-0.0005,-0.0019,-0.0016,-27.225,-35.6625,-11.25,,adl
1.384188,0.007,0.0126,-0.0006,-0.0005,-0.0019,-0.0016,-27.225,-35.6625,-11.25,,adl
1.404489,0.007,0.0126,-0.0006,0.0013,0.0024,0.0016,-27.225,-35.6625,-11.25,,adl
1.406511,-0.0072,-0.0002,-0.0084,0.0013,0.0024,0.0016,-27.225,-35.6625,-11.25,,adl
1.434182,-0.0072,-0.0002,-0.0084,0.0013,0.0024,0.0016,-27.0938,-35.6625,-11.175,,adl
1.44519,-0.0072,-0.0002,-0.0084,0.0013,0.0024,0.0016,-27.0938,-35.6625,-11.175,,adl
1.467694,-0.0072,-0.0002,-0.0084,0.0003,0.0016,0.0003,-27.0938,-35.6625,-11.175,,adl
1.469359,0.0059,-0.0053,0.009,0.0003,0.0016,0.0003,-27.0938,-35.6625,-11.175,,adl
1.493166,0.0059,-0.0053,0.009,0.0003,0.0016,0.0003,-27.1688,-35.6063,-11.3063,,adl
1.505089,0.0059,-0.0053,0.009,0.0003,0.0016,0.0003,-27.1688,-35.6063,-11.3063,,adl
1.525469,0.0059,-0.0053,0.009,0.0024,-0.0051,0.002,-27.1688,-35.6063,-11.3063,,adl
1.526742,-0.0122,-0.0005,-0.0033,0.0024,-0.0051,0.002,-27.1688,-35.6063,-11.3063,,adl
1.553483,-0.0122,-0.0005,-0.0033,0.0024,-0.0051,0.002,-27.3375,-35.5688,-11.5312,,adl
1.565449,-0.0122,-0.0005,-0.0033,0.0024,-0.0051,0.002,-27.3375,-35.5688,-11.5312,,adl
1.587061,-0.0122,-0.0005,-0.0033,0.0013,-0.0027,0.0005,-27.3375,-35.5688,-11.5312,,adl
1.589404,-0.0051,-0.0086,0.0015,0.0013,-0.0027,0.0005,-27.3375,-35.5688,-11.5312,,adl
1.612071,-0.0051,-0.0086,0.0015,0.0013,-0.0027,0.0005,-27.225,-35.5125,-11.55,,adl
1.628204,-0.0051,-0.0086,0.0015,0.0013,-0.0027,0.0005,-27.225,-35.5125,-11.55,,adl
1.647535,-0.0051,-0.0086,0.0015,0.0003,-0.0029,-0.0001,-27.225,-35.5125,-11.55,,adl
1.668164,0.0034,0.0063,-0.0052,0.0003,-0.0029,-0.0001,-27.225,-35.5125,-11.55,,adl
1.67212,0.0034,0.0063,-0.0052,0.0003,-0.0029,-0.0001,-27.3563,-35.4563,-11.5688,,adl
1.687227,0.0034,0.0063,-0.0052,0.0003,-0.0029,-0.0001,-27.3563,-35.4563,-11.5688,,adl
1.709118,0.0034,0.0063,-0.0052,0.0013,-0.0029,0.0003,-27.3563,-35.4563,-11.5688,,adl
1.729668,0.0006,-0.0037,0.0053,0.0013,-0.0029,0.0003,-27.3563,-35.4563,-11.5688,,adl
1.732637,0.0006,-0.0037,0.0053,0.0013,-0.0029,0.0003,-27.1875,-35.4188,-11.475,,adl
1.749012,0.0006,-0.0037,0.0053,0.0013,-0.0029,0.0003,-27.1875,-35.4188,-11.475,,adl
1.769708,0.0006,-0.0037,0.0053,0.0016,-0.0012,0.0016,-27.1875,-35.4188,-11.475,,adl
1.790492,-0.0059,-0.0084,0.0056,0.0016,-0.0012,0.0016,-27.1875,-35.4188,-11.475,,adl
1.792889,-0.0059,-0.0084,0.0056,0.0016,-0.0012,0.0016,-27.3188,-35.4938,-11.325,,adl
1.811509,-0.0059,-0.0084,0.0056,0.0016,-0.0012,0.0016,-27.3188,-35.4938,-11.325,,adl
1.829573,-0.0059,-0.0084,0.0056,0.0005,0.0016,0.0016,-27.3188,-35.4938,-11.325,,adl
1.85533,-0.0059,-0.0084,0.0056,0.0005,0.0016,0.0016,-27.2063,-35.4,-11.325,,adl
1.871045,-0.0059,-0.0084,0.0056,0.0005,0.0016,0.0016,-27.2063,-35.4,-11.325,,adl
1.87221,0.0059,-0.002,-0.0021,0.0005,0.0016,0.0016,-27.2063,-35.4,-11.325,,adl
1.89124,0.0059,-0.002,-0.0021,-0.0012,-0.0023,-0.0008,-27.2063,-35.4,-11.325,,adl
1.912364,0.0059,-0.002,-0.0021,-0.0012,-0.0023,-0.0008,-27.075,-35.3438,-11.1375,,adl
1.932514,0.0059,-0.002,-0.0021,-0.0012,-0.0023,-0.0008,-27.075,-35.3438,-11.1375,,adl
1.9335,-0.0059,0.0091,-0.0067,-0.0012,-0.0023,-0.0008,-27.075,-35.3438,-11.1375,,adl
1.953799,-0.0059,0.0091,-0.0067,0.0005,-0.0016,0.0009,-27.075,-35.3438,-11.1375,,adl
1.972752,-0.0059,0.0091,-0.0067,0.0005,-0.0016,0.0009,-27.0938,-35.3813,-11.025,,adl
1.99396,-0.0059,0.0091,-0.0067,0.0005,-0.0016,0.0009,-27.0938,-35.3813,-11.025,,adl
1.995874,-0.0064,-0.0068,-0.0018,0.0005,-0.0016,0.0009,-27.0938,-35.3813,-11.025,,adl
2.013758,-0.0064,-0.0068,-0.0018,0.0016,-0.0012,0.0024,-27.0938,-35.3813,-11.025,,adl
2.033634,-0.0064,-0.0068,-0.0018,0.0016,-0.0012,0.0024,-26.925,-35.5125,-10.8,,adl
2.052811,-0.0064,-0.0068,-0.0018,0.0016,-0.0012,0.0024,-26.925,-35.5125,-10.8,,adl
2.053925,0.0012,-0.0051,0.0087,0.0016,-0.0012,0.0024,-26.925,-35.5125,-10.8,,adl
2.073721,0.0012,-0.0051,0.0087,-0.0008,0.002,-0.0005,-26.925,-35.5125,-10.8,,adl
2.091572,0.0012,-0.0051,0.0087,-0.0008,0.002,-0.0005,-27.1313,-35.5125,-10.9875,,adl
2.11429,0.0012,-0.0051,0.0087,-0.0008,0.002,-0.0005,-27.1313,-35.5125,-10.9875,,adl
2.134922,0.0012,-0.0051,0.0087,0.0003,0.0035,0.0003,-27.1313,-35.5125,-10.9875,,adl
2.136794,-0.0004,0.0018,-0.0104,0.0003,0.0035,0.0003,-27.1313,-35.5125,-10.9875,,adl
2.152043,-0.0004,0.0018,-0.0104,0.0003,0.0035,0.0003,-27.225,-35.6063,-10.8938,,adl
2.17664,-0.0004,0.0018,-0.0104,0.0003,0.0035,0.0003,-27.225,-35.6063,-10.8938,,adl
2.196359,0.0047,-0.0039,0.0069,0.0003,0.0035,0.0003,-27.225,-35.6063,-10.8938,,adl
2.197999,0.0047,-0.0039,0.0069,0.0005,0.0016,0.0005,-27.225,-35.6063,-10.8938,,adl
2.211476,0.0047,-0.0039,0.0069,0.0005,0.0016,0.0005,-27.3188,-35.625,-10.7625,,adl
2.236286,0.0047,-0.0039,0.0069,0.0005,0.0016,0.0005,-27.3188,-35.625,-10.7625,,adl
2.256918,0.0047,-0.0039,0.0069,-0.0001,-0.0016,0.0003,-27.3188,-35.625,-10.7625,,adl
2.257898,-0.0012,0.0024,0.0006,-0.0001,-0.0016,0.0003,-27.3188,-35.625,-10.7625,,adl
2.272695,-0.0012,0.0024,0.0006,-0.0001,-0.0016,0.0003,-27.1875,-35.5875,-11.0063,,adl
2.298952,-0.0012,0.0024,0.0006,-0.0001,-0.0016,0.0003,-27.1875,-35.5875,-11.0063,,adl
2.317879,-0.0012,0.0024,0.0006,0.0013,-0.0005,0.0024,-27.1875,-35.5875,-11.0063,,adl
2.335119,-0.0012,0.0024,0.0006,0.0013,-0.0005,0.0024,-27.2813,-35.5688,-10.9313,,adl
2.338616,-0.0038,-0.0082,0.0033,0.0013,-0.0005,0.0024,-27.2813,-35.5688,-10.9313,,adl
2.36029,-0.0038,-0.0082,0.0033,0.0013,-0.0005,0.0024,-27.2813,-35.5688,-10.9313,,adl
2.377945,-0.0038,-0.0082,0.0033,0.0005,-0.0029,-0.0001,-27.2813,-35.5688,-10.9313,,adl
2.392457,-0.0038,-0.0082,0.0033,0.0005,-0.0029,-0.0001,-27.4313,-35.4938,-11.1938,,adl
2.398395,-0.0047,-0.0046,0.0019,0.0005,-0.0029,-0.0001,-27.4313,-35.4938,-11.1938,,adl
2.419229,-0.0047,-0.0046,0.0019,0.0005,-0.0029,-0.0001,-27.4313,-35.4938,-11.1938,,adl
2.44005,-0.0047,-0.0046,0.0019,0.0005,0.0003,0.0003,-27.4313,-35.4938,-11.1938,,adl
2.451734,-0.0047,-0.0046,0.0019,0.0005,0.0003,0.0003,-27.4688,-35.5688,-11.1938,,adl
2.46041,-0.0031,0.007,-0.0105,0.0005,0.0003,0.0003,-27.4688,-35.5688,-11.1938,,adl
2.480256,-0.0031,0.007,-0.0105,0.0005,0.0003,0.0003,-27.4688,-35.5688,-11.1938,,adl
2.500848,-0.0031,0.007,-0.0105,-0.0005,-0.0016,0.0009,-27.4688,-35.5688,-11.1938,,adl
2.5115,-0.0031,0.007,-0.0105,-0.0005,-0.0016,0.0009,-27.4688,-35.5875,-11.2875,,adl
2.520534,-0.0056,-0.005,0.0013,-0.0005,-0.0016,0.0009,-27.4688,-35.5875,-11.2875,,adl
2.541188,-0.0056,-0.005,0.0013,-0.0005,-0.0016,0.0009,-27.4688,-35.5875,-11.2875,,adl
2.560568,-0.0056,-0.005,0.0013,0.0005,0.0005,0.0013,-27.4688,-35.5875,-11.2875,,adl
2.57312,-0.0056,-0.005,0.0013,0.0005,0.0005,0.0013,-27.2813,-35.7375,-10.8938,,adl
2.602065,-0.0056,-0.005,0.0013,0.0005,0.0005,0.0013,-27.2813,-35.7375,-10.8938,,adl
2.604275,0.0012,-0.0043,0.0015,0.0005,0.0005,0.0013,-27.2813,-35.7375,-10.8938,,adl
2.621571,0.0012,-0.0043,0.0015,-0.0001,-0.0019,0.0003,-27.2813,-35.7375,-10.8938,,adl
2.632185,0.0012,-0.0043,0.0015,-0.0001,-0.0019,0.0003,-27.0375,-35.6625,-10.95,,adl
2.661579,0.0012,-0.0043,0.0015,-0.0001,-0.0019,0.0003,-27.0375,-35.6625,-10.95,,adl
2.66354,-0.0044,-0.0018,-0.0039,-0.0001,-0.0019,0.0003,-27.0375,-35.6625,-10.95,,adl
2.683683,-0.0044,-0.0018,-0.0039,0.0005,-0.0008,0.0005,-27.0375,-35.6625,-10.95,,adl
2.692847,-0.0044,-0.0018,-0.0039,0.0005,-0.0008,0.0005,-26.9813,-35.6813,-11.0063,,adl
2.725438,-0.0044,-0.0018,-0.0039,0.0005,-0.0008,0.0005,-26.9813,-35.6813,-11.0063,,adl
2.727688,-0.009,-0.0047,-0.0007,0.0005,-0.0008,0.0005,-26.9813,-35.6813,-11.0063,,adl
2.748752,-0.009,-0.0047,-0.0007,-0.0001,-0.0023,0.0009,-26.9813,-35.6813,-11.0063,,adl
2.751876,-0.009,-0.0047,-0.0007,-0.0001,-0.0023,0.0009,-27.1313,-35.5688,-10.8563,,adl
2.785699,-0.009,-0.0047,-0.0007,-0.0001,-0.0023,0.0009,-27.1313,-35.5688,-10.8563,,adl
2.804891,-0.009,-0.0047,-0.0007,-0.0001,-0.0019,0.0005,-27.1313,-35.5688,-10.8563,,adl
2.80619,-0.0111,-0.0007,-0.0018,-0.0001,-0.0019,0.0005,-27.1313,-35.5688,-10.8563,,adl
2.81155,-0.0111,-0.0007,-0.0018,-0.0001,-0.0019,0.0005,-27.075,-35.5688,-10.8,,adl
2.846008,-0.0111,-0.0007,-0.0018,-0.0001,-0.0019,0.0005,-27.075,-35.5688,-10.8,,adl
2.866612,-0.0111,-0.0007,-0.0018,0.0003,-0.0008,0.0003,-27.075,-35.5688,-10.8,,adl
2.868478,-0.0001,-0.0058,0.0004,0.0003,-0.0008,0.0003,-27.075,-35.5688,-10.8,,adl
2.871691,-0.0001,-0.0058,0.0004,0.0003,-0.0008,0.0003,-27.1313,-35.7375,-10.6125,,adl
2.908201,-0.0001,-0.0058,0.0004,0.0003,-0.0008,0.0003,-27.1313,-35.7375,-10.6125,,adl
2.926898,-0.0001,-0.0058,0.0004,0.0003,0.0084,0.0013,-27.1313,-35.7375,-10.6125,,adl
2.928781,-0.0013,0.0111,-0.008,0.0003,0.0084,0.0013,-27.1313,-35.7375,-10.6125,,adl
2.930748,-0.0013,0.0111,-0.008,0.0003,0.0084,0.0013,-27.2063,-35.7375,-10.5938,,adl
2.967235,-0.0013,0.0111,-0.008,0.0003,0.0084,0.0013,-27.2063,-35.7375,-10.5938,,adl
2.987184,-0.0013,0.0111,-0.008,-0.0008,0.0031,-0.0008,-27.2063,-35.7375,-10.5938,,adl
2.989518,-0.0006,-0.0012,-0.0002,-0.0008,0.0031,-0.0008,-27.2063,-35.7375,-10.5938,,adl
2.99234,-0.0006,-0.0012,-0.0002,-0.0008,0.0031,-0.0008,-27.3563,-35.6438,-10.5188,,adl
3.026153,-0.0006,-0.0012,-0.0002,-0.0008,0.0031,-0.0008,-27.3563,-35.6438,-10.5188,,adl
3.049186,-0.0006,-0.0012,-0.0002,0.0005,-0.0027,-0.0005,-27.3563,-35.6438,-10.5188,,adl
3.051108,-0.0006,-0.0012,-0.0002,0.0005,-0.0027,-0.0005,-27.3375,-35.6625,-10.6313,,adl
3.069407,-0.0088,-0.002,-0.0098,0.0005,-0.0027,-0.0005,-27.3375,-35.6625,-10.6313,,adl
3.089057,-0.0088,-0.002,-0.0098,0.0005,-0.0027,-0.0005,-27.3375,-35.6625,-10.6313,,adl
3.113491,-0.0088,-0.002,-0.0098,0.0009,-0.0033,0.0005,-27.3375,-35.6625,-10.6313,,adl
3.114876,-0.0088,-0.002,-0.0098,0.0009,-0.0033,0.0005,-27.6,-35.7,-10.8188,,adl
3.129432,0.0027,-0.0008,0.0057,0.0009,-0.0033,0.0005,-27.6,-35.7,-10.8188,,adl
3.151459,0.0027,-0.0008,0.0057,0.0009,-0.0033,0.0005,-27.6,-35.7,-10.8188,,adl
3.169749,0.0027,-0.0008,0.0057,-0.0008,-0.0023,0.0005,-27.6,-35.7,-10.8188,,adl
3.171587,0.0027,-0.0008,0.0057,-0.0008,-0.0023,0.0005,-27.6563,-35.775,-10.7063,,adl
3.189735,-0.0061,-0.0036,-0.0038,-0.0008,-0.0023,0.0005,-27.6563,-35.775,-10.7063,,adl
3.211153,-0.0061,-0.0036,-0.0038,-0.0008,-0.0023,0.0005,-27.6563,-35.775,-10.7063,,adl
3.232332,-0.0061,-0.0036,-0.0038,-0.0005,0.0027,0.0009,-27.6563,-35.775,-10.7063,,adl
3.234341,-0.0061,-0.0036,-0.0038,-0.0005,0.0027,0.0009,-27.5063,-35.9062,-10.725,,adl
3.252381,0.0073,-0.0024,-0.002,-0.0005,0.0027,0.0009,-27.5063,-35.9062,-10.725,,adl
3.273968,0.0073,-0.0024,-0.002,-0.0005,0.0027,0.0009,-27.5063,-35.9062,-10.725,,adl
3.294883,0.0073,-0.0024,-0.002,-0.0005,0.0027,0.0009,-27.5813,-35.9625,-11.025,,adl
3.297372,0.0073,-0.0024,-0.002,0.0005,-0.0097,-0.0027,-27.5813,-35.9625,-11.025,,adl
3.333137,0.0073,-0.0024,-0.002,0.0005,-0.0097,-0.0027,-27.5813,-35.9625,-11.025,,adl
3.33507,-0.0195,-0.0048,0.0032,0.0005,-0.0097,-0.0027,-27.5813,-35.9625,-11.025,,adl
3.354436,-0.0195,-0.0048,0.0032,0.0003,0.0041,0.0009,-27.5813,-35.9625,-11.025,,adl
3.356356,-0.0195,-0.0048,0.0032,0.0003,0.0041,0.0009,-27.6938,-35.85,-11.175,,adl
3.396661,-0.0195,-0.0048,0.0032,0.0003,0.0041,0.0009,-27.6938,-35.85,-11.175,,adl
3.399737,0.0127,-0.0048,-0.0049,0.0003,0.0041,0.0009,-27.6938,-35.85,-11.175,,adl
3.413766,0.0127,-0.0048,-0.0049,0.0003,0.0041,0.0009,-27.6938,-35.8313,-11.1188,,adl
3.416238,0.0127,-0.0048,-0.0049,-0.0001,-0.0008,-0.0001,-27.6938,-35.8313,-11.1188,,adl
3.459441,0.0127,-0.0048,-0.0049,-0.0001,-0.0008,-0.0001,-27.6938,-35.8313,-11.1188,,adl
3.461097,-0.0146,-0.0074,-0.002,-0.0001,-0.0008,-0.0001,-27.6938,-35.8313,-11.1188,,adl
3.477821,-0.0146,-0.0074,-0.002,-0.0001,-0.0008,-0.0001,-27.5813,-35.8313,-11.0438,,adl
3.479434,-0.0146,-0.0074,-0.002,0.0016,-0.0016,0.0003,-27.5813,-35.8313,-11.0438,,adl
3.517155,-0.0146,-0.0074,-0.002,0.0016,-0.0016,0.0003,-27.5813,-35.8313,-11.0438,,adl
3.535092,-0.0146,-0.0074,-0.002,0.0016,-0.0016,0.0003,-27.6188,-35.85,-10.9875,,adl
3.538189,0.0004,-0.0013,-0.0027,0.0016,-0.0016,0.0003,-27.6188,-35.85,-10.9875,,adl
3.538817,0.0004,-0.0013,-0.0027,0.0005,-0.0016,0.0005,-27.6188,-35.85,-10.9875,,adl
3.578852,0.0004,-0.0013,-0.0027,0.0005,-0.0016,0.0005,-27.6188,-35.85,-10.9875,,adl
3.594024,0.0004,-0.0013,-0.0027,0.0005,-0.0016,0.0005,-27.6375,-35.9438,-10.8938,,adl
3.596345,0.0004,-0.0013,-0.0027,-0.0001,-0.0012,0.0005,-27.6375,-35.9438,-10.8938,,adl
3.597441,-0.0027,-0.0069,-0.0025,-0.0001,-0.0012,0.0005,-27.6375,-35.9438,-10.8938,,adl
3.639413,-0.0027,-0.0069,-0.0025,-0.0001,-0.0012,0.0005,-27.6375,-35.9438,-10.8938,,adl
3.654661,-0.0027,-0.0069,-0.0025,-0.0001,-0.0012,0.0005,-27.6375,-35.7563,-10.9125,,adl
3.65805,-0.0027,-0.0069,-0.0025,0.0003,-0.0005,0.0016,-27.6375,-35.7563,-10.9125,,adl
3.658943,0.0081,0.0034,-0.0021,0.0003,-0.0005,0.0016,-27.6375,-35.7563,-10.9125,,adl
3.701004,0.0081,0.0034,-0.0021,0.0003,-0.0005,0.0016,-27.6375,-35.7563,-10.9125,,adl
3.712611,0.0081,0.0034,-0.0021,0.0003,-0.0005,0.0016,-27.7875,-35.9062,-10.7625,,adl
3.722103,0.0081,0.0034,-0.0021,0.0005,-0.0019,0.0005,-27.7875,-35.9062,-10.7625,,adl
3.724099,-0.0064,-0.0071,-0.0015,0.0005,-0.0019,0.0005,-27.7875,-35.9062,-10.7625,,adl
3.763329,-0.0064,-0.0071,-0.0015,0.0005,-0.0019,0.0005,-27.7875,-35.9062,-10.7625,,adl
3.773821,-0.0064,-0.0071,-0.0015,0.0005,-0.0019,0.0005,-27.675,-35.8875,-10.5938,,adl
3.780362,-0.0064,-0.0071,-0.0015,-0.0027,0.0035,-0.0005,-27.675,-35.8875,-10.5938,,adl
3.801467,0.0116,0.0022,-0.0057,-0.0027,0.0035,-0.0005,-27.675,-35.8875,-10.5938,,adl
3.820119,0.0116,0.0022,-0.0057,-0.0027,0.0035,-0.0005,-27.675,-35.8875,-10.5938,,adl
3.83169,0.0116,0.0022,-0.0057,-0.0027,0.0035,-0.0005,-27.6,-35.9813,-10.425,,adl
3.839546,0.0116,0.0022,-0.0057,0.0003,-0.0001,-0.0001,-27.6,-35.9813,-10.425,,adl
3.8614,-0.0081,-0.0041,-0.0018,0.0003,-0.0001,-0.0001,-27.6,-35.9813,-10.425,,adl
3.881399,-0.0081,-0.0041,-0.0018,0.0003,-0.0001,-0.0001,-27.6,-35.9813,-10.425,,adl
3.892326,-0.0081,-0.0041,-0.0018,0.0003,-0.0001,-0.0001,-27.375,-35.925,-10.3125,,adl
3.89951,-0.0081,-0.0041,-0.0018,-0.0008,0.0027,0.0009,-27.375,-35.925,-10.3125,,adl
3.922274,-0.0099,-0.0027,0.0035,-0.0008,0.0027,0.0009,-27.375,-35.925,-10.3125,,adl
3.942001,-0.0099,-0.0027,0.0035,-0.0008,0.0027,0.0009,-27.375,-35.925,-10.3125,,adl
3.952242,-0.0099,-0.0027,0.0035,-0.0008,0.0027,0.0009,-27.3375,-36.1125,-10.2938,,adl
3.963827,-0.0099,-0.0027,0.0035,-0.0008,-0.0005,0.0009,-27.3375,-36.1125,-10.2938,,adl
4.003681,-0.0099,-0.0027,0.0035,-0.0008,-0.0005,0.0009,-27.3375,-36.1125,-10.2938,,adl
4.006792,-0.0085,0.0003,-0.0049,-0.0008,-0.0005,0.0009,-27.3375,-36.1125,-10.2938,,adl
4.015164,-0.0085,0.0003,-0.0049,-0.0008,-0.0005,0.0009,-27.3,-35.9438,-10.35,,adl
4.025126,-0.0085,0.0003,-0.0049,0.0005,-0.0027,0.0009,-27.3,-35.9438,-10.35,,adl
4.068164,-0.0085,0.0003,-0.0049,0.0005,-0.0027,0.0009,-27.3,-35.9438,-10.35,,adl
4.070348,-0.0175,-0.004,-0.0014,0.0005,-0.0027,0.0009,-27.3,-35.9438,-10.35,,adl
4.072103,-0.0175,-0.004,-0.0014,0.0005,-0.0027,0.0009,-27.0938,-35.925,-10.2375,,adl
4.084943,-0.0175,-0.004,-0.0014,-0.0001,-0.0023,-0.0008,-27.0938,-35.925,-10.2375,,adl
4.127007,-0.0175,-0.004,-0.0014,-0.0001,-0.0023,-0.0008,-27.0938,-35.925,-10.2375,,adl
4.130583,0.0016,0.0028,-0.001,-0.0001,-0.0023,-0.0008,-27.0938,-35.925,-10.2375,,adl
4.133075,0.0016,0.0028,-0.001,-0.0001,-0.0023,-0.0008,-26.925,-36.0188,-10.2188,,adl
4.145316,0.0016,0.0028,-0.001,0.0005,-0.0008,-0.0001,-26.925,-36.0188,-10.2188,,adl
4.187229,0.0016,0.0028,-0.001,0.0005,-0.0008,-0.0001,-26.925,-36.0188,-10.2188,,adl
4.189801,-0.0039,0.0026,-0.001,0.0005,-0.0008,-0.0001,-26.925,-36.0188,-10.2188,,adl
4.192113,-0.0039,0.0026,-0.001,0.0005,-0.0008,-0.0001,-26.8688,-35.925,-10.2938,,adl
4.205167,-0.0039,0.0026,-0.001,-0.0001,-0.0001,0.0005,-26.8688,-35.925,-10.2938,,adl
4.248674,-0.0039,0.0026,-0.001,-0.0001,-0.0001,0.0005,-26.8688,-35.925,-10.2938,,adl
4.255256,-0.0039,0.0026,-0.001,-0.0001,-0.0001,0.0005,-26.925,-35.8875,-10.3313,,adl
4.265632,-0.0039,0.0026,-0.001,0.0005,-0.0023,0.0003,-26.925,-35.8875,-10.3313,,adl
4.267697,-0.0038,0.0036,-0.0013,0.0005,-0.0023,0.0003,-26.925,-35.8875,-10.3313,,adl
4.308978,-0.0038,0.0036,-0.0013,0.0005,-0.0023,0.0003,-26.925,-35.8875,-10.3313,,adl
4.313583,-0.0038,0.0036,-0.0013,0.0005,-0.0023,0.0003,-26.8875,-35.8688,-10.4438,,adl
4.328308,-0.0038,0.0036,-0.0013,0.0009,-0.0005,0.0024,-26.8875,-35.8688,-10.4438,,adl
4.329187,-0.005,-0.0053,-0.0029,0.0009,-0.0005,0.0024,-26.8875,-35.8688,-10.4438,,adl
4.371705,-0.005,-0.0053,-0.0029,0.0009,-0.0005,0.0024,-26.8875,-35.8688,-10.4438,,adl
4.373469,-0.005,-0.0053,-0.0029,0.0009,-0.0005,0.0024,-26.9438,-35.85,-10.6313,,adl
4.390722,-0.005,-0.0053,-0.0029,-0.0001,-0.0005,-0.0005,-26.9438,-35.85,-10.6313,,adl
4.392886,-0.0101,0.0002,-0.0003,-0.0001,-0.0005,-0.0005,-26.9438,-35.85,-10.6313,,adl
4.43143,-0.0101,0.0002,-0.0003,-0.0001,-0.0005,-0.0005,-26.9438,-35.85,-10.6313,,adl
4.434261,-0.0101,0.0002,-0.0003,-0.0001,-0.0005,-0.0005,-27.0375,-35.775,-10.7438,,adl
4.448878,-0.0101,0.0002,-0.0003,-0.0012,-0.0027,-0.0012,-27.0375,-35.775,-10.7438,,adl
4.469735,0.0014,0.0117,-0.0037,-0.0012,-0.0027,-0.0012,-27.0375,-35.775,-10.7438,,adl
4.492049,0.0014,0.0117,-0.0037,-0.0012,-0.0027,-0.0012,-27.0375,-35.775,-10.7438,,adl
4.493983,0.0014,0.0117,-0.0037,-0.0012,-0.0027,-0.0012,-27.0375,-35.775,-10.7625,,adl
4.511092,0.0014,0.0117,-0.0037,0.0009,-0.0012,0.0013,-27.0375,-35.775,-10.7625,,adl
4.531251,-0.0191,-0.0136,0.001,0.0009,-0.0012,0.0013,-27.0375,-35.775,-10.7625,,adl
4.550153,-0.0191,-0.0136,0.001,0.0009,-0.0012,0.0013,-27.0375,-35.775,-10.7625,,adl
4.552657,-0.0191,-0.0136,0.001,0.0009,-0.0012,0.0013,-27.1125,-35.85,-10.8188,,adl
4.57057,-0.0191,-0.0136,0.001,-0.0037,0.0052,-0.0023,-27.1125,-35.85,-10.8188,,adl
4.594045,0.0175,0.0131,-0.005,-0.0037,0.0052,-0.0023,-27.1125,-35.85,-10.8188,,adl
4.613518,0.0175,0.0131,-0.005,-0.0037,0.0052,-0.0023,-27.3375,-35.9062,-10.9313,,adl
4.615765,0.0175,0.0131,-0.005,-0.0037,0.0052,-0.0023,-27.3375,-35.9062,-10.9313,,adl
4.63373,0.0175,0.0131,-0.005,-0.0001,0.0027,0.0013,-27.3375,-35.9062,-10.9313,,adl
4.653357,-0.019,-0.0103,0.0091,-0.0001,0.0027,0.0013,-27.3375,-35.9062,-10.9313,,adl
4.6726,-0.019,-0.0103,0.0091,-0.0001,0.0027,0.0013,-27.3375,-36.0,-10.7812,,adl
4.67485,-0.019,-0.0103,0.0091,-0.0001,0.0027,0.0013,-27.3375,-36.0,-10.7812,,adl
4.692936,-0.019,-0.0103,0.0091,-0.0001,-0.0001,0.0003,-27.3375,-36.0,-10.7812,,adl
4.735388,-0.019,-0.0103,0.0091,-0.0001,-0.0001,0.0003,-27.3375,-36.0,-10.7812,,adl
4.738931,-0.019,-0.0103,0.0091,-0.0001,-0.0001,0.0003,-27.4125,-36.0563,-10.7063,,adl
4.741645,-0.0111,-0.0059,0.0008,-0.0001,-0.0001,0.0003,-27.4125,-36.0563,-10.7063,,adl
4.75317,-0.0111,-0.0059,0.0008,-0.0001,-0.0012,0.0005,-27.4125,-36.0563,-10.7063,,adl
4.792887,-0.0111,-0.0059,0.0008,-0.0001,-0.0012,0.0005,-27.3188,-36.0938,-10.6313,,adl
4.79618,-0.0111,-0.0059,0.0008,-0.0001,-0.0012,0.0005,-27.3188,-36.0938,-10.6313,,adl
4.797672,-0.0044,0.0008,0.0032,-0.0001,-0.0012,0.0005,-27.3188,-36.0938,-10.6313,,adl
4.814203,-0.0044,0.0008,0.0032,0.0003,-0.0048,0.0005,-27.3188,-36.0938,-10.6313,,adl
4.853425,-0.0044,0.0008,0.0032,0.0003,-0.0048,0.0005,-27.3563,-36.1688,-10.5938,,adl
4.857947,-0.0044,0.0008,0.0032,0.0003,-0.0048,0.0005,-27.3563,-36.1688,-10.5938,,adl
4.860457,-0.0079,-0.0003,0.0038,0.0003,-0.0048,0.0005,-27.3563,-36.1688,-10.5938,,adl
4.876819,-0.0079,-0.0003,0.0038,-0.0012,0.0005,-0.0005,-27.3563,-36.1688,-10.5938,,adl
4.914878,-0.0079,-0.0003,0.0038,-0.0012,0.0005,-0.0005,-27.2625,-36.1125,-10.5375,,adl
4.918499,-0.0079,-0.0003,0.0038,-0.0012,0.0005,-0.0005,-27.2625,-36.1125,-10.5375,,adl
4.939587,-0.0079,-0.0003,0.0038,0.0003,-0.0023,-0.0005,-27.2625,-36.1125,-10.5375,,adl
4.940812,0.0045,0.0078,-0.0049,0.0003,-0.0023,-0.0005,-27.2625,-36.1125,-10.5375,,adl
4.973946,0.0045,0.0078,-0.0049,0.0003,-0.0023,-0.0005,-27.1875,-36.1688,-10.5938,,adl
4.978806,0.0045,0.0078,-0.0049,0.0003,-0.0023,-0.0005,-27.1875,-36.1688,-10.5938,,adl
4.996819,0.0045,0.0078,-0.0049,0.0003,-0.0027,0.0005,-27.1875,-36.1688,-10.5938,,adl
4.998202,-0.0061,0.0012,-0.0032,0.0003,-0.0027,0.0005,-27.1875,-36.1688,-10.5938,,adl
5.03255,-0.0061,0.0012,-0.0032,0.0003,-0.0027,0.0005,-27.1313,-36.0375,-10.4438,,adl
5.038443,-0.0061,0.0012,-0.0032,0.0003,-0.0027,0.0005,-27.1313,-36.0375,-10.4438,,adl
5.058602,-0.0061,0.0012,-0.0032,0.0009,0.0005,0.0016,-27.1313,-36.0375,-10.4438,,adl
5.061436,-0.0027,-0.0049,0.0,0.0009,0.0005,0.0016,-27.1313,-36.0375,-10.4438,,adl
5.093925,-0.0027,-0.0049,0.0,0.0009,0.0005,0.0016,-26.925,-36.075,-10.3875,,adl
5.098265,-0.0027,-0.0049,0.0,0.0009,0.0005,0.0016,-26.925,-36.075,-10.3875,,adl
5.120442,-0.0027,-0.0049,0.0,0.0005,-0.0037,0.0003,-26.925,-36.075,-10.3875,,adl
5.122746,-0.0037,-0.0057,-0.0062,0.0005,-0.0037,0.0003,-26.925,-36.075,-10.3875,,adl
5.152436,-0.0037,-0.0057,-0.0062,0.0005,-0.0037,0.0003,-26.9063,-36.0188,-10.5375,,adl
5.161011,-0.0037,-0.0057,-0.0062,0.0005,-0.0037,0.0003,-26.9063,-36.0188,-10.5375,,adl
5.179389,-0.0037,-0.0057,-0.0062,0.0005,0.0016,0.0009,-26.9063,-36.0188,-10.5375,,adl
5.200839,-0.01,-0.0064,-0.0016,0.0005,0.0016,0.0009,-26.9063,-36.0188,-10.5375,,adl
5.214073,-0.01,-0.0064,-0.0016,0.0005,0.0016,0.0009,-26.7,-35.9062,-10.4625,,adl
5.220859,-0.01,-0.0064,-0.0016,0.0005,0.0016,0.0009,-26.7,-35.9062,-10.4625,,adl
5.240949,-0.01,-0.0064,-0.0016,-0.0008,-0.0069,-0.0005,-26.7,-35.9062,-10.4625,,adl
5.262273,0.0104,0.0116,-0.0091,-0.0008,-0.0069,-0.0005,-26.7,-35.9062,-10.4625,,adl
5.271523,0.0104,0.0116,-0.0091,-0.0008,-0.0069,-0.0005,-26.7563,-35.8313,-10.4813,,adl
5.281374,0.0104,0.0116,-0.0091,-0.0008,-0.0069,-0.0005,-26.7563,-35.8313,-10.4813,,adl
5.302671,0.0104,0.0116,-0.0091,0.0041,-0.0019,0.0031,-26.7563,-35.8313,-10.4813,,adl
5.321637,-0.0223,-0.0207,0.018,0.0041,-0.0019,0.0031,-26.7563,-35.8313,-10.4813,,adl
5.33155,-0.0223,-0.0207,0.018,0.0041,-0.0019,0.0031,-26.8688,-35.8688,-10.425,,adl
5.342637,-0.0223,-0.0207,0.018,0.0041,-0.0019,0.0031,-26.8688,-35.8688,-10.425,,adl
5.362092,-0.0223,-0.0207,0.018,-0.0023,0.0027,-0.0016,-26.8688,-35.8688,-10.425,,adl
5.393284,-0.0223,-0.0207,0.018,-0.0023,0.0027,-0.0016,-26.85,-35.775,-10.4813,,adl
5.404209,-0.0223,-0.0207,0.018,-0.0023,0.0027,-0.0016,-26.85,-35.775,-10.4813,,adl
5.406745,0.0065,0.0232,-0.0177,-0.0023,0.0027,-0.0016,-26.85,-35.775,-10.4813,,adl
5.422994,0.0065,0.0232,-0.0177,0.0009,0.0003,0.0003,-26.85,-35.775,-10.4813,,adl
5.452384,0.0065,0.0232,-0.0177,0.0009,0.0003,0.0003,-26.7938,-35.7563,-10.4625,,adl
5.463856,0.0065,0.0232,-0.0177,0.0009,0.0003,0.0003,-26.7938,-35.7563,-10.4625,,adl
5.465547,-0.0106,-0.0112,0.0002,0.0009,0.0003,0.0003,-26.7938,-35.7563,-10.4625,,adl
5.483883,-0.0106,-0.0112,0.0002,-0.0001,-0.0008,-0.0001,-26.7938,-35.7563,-10.4625,,adl
5.515183,-0.0106,-0.0112,0.0002,-0.0001,-0.0008,-0.0001,-26.775,-35.8313,-10.425,,adl
5.52517,-0.0106,-0.0112,0.0002,-0.0001,-0.0008,-0.0001,-26.775,-35.8313,-10.425,,adl
5.526403,-0.0067,-0.0011,0.0019,-0.0001,-0.0008,-0.0001,-26.775,-35.8313,-10.425,,adl
5.545422,-0.0067,-0.0011,0.0019,0.0024,-0.0072,0.002,-26.775,-35.8313,-10.425,,adl
5.572151,-0.0067,-0.0011,0.0019,0.0024,-0.0072,0.002,-26.9813,-35.7188,-10.4625,,adl
5.58718,-0.0067,-0.0011,0.0019,0.0024,-0.0072,0.002,-26.9813,-35.7188,-10.4625,,adl
5.589753,-0.0128,-0.0127,-0.0117,0.0024,-0.0072,0.002,-26.9813,-35.7188,-10.4625,,adl
5.605825,-0.0128,-0.0127,-0.0117,0.0031,0.0005,0.0041,-26.9813,-35.7188,-10.4625,,adl
5.63229,-0.0128,-0.0127,-0.0117,0.0031,0.0005,0.0041,-26.925,-35.5875,-10.4062,,adl
5.649555,-0.0128,-0.0127,-0.0117,0.0031,0.0005,0.0041,-26.925,-35.5875,-10.4062,,adl
5.665996,0.0129,0.0103,0.0011,0.0031,0.0005,0.0041,-26.925,-35.5875,-10.4062,,adl
5.667543,0.0129,0.0103,0.0011,-0.0029,0.0037,-0.0037,-26.925,-35.5875,-10.4062,,adl
5.692081,0.0129,0.0103,0.0011,-0.0029,0.0037,-0.0037,-27.0188,-35.7,-10.5375,,adl
5.708998,0.0129,0.0103,0.0011,-0.0029,0.0037,-0.0037,-27.0188,-35.7,-10.5375,,adl
5.727304,0.0129,0.0103,0.0011,0.0037,-0.0093,0.0003,-27.0188,-35.7,-10.5375,,adl
5.729544,0.0079,0.0021,-0.0037,0.0037,-0.0093,0.0003,-27.0188,-35.7,-10.5375,,adl
5.752443,0.0079,0.0021,-0.0037,0.0037,-0.0093,0.0003,-27.0563,-35.6438,-10.575,,adl
5.768328,0.0079,0.0021,-0.0037,0.0037,-0.0093,0.0003,-27.0563,-35.6438,-10.575,,adl
5.790578,0.0079,0.0021,-0.0037,-0.0005,-0.0027,-0.0001,-27.0563,-35.6438,-10.575,,adl
5.793448,-0.021,-0.0235,0.0128,-0.0005,-0.0027,-0.0001,-27.0563,-35.6438,-10.575,,adl
5.813709,-0.021,-0.0235,0.0128,-0.0005,-0.0027,-0.0001,-26.9813,-35.6813,-10.6313,,adl
5.831102,-0.021,-0.0235,0.0128,-0.0005,-0.0027,-0.0001,-26.9813,-35.6813,-10.6313,,adl
5.850057,-0.021,-0.0235,0.0128,0.0009,0.0041,0.0016,-26.9813,-35.6813,-10.6313,,adl
5.869304,0.0168,0.0067,0.0003,0.0009,0.0041,0.0016,-26.9813,-35.6813,-10.6313,,adl
5.871595,0.0168,0.0067,0.0003,0.0009,0.0041,0.0016,-27.0,-35.7,-10.4813,,adl
5.892033,0.0168,0.0067,0.0003,0.0009,0.0041,0.0016,-27.0,-35.7,-10.4813,,adl
5.913298,0.0168,0.0067,0.0003,0.0013,-0.0069,-0.0005,-27.0,-35.7,-10.4813,,adl
5.931296,-0.0162,-0.0079,0.0057,0.0013,-0.0069,-0.0005,-27.0,-35.7,-10.4813,,adl
5.93319,-0.0162,-0.0079,0.0057,0.0013,-0.0069,-0.0005,-27.075,-35.625,-10.4813,,adl
5.954312,-0.0162,-0.0079,0.0057,0.0013,-0.0069,-0.0005,-27.075,-35.625,-10.4813,,adl
5.974144,-0.0162,-0.0079,0.0057,-0.0001,-0.0023,-0.0005,-27.075,-35.625,-10.4813,,adl
5.994547,-0.0162,-0.0079,0.0057,-0.0001,-0.0023,-0.0005,-27.1875,-35.6813,-10.5938,,adl
5.997681,0.0009,0.0006,0.0014,-0.0001,-0.0023,-0.0005,-27.1875,-35.6813,-10.5938,,adl
6.012985,0.0009,0.0006,0.0014,-0.0001,-0.0023,-0.0005,-27.1875,-35.6813,-10.5938,,adl
6.033599,0.0009,0.0006,0.0014,0.0016,-0.004,0.0013,-27.1875,-35.6813,-10.5938,,adl
6.052392,0.0009,0.0006,0.0014,0.0016,-0.004,0.0013,-27.1313,-35.7375,-10.5188,,adl
6.054305,-0.0015,-0.0056,-0.0084,0.0016,-0.004,0.0013,-27.1313,-35.7375,-10.5188,,adl
6.073225,-0.0015,-0.0056,-0.0084,0.0016,-0.004,0.0013,-27.1313,-35.7375,-10.5188,,adl
6.093292,-0.0015,-0.0056,-0.0084,-0.0008,-0.0016,0.0009,-27.1313,-35.7375,-10.5188,,adl
6.113121,-0.0015,-0.0056,-0.0084,-0.0008,-0.0016,0.0009,-27.1875,-35.775,-10.7063,,adl
6.1373,-0.0015,-0.0056,-0.0084,-0.0008,-0.0016,0.0009,-27.1875,-35.775,-10.7063,,adl
6.139424,0.0013,0.0015,-0.0063,-0.0008,-0.0016,0.0009,-27.1875,-35.775,-10.7063,,adl
6.15435,0.0013,0.0015,-0.0063,-0.0001,0.0013,0.0009,-27.1875,-35.775,-10.7063,,adl
6.173767,0.0013,0.0015,-0.0063,-0.0001,0.0013,0.0009,-27.2625,-35.7375,-10.7625,,adl
6.196686,-0.0067,-0.0029,-0.0037,-0.0001,0.0013,0.0009,-27.2625,-35.7375,-10.7625,,adl
6.199249,-0.0067,-0.0029,-0.0037,-0.0001,0.0013,0.0009,-27.2625,-35.7375,-10.7625,,adl
6.216724,-0.0067,-0.0029,-0.0037,-0.0001,-0.0044,-0.0005,-27.2625,-35.7375,-10.7625,,adl
6.231773,-0.0067,-0.0029,-0.0037,-0.0001,-0.0044,-0.0005,-27.2813,-35.7938,-10.7625,,adl
6.257365,-0.0067,-0.0029,-0.0037,-0.0001,-0.0044,-0.0005,-27.2813,-35.7938,-10.7625,,adl
6.258845,-0.0134,-0.0012,0.0019,-0.0001,-0.0044,-0.0005,-27.2813,-35.7938,-10.7625,,adl
6.275378,-0.0134,-0.0012,0.0019,0.0009,-0.0019,0.0009,-27.2813,-35.7938,-10.7625,,adl
6.294006,-0.0134,-0.0012,0.0019,0.0009,-0.0019,0.0009,-27.2813,-35.775,-10.7812,,adl
6.318288,-0.0134,-0.0012,0.0019,0.0009,-0.0019,0.0009,-27.2813,-35.775,-10.7812,,adl
6.338708,-0.0134,-0.0012,0.0019,0.0003,0.0013,0.0003,-27.2813,-35.775,-10.7812,,adl
6.342363,0.0012,-0.0099,-0.0009,0.0003,0.0013,0.0003,-27.2813,-35.775,-10.7812,,adl
6.352925,0.0012,-0.0099,-0.0009,0.0003,0.0013,0.0003,-27.4875,-35.8875,-11.0063,,adl
6.379315,0.0012,-0.0099,-0.0009,0.0003,0.0013,0.0003,-27.4875,-35.8875,-11.0063,,adl
6.397583,0.0012,-0.0099,-0.0009,0.0003,0.0037,0.0003,-27.4875,-35.8875,-11.0063,,adl
6.399261,-0.0049,0.0064,-0.0026,0.0003,0.0037,0.0003,-27.4875,-35.8875,-11.0063,,adl
6.413189,-0.0049,0.0064,-0.0026,0.0003,0.0037,0.0003,-27.5438,-36.1125,-10.9688,,adl
6.439766,-0.0049,0.0064,-0.0026,0.0003,0.0037,0.0003,-27.5438,-36.1125,-10.9688,,adl
6.461769,-0.0049,0.0064,-0.0026,0.0009,-0.0008,0.0009,-27.5438,-36.1125,-10.9688,,adl
6.464193,-0.0024,-0.0055,-0.0049,0.0009,-0.0008,0.0009,-27.5438,-36.1125,-10.9688,,adl
6.473144,-0.0024,-0.0055,-0.0049,0.0009,-0.0008,0.0009,-27.4125,-36.0,-10.9125,,adl
6.499524,-0.0024,-0.0055,-0.0049,0.0009,-0.0008,0.0009,-27.4125,-36.0,-10.9125,,adl
6.519432,-0.0024,-0.0055,-0.0049,0.0003,-0.0033,-0.0001,-27.4125,-36.0,-10.9125,,adl
6.522469,-0.0068,-0.0015,-0.001,0.0003,-0.0033,-0.0001,-27.4125,-36.0,-10.9125,,adl
6.533297,-0.0068,-0.0015,-0.001,0.0003,-0.0033,-0.0001,-27.2813,-35.9625,-10.8938,,adl
6.563203,-0.0068,-0.0015,-0.001,0.0003,-0.0033,-0.0001,-27.2813,-35.9625,-10.8938,,adl
6.581951,-0.0068,-0.0015,-0.001,0.0024,-0.0044,0.0035,-27.2813,-35.9625,-10.8938,,adl
6.594465,-0.0068,-0.0015,-0.001,0.0024,-0.0044,0.0035,-27.4125,-36.1313,-10.6688,,adl
6.602125,-0.0069,-0.0017,0.0001,0.0024,-0.0044,0.0035,-27.4125,-36.1313,-10.6688,,adl
6.621455,-0.0069,-0.0017,0.0001,0.0024,-0.0044,0.0035,-27.4125,-36.1313,-10.6688,,adl
6.64441,-0.0069,-0.0017,0.0001,-0.0005,0.002,0.0003,-27.4125,-36.1313,-10.6688,,adl
6.652035,-0.0069,-0.0017,0.0001,-0.0005,0.002,0.0003,-27.4125,-36.1125,-10.5938,,adl
6.663495,-0.0048,0.0056,-0.0005,-0.0005,0.002,0.0003,-27.4125,-36.1125,-10.5938,,adl
6.681649,-0.0048,0.0056,-0.0005,-0.0005,0.002,0.0003,-27.4125,-36.1125,-10.5938,,adl
6.701877,-0.0048,0.0056,-0.0005,0.0005,-0.0027,-0.0001,-27.4125,-36.1125,-10.5938,,adl
6.714559,-0.0048,0.0056,-0.0005,0.0005,-0.0027,-0.0001,-27.4875,-36.1688,-10.6688,,adl
6.722675,-0.0064,0.0034,-0.01,0.0005,-0.0027,-0.0001,-27.4875,-36.1688,-10.6688,,adl
6.742924,-0.0064,0.0034,-0.01,0.0005,-0.0027,-0.0001,-27.4875,-36.1688,-10.6688,,adl
6.764864,-0.0064,0.0034,-0.01,-0.0001,-0.0012,-0.0005,-27.4875,-36.1688,-10.6688,,adl
6.772804,-0.0064,0.0034,-0.01,-0.0001,-0.0012,-0.0005,-27.5813,-36.1313,-10.65,,adl
6.803392,-0.0064,0.0034,-0.01,-0.0001,-0.0012,-0.0005,-27.5813,-36.1313,-10.65,,adl
6.804896,-0.0024,-0.0065,-0.0031,-0.0001,-0.0012,-0.0005,-27.5813,-36.1313,-10.65,,adl
6.82334,-0.0024,-0.0065,-0.0031,-0.0008,0.0024,0.0003,-27.5813,-36.1313,-10.65,,adl
6.831107,-0.0024,-0.0065,-0.0031,-0.0008,0.0024,0.0003,-27.4125,-35.9813,-10.6313,,adl
6.865423,-0.0024,-0.0065,-0.0031,-0.0008,0.0024,0.0003,-27.4125,-35.9813,-10.6313,,adl
6.868729,0.0013,-0.0036,0.0087,-0.0008,0.0024,0.0003,-27.4125,-35.9813,-10.6313,,adl
6.885242,0.0013,-0.0036,0.0087,0.0003,-0.0027,0.0005,-27.4125,-35.9813,-10.6313,,adl
6.892451,0.0013,-0.0036,0.0087,0.0003,-0.0027,0.0005,-27.3188,-35.9062,-10.65,,adl
6.927448,0.0013,-0.0036,0.0087,0.0003,-0.0027,0.0005,-27.3188,-35.9062,-10.65,,adl
6.93085,-0.0124,-0.0044,-0.005,0.0003,-0.0027,0.0005,-27.3188,-35.9062,-10.65,,adl
6.946186,-0.0124,-0.0044,-0.005,-0.0005,0.0005,0.0005,-27.3188,-35.9062,-10.65,,adl
6.951115,-0.0124,-0.0044,-0.005,-0.0005,0.0005,0.0005,-27.3375,-35.9625,-10.65,,adl
6.988087,-0.0124,-0.0044,-0.005,-0.0005,0.0005,0.0005,-27.3375,-35.9625,-10.65,,adl
6.990486,0.0003,-0.0028,0.0088,-0.0005,0.0005,0.0005,-27.3375,-35.9625,-10.65,,adl
7.006993,0.0003,-0.0028,0.0088,0.0003,-0.0029,0.0009,-27.3375,-35.9625,-10.65,,adl
7.01002,0.0003,-0.0028,0.0088,0.0003,-0.0029,0.0009,-27.525,-35.9813,-10.6688,,adl
7.049104,0.0003,-0.0028,0.0088,0.0003,-0.0029,0.0009,-27.525,-35.9813,-10.6688,,adl
7.067256,0.0003,-0.0028,0.0088,-0.0008,-0.0016,-0.0001,-27.525,-35.9813,-10.6688,,adl
7.06917,-0.0045,0.0004,-0.0072,-0.0008,-0.0016,-0.0001,-27.525,-35.9813,-10.6688,,adl
7.072722,-0.0045,0.0004,-0.0072,-0.0008,-0.0016,-0.0001,-27.2625,-35.85,-10.6125,,adl
7.111785,-0.0045,0.0004,-0.0072,-0.0008,-0.0016,-0.0001,-27.2625,-35.85,-10.6125,,adl
7.128609,-0.0045,0.0004,-0.0072,0.0003,0.0005,0.0005,-27.2625,-35.85,-10.6125,,adl
7.130258,0.0044,0.004,-0.0012,0.0003,0.0005,0.0005,-27.2625,-35.85,-10.6125,,adl
7.132153,0.0044,0.004,-0.0012,0.0003,0.0005,0.0005,-27.2625,-35.9062,-10.5,,adl
7.171808,0.0044,0.004,-0.0012,0.0003,0.0005,0.0005,-27.2625,-35.9062,-10.5,,adl
7.189318,0.0044,0.004,-0.0012,0.0016,-0.0044,0.0016,-27.2625,-35.9062,-10.5,,adl
7.191247,-0.0074,-0.0038,-0.0008,0.0016,-0.0044,0.0016,-27.2625,-35.9062,-10.5,,adl
7.193171,-0.0074,-0.0038,-0.0008,0.0016,-0.0044,0.0016,-27.3188,-36.0,-10.3875,,adl
7.233001,-0.0074,-0.0038,-0.0008,0.0016,-0.0044,0.0016,-27.3188,-36.0,-10.3875,,adl
7.250677,-0.0074,-0.0038,-0.0008,-0.0005,0.0041,0.0003,-27.3188,-36.0,-10.3875,,adl
7.252484,-0.0074,-0.0038,-0.0008,-0.0005,0.0041,0.0003,-27.2813,-36.0188,-10.2938,,adl
7.272654,0.0034,0.001,-0.0016,-0.0005,0.0041,0.0003,-27.2813,-36.0188,-10.2938,,adl
7.290923,0.0034,0.001,-0.0016,-0.0005,0.0041,0.0003,-27.2813,-36.0188,-10.2938,,adl
7.314144,0.0034,0.001,-0.0016,-0.0001,0.0016,0.0003,-27.2813,-36.0188,-10.2938,,adl
7.316605,0.0034,0.001,-0.0016,-0.0001,0.0016,0.0003,-27.3563,-36.3,-10.1063,,adl
7.332535,-0.0059,-0.0011,-0.0017,-0.0001,0.0016,0.0003,-27.3563,-36.3,-10.1063,,adl
7.353387,-0.0059,-0.0011,-0.0017,-0.0001,0.0016,0.0003,-27.3563,-36.3,-10.1063,,adl
7.373798,-0.0059,-0.0011,-0.0017,-0.0001,0.0016,0.0003,-27.4125,-36.2812,-10.125,,adl
7.376854,-0.0059,-0.0011,-0.0017,-0.0001,0.0005,-0.0005,-27.4125,-36.2812,-10.125,,adl
7.392562,-0.0011,-0.0029,-0.0007,-0.0001,0.0005,-0.0005,-27.4125,-36.2812,-10.125,,adl
7.414727,-0.0011,-0.0029,-0.0007,-0.0001,0.0005,-0.0005,-27.4125,-36.2812,-10.125,,adl
7.435135,-0.0011,-0.0029,-0.0007,-0.0001,0.0005,-0.0005,-27.4313,-36.2625,-10.275,,adl
7.438759,-0.0011,-0.0029,-0.0007,0.0003,0.0009,0.002,-27.4313,-36.2625,-10.275,,adl
7.454277,0.0004,-0.0056,0.001,0.0003,0.0009,0.002,-27.4313,-36.2625,-10.275,,adl
7.475644,0.0004,-0.0056,0.001,0.0003,0.0009,0.002,-27.4313,-36.2625,-10.275,,adl
7.494454,0.0004,-0.0056,0.001,0.0003,0.0009,0.002,-27.4688,-36.3,-10.3875,,adl
7.495845,0.0004,-0.0056,0.001,0.0013,-0.0027,0.002,-27.4688,-36.3,-10.3875,,adl
7.537363,0.0004,-0.0056,0.001,0.0013,-0.0027,0.002,-27.4688,-36.3,-10.3875,,adl
7.540555,-0.0065,-0.0078,0.0026,0.0013,-0.0027,0.002,-27.4688,-36.3,-10.3875,,adl
7.551854,-0.0065,-0.0078,0.0026,0.0013,-0.0027,0.002,-27.6188,-36.2625,-10.4813,,adl
7.553374,-0.0065,-0.0078,0.0026,-0.0012,-0.0037,-0.0023,-27.6188,-36.2625,-10.4813,,adl
7.598052,-0.0065,-0.0078,0.0026,-0.0012,-0.0037,-0.0023,-27.6188,-36.2625,-10.4813,,adl
7.601421,-0.0053,0.0113,-0.0063,-0.0012,-0.0037,-0.0023,-27.6188,-36.2625,-10.4813,,adl
7.613295,-0.0053,0.0113,-0.0063,-0.0012,-0.0037,-0.0023,-27.6563,-36.3563,-10.4438,,adl
7.61965,-0.0053,0.0113,-0.0063,-0.0005,-0.0027,-0.0005,-27.6563,-36.3563,-10.4438,,adl
7.660613,-0.0053,0.0113,-0.0063,-0.0005,-0.0027,-0.0005,-27.6563,-36.3563,-10.4438,,adl
7.662271,-0.005,-0.0048,-0.0108,-0.0005,-0.0027,-0.0005,-27.6563,-36.3563,-10.4438,,adl
7.671587,-0.005,-0.0048,-0.0108,-0.0005,-0.0027,-0.0005,-27.4875,-36.225,-10.3688,,adl
7.678054,-0.005,-0.0048,-0.0108,-0.0008,-0.0005,0.0003,-27.4875,-36.225,-10.3688,,adl
7.719726,-0.005,-0.0048,-0.0108,-0.0008,-0.0005,0.0003,-27.4875,-36.225,-10.3688,,adl
7.733699,-0.005,-0.0048,-0.0108,-0.0008,-0.0005,0.0003,-27.4313,-36.2063,-10.4438,,adl
7.736885,-0.005,-0.0048,-0.0108,0.0003,-0.0001,0.0003,-27.4313,-36.2063,-10.4438,,adl
7.73799,-0.0058,0.0017,0.001,0.0003,-0.0001,0.0003,-27.4313,-36.2063,-10.4438,,adl
7.778708,-0.0058,0.0017,0.001,0.0003,-0.0001,0.0003,-27.4313,-36.2063,-10.4438,,adl
7.793758,-0.0058,0.0017,0.001,0.0003,-0.0001,0.0003,-27.3938,-36.15,-10.4438,,adl
7.799856,-0.0058,0.0017,0.001,-0.0001,-0.0033,-0.0012,-27.3938,-36.15,-10.4438,,adl
7.801942,-0.0045,0.0037,-0.0043,-0.0001,-0.0033,-0.0012,-27.3938,-36.15,-10.4438,,adl
7.841748,-0.0045,0.0037,-0.0043,-0.0001,-0.0033,-0.0012,-27.3938,-36.15,-10.4438,,adl
7.853356,-0.0045,0.0037,-0.0043,-0.0001,-0.0033,-0.0012,-27.45,-36.15,-10.425,,adl
7.860497,-0.0045,0.0037,-0.0043,-0.0008,-0.0023,-0.0016,-27.45,-36.15,-10.425,,adl
7.861408,-0.0164,-0.0049,0.0022,-0.0008,-0.0023,-0.0016,-27.45,-36.15,-10.425,,adl
7.902175,-0.0164,-0.0049,0.0022,-0.0008,-0.0023,-0.0016,-27.45,-36.15,-10.425,,adl
7.914149,-0.0164,-0.0049,0.0022,-0.0008,-0.0023,-0.0016,-27.4313,-36.15,-10.4062,,adl
7.920331,-0.0164,-0.0049,0.0022,0.002,-0.0048,0.0013,-27.4313,-36.15,-10.4062,,adl
7.923184,-0.0003,-0.0006,-0.0022,0.002,-0.0048,0.0013,-27.4313,-36.15,-10.4062,,adl
7.963678,-0.0003,-0.0006,-0.0022,0.002,-0.0048,0.0013,-27.4313,-36.15,-10.4062,,adl
7.974121,-0.0003,-0.0006,-0.0022,0.002,-0.0048,0.0013,-27.2438,-36.0375,-10.275,,adl
7.980296,-0.0003,-0.0006,-0.0022,-0.0005,0.0009,-0.0001,-27.2438,-36.0375,-10.275,,adl
8.002263,-0.0061,-0.0058,-0.0023,-0.0005,0.0009,-0.0001,-27.2438,-36.0375,-10.275,,adl
8.024812,-0.0061,-0.0058,-0.0023,-0.0005,0.0009,-0.0001,-27.2438,-36.0375,-10.275,,adl
8.032392,-0.0061,-0.0058,-0.0023,-0.0005,0.0009,-0.0001,-27.2813,-36.075,-10.275,,adl
8.041535,-0.0061,-0.0058,-0.0023,-0.0016,0.0073,0.0005,-27.2813,-36.075,-10.275,,adl
8.062299,0.0069,0.0022,0.0023,-0.0016,0.0073,0.0005,-27.2813,-36.075,-10.275,,adl
8.082683,0.0069,0.0022,0.0023,-0.0016,0.0073,0.0005,-27.2813,-36.075,-10.275,,adl
8.092743,0.0069,0.0022,0.0023,-0.0016,0.0073,0.0005,-27.3188,-36.0188,-10.425,,adl
8.103146,0.0069,0.0022,0.0023,0.0003,-0.0027,0.0003,-27.3188,-36.0188,-10.425,,adl
8.124405,-0.0124,-0.004,-0.0001,0.0003,-0.0027,0.0003,-27.3188,-36.0188,-10.425,,adl
8.143126,-0.0124,-0.004,-0.0001,0.0003,-0.0027,0.0003,-27.3188,-36.0188,-10.425,,adl
8.150604,-0.0124,-0.004,-0.0001,0.0003,-0.0027,0.0003,-27.4313,-35.925,-10.6875,,adl
8.163352,-0.0124,-0.004,-0.0001,0.0005,0.0013,0.0003,-27.4313,-35.925,-10.6875,,adl
8.20716,-0.0124,-0.004,-0.0001,0.0005,0.0013,0.0003,-27.4313,-35.925,-10.6875,,adl
8.210822,-0.003,-0.002,-0.0013,0.0005,0.0013,0.0003,-27.4313,-35.925,-10.6875,,adl
8.21312,-0.003,-0.002,-0.0013,0.0005,0.0013,0.0003,-27.4125,-35.8875,-10.6313,,adl
8.226249,-0.003,-0.002,-0.0013,0.0005,0.0009,0.0027,-27.4125,-35.8875,-10.6313,,adl
8.267249,-0.003,-0.002,-0.0013,0.0005,0.0009,0.0027,-27.4125,-35.8875,-10.6313,,adl
8.268727,-0.0027,-0.0016,0.0015,0.0005,0.0009,0.0027,-27.4125,-35.8875,-10.6313,,adl
8.271063,-0.0027,-0.0016,0.0015,0.0005,0.0009,0.0027,-27.375,-35.8125,-10.7812,,adl
8.286718,-0.0027,-0.0016,0.0015,-0.0005,-0.0055,-0.0012,-27.375,-35.8125,-10.7812,,adl
8.32849,-0.0027,-0.0016,0.0015,-0.0005,-0.0055,-0.0012,-27.375,-35.8125,-10.7812,,adl
8.331516,-0.0068,0.0058,-0.0177,-0.0005,-0.0055,-0.0012,-27.375,-35.8125,-10.7812,,adl
8.334022,-0.0068,0.0058,-0.0177,-0.0005,-0.0055,-0.0012,-27.3188,-35.775,-10.6688,,adl
8.346263,-0.0068,0.0058,-0.0177,-0.0001,0.0013,0.0009,-27.3188,-35.775,-10.6688,,adl
8.389245,-0.0068,0.0058,-0.0177,-0.0001,0.0013,0.0009,-27.3188,-35.775,-10.6688,,adl
8.392567,0.006,-0.0,0.0043,-0.0001,0.0013,0.0009,-27.3188,-35.775,-10.6688,,adl
8.394515,0.006,-0.0,0.0043,-0.0001,0.0013,0.0009,-27.3,-35.6813,-10.65,,adl
8.408755,0.006,-0.0,0.0043,0.0003,-0.0019,0.0003,-27.3,-35.6813,-10.65,,adl
8.450186,0.006,-0.0,0.0043,0.0003,-0.0019,0.0003,-27.3,-35.6813,-10.65,,adl
8.453425,0.006,-0.0,0.0043,0.0003,-0.0019,0.0003,-27.4313,-35.7188,-10.8375,,adl
8.468128,0.006,-0.0,0.0043,0.0009,0.0009,0.002,-27.4313,-35.7188,-10.8375,,adl
8.469698,-0.0028,-0.0002,0.0044,0.0009,0.0009,0.002,-27.4313,-35.7188,-10.8375,,adl
8.512339,-0.0028,-0.0002,0.0044,0.0009,0.0009,0.002,-27.4313,-35.7188,-10.8375,,adl
8.515513,-0.0028,-0.0002,0.0044,0.0009,0.0009,0.002,-27.3188,-35.7,-10.8,,adl
8.529877,-0.0028,-0.0002,0.0044,-0.0005,-0.0008,-0.0001,-27.3188,-35.7,-10.8,,adl
8.531089,-0.0042,-0.0013,-0.0029,-0.0005,-0.0008,-0.0001,-27.3188,-35.7,-10.8,,adl
8.573318,-0.0042,-0.0013,-0.0029,-0.0005,-0.0008,-0.0001,-27.3188,-35.7,-10.8,,adl
8.575013,-0.0042,-0.0013,-0.0029,-0.0005,-0.0008,-0.0001,-27.1875,-35.7375,-10.7812,,adl
8.591589,-0.0042,-0.0013,-0.0029,-0.0001,-0.0023,0.0005,-27.1875,-35.7375,-10.7812,,adl
8.594251,-0.0057,-0.0039,0.0026,-0.0001,-0.0023,0.0005,-27.1875,-35.7375,-10.7812,,adl
8.631189,-0.0057,-0.0039,0.0026,-0.0001,-0.0023,0.0005,-27.1875,-35.7375,-10.7812,,adl
8.634167,-0.0057,-0.0039,0.0026,-0.0001,-0.0023,0.0005,-27.1875,-35.8313,-10.5938,,adl
8.652101,-0.0057,-0.0039,0.0026,0.0016,-0.0012,0.002,-27.1875,-35.8313,-10.5938,,adl
8.672313,-0.0015,-0.0116,0.0017,0.0016,-0.0012,0.002,-27.1875,-35.8313,-10.5938,,adl
8.691206,-0.0015,-0.0116,0.0017,0.0016,-0.0012,0.002,-27.0563,-35.7938,-10.6125,,adl
8.693286,-0.0015,-0.0116,0.0017,0.0016,-0.0012,0.002,-27.0563,-35.7938,-10.6125,,adl
8.711381,-0.0015,-0.0116,0.0017,-0.0016,0.0016,-0.0012,-27.0563,-35.7938,-10.6125,,adl
8.733145,0.0,-0.002,-0.0065,-0.0016,0.0016,-0.0012,-27.0563,-35.7938,-10.6125,,adl
8.754068,0.0,-0.002,-0.0065,-0.0016,0.0016,-0.0012,-27.075,-35.9625,-10.5375,,adl
8.756211,0.0,-0.002,-0.0065,-0.0016,0.0016,-0.0012,-27.075,-35.9625,-10.5375,,adl
8.77246,0.0,-0.002,-0.0065,-0.0005,0.002,-0.0001,-27.075,-35.9625,-10.5375,,adl
8.796607,0.0031,-0.0024,0.0024,-0.0005,0.002,-0.0001,-27.075,-35.9625,-10.5375,,adl
8.814132,0.0031,-0.0024,0.0024,-0.0005,0.002,-0.0001,-27.075,-35.9625,-10.5375,,adl
8.816625,0.0031,-0.0024,0.0024,-0.0005,0.002,-0.0001,-27.075,-36.0188,-10.7063,,adl
8.833893,0.0031,-0.0024,0.0024,0.0003,-0.0033,-0.0001,-27.075,-36.0188,-10.7063,,adl
8.854027,-0.0088,-0.0096,0.0041,0.0003,-0.0033,-0.0001,-27.075,-36.0188,-10.7063,,adl
8.873552,-0.0088,-0.0096,0.0041,0.0003,-0.0033,-0.0001,-27.075,-36.0188,-10.7063,,adl
8.875183,-0.0088,-0.0096,0.0041,0.0003,-0.0033,-0.0001,-27.15,-36.0,-10.7438,,adl
8.894583,-0.0088,-0.0096,0.0041,0.0003,0.002,0.0016,-27.15,-36.0,-10.7438,,adl
8.936646,-0.0088,-0.0096,0.0041,0.0003,0.002,0.0016,-27.1875,-36.0375,-10.8375,,adl
8.939828,-0.0088,-0.0096,0.0041,0.0003,0.002,0.0016,-27.1875,-36.0375,-10.8375,,adl
8.941711,0.0015,0.0015,-0.0075,0.0003,0.002,0.0016,-27.1875,-36.0375,-10.8375,,adl
8.954882,0.0015,0.0015,-0.0075,0.0003,-0.0037,0.0005,-27.1875,-36.0375,-10.8375,,adl
8.994296,0.0015,0.0015,-0.0075,0.0003,-0.0037,0.0005,-27.3563,-36.15,-10.9688,,adl
8.997984,0.0015,0.0015,-0.0075,0.0003,-0.0037,0.0005,-27.3563,-36.15,-10.9688,,adl
8.999505,-0.0017,-0.0052,-0.0078,0.0003,-0.0037,0.0005,-27.3563,-36.15,-10.9688,,adl
9.016907,-0.0017,-0.0052,-0.0078,-0.0008,-0.0016,-0.0005,-27.3563,-36.15,-10.9688,,adl
9.052654,-0.0017,-0.0052,-0.0078,-0.0008,-0.0016,-0.0005,-27.4688,-36.1125,-10.9125,,adl
9.058672,-0.0017,-0.0052,-0.0078,-0.0008,-0.0016,-0.0005,-27.4688,-36.1125,-10.9125,,adl
9.061212,-0.0043,-0.0072,-0.0034,-0.0008,-0.0016,-0.0005,-27.4688,-36.1125,-10.9125,,adl
9.077418,-0.0043,-0.0072,-0.0034,0.0005,-0.0016,0.0009,-27.4688,-36.1125,-10.9125,,adl
9.111842,-0.0043,-0.0072,-0.0034,0.0005,-0.0016,0.0009,-27.375,-36.0563,-10.9875,,adl
9.119159,-0.0043,-0.0072,-0.0034,0.0005,-0.0016,0.0009,-27.375,-36.0563,-10.9875,,adl
9.139239,-0.003,-0.0073,0.0037,0.0005,-0.0016,0.0009,-27.375,-36.0563,-10.9875,,adl
9.141105,-0.003,-0.0073,0.0037,0.0003,-0.0008,0.0003,-27.375,-36.0563,-10.9875,,adl
9.173301,-0.003,-0.0073,0.0037,0.0003,-0.0008,0.0003,-27.4875,-36.1125,-11.2688,,adl
9.178686,-0.003,-0.0073,0.0037,0.0003,-0.0008,0.0003,-27.4875,-36.1125,-11.2688,,adl
9.200246,-0.0003,0.0035,0.0006,0.0003,-0.0008,0.0003,-27.4875,-36.1125,-11.2688,,adl
9.201835,-0.0003,0.0035,0.0006,0.0003,0.0005,0.0005,-27.4875,-36.1125,-11.2688,,adl
9.231186,-0.0003,0.0035,0.0006,0.0003,0.0005,0.0005,-27.4875,-35.775,-11.475,,adl
9.240734,-0.0003,0.0035,0.0006,0.0003,0.0005,0.0005,-27.4875,-35.775,-11.475,,adl
9.259148,-0.0003,0.0035,0.0006,-0.0001,-0.0027,-0.0001,-27.4875,-35.775,-11.475,,adl
9.260366,-0.0089,-0.0042,-0.0008,-0.0001,-0.0027,-0.0001,-27.4875,-35.775,-11.475,,adl
9.291477,-0.0089,-0.0042,-0.0008,-0.0001,-0.0027,-0.0001,-27.6375,-35.4938,-11.8688,,adl
9.300031,-0.0089,-0.0042,-0.0008,-0.0001,-0.0027,-0.0001,-27.6375,-35.4938,-11.8688,,adl
9.320245,-0.0089,-0.0042,-0.0008,-0.0001,0.0009,0.0003,-27.6375,-35.4938,-11.8688,,adl
9.320962,0.0017,-0.0013,0.0011,-0.0001,0.0009,0.0003,-27.6375,-35.4938,-11.8688,,adl
9.35238,0.0017,-0.0013,0.0011,-0.0001,0.0009,0.0003,-27.8063,-35.4188,-12.1313,,adl
9.361544,0.0017,-0.0013,0.0011,-0.0001,0.0009,0.0003,-27.8063,-35.4188,-12.1313,,adl
9.381008,0.0017,-0.0013,0.0011,0.0024,-0.0044,0.0031,-27.8063,-35.4188,-12.1313,,adl
9.401576,-0.0103,-0.0087,0.0005,0.0024,-0.0044,0.0031,-27.8063,-35.4188,-12.1313,,adl
9.411264,-0.0103,-0.0087,0.0005,0.0024,-0.0044,0.0031,-27.7313,-35.25,-12.1125,,adl
9.425069,-0.0103,-0.0087,0.0005,0.0024,-0.0044,0.0031,-27.7313,-35.25,-12.1125,,adl
9.442913,-0.0103,-0.0087,0.0005,-0.0019,0.0037,-0.0008,-27.7313,-35.25,-12.1125,,adl
9.462016,0.0071,0.0045,-0.0011,-0.0019,0.0037,-0.0008,-27.7313,-35.25,-12.1125,,adl
9.472302,0.0071,0.0045,-0.0011,-0.0019,0.0037,-0.0008,-27.7688,-35.0063,-12.3,,adl
9.483983,0.0071,0.0045,-0.0011,-0.0019,0.0037,-0.0008,-27.7688,-35.0063,-12.3,,adl
9.502777,0.0071,0.0045,-0.0011,0.0005,0.002,-0.0005,-27.7688,-35.0063,-12.3,,adl
9.52294,-0.0008,-0.0051,0.0063,0.0005,0.002,-0.0005,-27.7688,-35.0063,-12.3,,adl
9.530572,-0.0008,-0.0051,0.0063,0.0005,0.002,-0.0005,-27.8438,-34.8563,-12.6563,,adl
9.543384,-0.0008,-0.0051,0.0063,0.0005,0.002,-0.0005,-27.8438,-34.8563,-12.6563,,adl
9.564357,-0.0008,-0.0051,0.0063,-0.0001,-0.0029,0.0005,-27.8438,-34.8563,-12.6563,,adl
9.584517,-0.0128,-0.0049,-0.0039,-0.0001,-0.0029,0.0005,-27.8438,-34.8563,-12.6563,,adl
9.590861,-0.0128,-0.0049,-0.0039,-0.0001,-0.0029,0.0005,-27.8813,-34.6688,-12.9938,,adl
9.605378,-0.0128,-0.0049,-0.0039,-0.0001,-0.0029,0.0005,-27.8813,-34.6688,-12.9938,,adl
9.626966,-0.0128,-0.0049,-0.0039,0.0003,0.002,0.0016,-27.8813,-34.6688,-12.9938,,adl
9.652272,-0.0128,-0.0049,-0.0039,0.0003,0.002,0.0016,-27.8438,-34.5938,-12.8438,,adl
9.666617,-0.0128,-0.0049,-0.0039,0.0003,0.002,0.0016,-27.8438,-34.5938,-12.8438,,adl
9.668146,-0.0027,-0.003,0.0044,0.0003,0.002,0.0016,-27.8438,-34.5938,-12.8438,,adl
9.686975,-0.0027,-0.003,0.0044,0.0013,-0.0019,0.0005,-27.8438,-34.5938,-12.8438,,adl
9.712676,-0.0027,-0.003,0.0044,0.0013,-0.0019,0.0005,-27.7875,-34.65,-12.675,,adl
9.727549,-0.0027,-0.003,0.0044,0.0013,-0.0019,0.0005,-27.7875,-34.65,-12.675,,adl
9.729133,-0.0021,-0.0028,-0.0065,0.0013,-0.0019,0.0005,-27.7875,-34.65,-12.675,,adl
9.746664,-0.0021,-0.0028,-0.0065,-0.0005,-0.0008,-0.0005,-27.7875,-34.65,-12.675,,adl
9.772687,-0.0021,-0.0028,-0.0065,-0.0005,-0.0008,-0.0005,-27.5063,-34.8188,-12.3,,adl
9.788165,-0.0021,-0.0028,-0.0065,-0.0005,-0.0008,-0.0005,-27.5063,-34.8188,-12.3,,adl
9.790554,-0.0042,0.0,-0.0047,-0.0005,-0.0008,-0.0005,-27.5063,-34.8188,-12.3,,adl
9.808644,-0.0042,0.0,-0.0047,0.0003,-0.0027,0.0016,-27.5063,-34.8188,-12.3,,adl
9.832789,-0.0042,0.0,-0.0047,0.0003,-0.0027,0.0016,-27.3188,-34.9688,-12.1125,,adl
9.850195,-0.0042,0.0,-0.0047,0.0003,-0.0027,0.0016,-27.3188,-34.9688,-12.1125,,adl
9.870078,-0.0042,0.0,-0.0047,0.0005,-0.0005,0.0009,-27.3188,-34.9688,-12.1125,,adl
9.872327,-0.0063,-0.0023,0.0027,0.0005,-0.0005,0.0009,-27.3188,-34.9688,-12.1125,,adl
9.892546,-0.0063,-0.0023,0.0027,0.0005,-0.0005,0.0009,-27.1688,-35.0438,-12.0,,adl
9.910477,-0.0063,-0.0023,0.0027,0.0005,-0.0005,0.0009,-27.1688,-35.0438,-12.0,,adl
9.930362,-0.0063,-0.0023,0.0027,0.0003,0.0003,0.0009,-27.1688,-35.0438,-12.0,,adl
9.932311,0.0032,-0.0035,0.0005,0.0003,0.0003,0.0009,-27.1688,-35.0438,-12.0,,adl
9.952692,0.0032,-0.0035,0.0005,0.0003,0.0003,0.0009,-27.0,-35.1188,-11.8875,,adl
9.97106,0.0032,-0.0035,0.0005,0.0003,0.0003,0.0009,-27.0,-35.1188,-11.8875,,adl
9.991056,0.0032,-0.0035,0.0005,0.0005,-0.0033,0.0005,-27.0,-35.1188,-11.8875,,adl
9.993314,-0.0061,-0.0032,-0.0001,0.0005,-0.0033,0.0005,-27.0,-35.1188,-11.8875,,adl
10.013173,-0.0061,-0.0032,-0.0001,0.0005,-0.0033,0.0005,-26.8688,-35.25,-11.6438,,adl
10.032604,-0.0061,-0.0032,-0.0001,0.0005,-0.0033,0.0005,-26.8688,-35.25,-11.6438,,adl
10.055117,-0.0061,-0.0032,-0.0001,0.0013,0.0005,0.0016,-26.8688,-35.25,-11.6438,,adl
10.057811,-0.0067,-0.0011,-0.0004,0.0013,0.0005,0.0016,-26.8688,-35.25,-11.6438,,adl
10.07278,-0.0067,-0.0011,-0.0004,0.0013,0.0005,0.0016,-26.7,-35.4188,-11.2688,,adl
10.093956,-0.0067,-0.0011,-0.0004,0.0013,0.0005,0.0016,-26.7,-35.4188,-11.2688,,adl
10.112704,-0.0067,-0.0011,-0.0004,0.0003,-0.0019,0.0003,-26.7,-35.4188,-11.2688,,adl
10.132178,-0.0067,-0.0011,-0.0004,0.0003,-0.0019,0.0003,-26.6625,-35.5125,-11.25,,adl
10.133969,-0.0099,0.0038,0.0015,0.0003,-0.0019,0.0003,-26.6625,-35.5125,-11.25,,adl
10.153205,-0.0099,0.0038,0.0015,0.0003,-0.0019,0.0003,-26.6625,-35.5125,-11.25,,adl
10.17283,-0.0099,0.0038,0.0015,0.0009,-0.0005,0.0013,-26.6625,-35.5125,-11.25,,adl
10.191382,-0.0099,0.0038,0.0015,0.0009,-0.0005,0.0013,-26.7563,-35.5312,-11.4,,adl
10.193005,0.0037,-0.001,-0.0093,0.0009,-0.0005,0.0013,-26.7563,-35.5312,-11.4,,adl
10.213576,0.0037,-0.001,-0.0093,0.0009,-0.0005,0.0013,-26.7563,-35.5312,-11.4,,adl
10.23335,0.0037,-0.001,-0.0093,-0.0001,-0.0005,0.0003,-26.7563,-35.5312,-11.4,,adl
10.252192,0.0037,-0.001,-0.0093,-0.0001,-0.0005,0.0003,-26.9625,-35.2875,-11.625,,adl
10.253091,0.0001,-0.0039,0.0001,-0.0001,-0.0005,0.0003,-26.9625,-35.2875,-11.625,,adl
10.275134,0.0001,-0.0039,0.0001,-0.0001,-0.0005,0.0003,-26.9625,-35.2875,-11.625,,adl
10.295593,0.0001,-0.0039,0.0001,-0.0001,0.0037,0.0005,-26.9625,-35.2875,-11.625,,adl
10.31375,0.0001,-0.0039,0.0001,-0.0001,0.0037,0.0005,-27.0563,-35.2125,-11.6625,,adl
10.336007,0.0001,-0.0039,0.0001,-0.0001,0.0037,0.0005,-27.0563,-35.2125,-11.6625,,adl
10.337618,0.0033,-0.0014,-0.0086,-0.0001,0.0037,0.0005,-27.0563,-35.2125,-11.6625,,adl
10.358995,0.0033,-0.0014,-0.0086,0.0009,-0.0019,-0.0008,-27.0563,-35.2125,-11.6625,,adl
10.37124,0.0033,-0.0014,-0.0086,0.0009,-0.0019,-0.0008,-27.1688,-35.2125,-11.6625,,adl
10.399851,0.0033,-0.0014,-0.0086,0.0009,-0.0019,-0.0008,-27.1688,-35.2125,-11.6625,,adl
10.401702,0.0021,0.0031,-0.0115,0.0009,-0.0019,-0.0008,-27.1688,-35.2125,-11.6625,,adl
10.417889,0.0021,0.0031,-0.0115,0.0003,0.0027,0.0013,-27.1688,-35.2125,-11.6625,,adl
10.432623,0.0021,0.0031,-0.0115,0.0003,0.0027,0.0013,-27.2063,-35.2125,-11.7563,,adl
10.457402,0.0021,0.0031,-0.0115,0.0003,0.0027,0.0013,-27.2063,-35.2125,-11.7563,,adl
10.458706,0.0081,-0.0055,-0.0023,0.0003,0.0027,0.0013,-27.2063,-35.2125,-11.7563,,adl
10.476938,0.0081,-0.0055,-0.0023,0.0013,-0.0033,0.0016,-27.2063,-35.2125,-11.7563,,adl
10.491311,0.0081,-0.0055,-0.0023,0.0013,-0.0033,0.0016,-27.3188,-35.2313,-11.8875,,adl
10.518404,0.0081,-0.0055,-0.0023,0.0013,-0.0033,0.0016,-27.3188,-35.2313,-11.8875,,adl
10.519161,-0.0082,-0.0095,-0.0038,0.0013,-0.0033,0.0016,-27.3188,-35.2313,-11.8875,,adl
10.540271,-0.0082,-0.0095,-0.0038,-0.0001,-0.0037,0.0005,-27.3188,-35.2313,-11.8875,,adl
10.552955,-0.0082,-0.0095,-0.0038,-0.0001,-0.0037,0.0005,-27.4125,-34.9688,-12.1125,,adl
10.58048,-0.0082,-0.0095,-0.0038,-0.0001,-0.0037,0.0005,-27.4125,-34.9688,-12.1125,,adl
10.600591,-0.0082,-0.0095,-0.0038,-0.0001,-0.0008,0.0003,-27.4125,-34.9688,-12.1125,,adl
10.602208,-0.0017,0.0031,-0.0114,-0.0001,-0.0008,0.0003,-27.4125,-34.9688,-12.1125,,adl
10.611859,-0.0017,0.0031,-0.0114,-0.0001,-0.0008,0.0003,-27.4125,-35.025,-12.0563,,adl
10.641915,-0.0017,0.0031,-0.0114,-0.0001,-0.0008,0.0003,-27.4125,-35.025,-12.0563,,adl
10.66369,-0.0017,0.0031,-0.0114,0.0009,-0.0029,0.0005,-27.4125,-35.025,-12.0563,,adl
10.66711,-0.006,-0.0026,-0.0012,0.0009,-0.0029,0.0005,-27.4125,-35.025,-12.0563,,adl
10.673282,-0.006,-0.0026,-0.0012,0.0009,-0.0029,0.0005,-27.375,-35.025,-11.8688,,adl
10.702338,-0.006,-0.0026,-0.0012,0.0009,-0.0029,0.0005,-27.375,-35.025,-11.8688,,adl
10.721425,-0.006,-0.0026,-0.0012,0.0003,-0.0001,0.0005,-27.375,-35.025,-11.8688,,adl
10.722869,-0.0079,-0.0034,-0.0017,0.0003,-0.0001,0.0005,-27.375,-35.025,-11.8688,,adl
10.73128,-0.0079,-0.0034,-0.0017,0.0003,-0.0001,0.0005,-27.3,-35.325,-11.625,,adl
10.762723,-0.0079,-0.0034,-0.0017,0.0003,-0.0001,0.0005,-27.3,-35.325,-11.625,,adl
10.783888,-0.0079,-0.0034,-0.0017,-0.0001,-0.0029,0.0003,-27.3,-35.325,-11.625,,adl
10.794206,-0.0079,-0.0034,-0.0017,-0.0001,-0.0029,0.0003,-27.15,-35.3625,-11.5312,,adl
10.805343,-0.0039,-0.0034,0.0032,-0.0001,-0.0029,0.0003,-27.15,-35.3625,-11.5312,,adl
10.823528,-0.0039,-0.0034,0.0032,-0.0001,-0.0029,0.0003,-27.15,-35.3625,-11.5312,,adl
10.845309,-0.0039,-0.0034,0.0032,0.0005,0.0003,0.0009,-27.15,-35.3625,-11.5312,,adl
10.853409,-0.0039,-0.0034,0.0032,0.0005,0.0003,0.0009,-27.0375,-35.4375,-11.55,,adl
10.865577,-0.0023,-0.0026,0.0027,0.0005,0.0003,0.0009,-27.0375,-35.4375,-11.55,,adl
10.885849,-0.0023,-0.0026,0.0027,0.0005,0.0003,0.0009,-27.0375,-35.4375,-11.55,,adl
10.905243,-0.0023,-0.0026,0.0027,0.0009,-0.0033,0.0009,-27.0375,-35.4375,-11.55,,adl
10.912426,-0.0023,-0.0026,0.0027,0.0009,-0.0033,0.0009,-26.9813,-35.4188,-11.3063,,adl
10.924905,-0.0093,-0.0051,-0.0043,0.0009,-0.0033,0.0009,-26.9813,-35.4188,-11.3063,,adl
10.946877,-0.0093,-0.0051,-0.0043,0.0009,-0.0033,0.0009,-26.9813,-35.4188,-11.3063,,adl
10.965286,-0.0093,-0.0051,-0.0043,0.0009,-0.0008,0.0005,-26.9813,-35.4188,-11.3063,,adl
10.972878,-0.0093,-0.0051,-0.0043,0.0009,-0.0008,0.0005,-26.7938,-35.3813,-11.1562,,adl
10.985678,0.0069,-0.0034,0.0002,0.0009,-0.0008,0.0005,-26.7938,-35.3813,-11.1562,,adl
11.006246,0.0069,-0.0034,0.0002,0.0009,-0.0008,0.0005,-26.7938,-35.3813,-11.1562,,adl
11.027229,0.0069,-0.0034,0.0002,-0.0001,-0.0023,0.0003,-26.7938,-35.3813,-11.1562,,adl
11.031776,0.0069,-0.0034,0.0002,-0.0001,-0.0023,0.0003,-26.8125,-35.5688,-10.9125,,adl
11.067211,0.0069,-0.0034,0.0002,-0.0001,-0.0023,0.0003,-26.8125,-35.5688,-10.9125,,adl
11.068769,-0.0034,-0.0024,-0.0043,-0.0001,-0.0023,0.0003,-26.8125,-35.5688,-10.9125,,adl
11.087576,-0.0034,-0.0024,-0.0043,0.0005,-0.0016,0.0009,-26.8125,-35.5688,-10.9125,,adl
11.091684,-0.0034,-0.0024,-0.0043,0.0005,-0.0016,0.0009,-26.775,-35.4938,-10.8,,adl
11.127886,-0.0034,-0.0024,-0.0043,0.0005,-0.0016,0.0009,-26.775,-35.4938,-10.8,,adl
11.129738,-0.0041,-0.0023,-0.0032,0.0005,-0.0016,0.0009,-26.775,-35.4938,-10.8,,adl
11.148258,-0.0041,-0.0023,-0.0032,-0.0005,-0.0023,0.0003,-26.775,-35.4938,-10.8,,adl
11.151165,-0.0041,-0.0023,-0.0032,-0.0005,-0.0023,0.0003,-26.7563,-35.55,-10.8,,adl
11.190447,-0.0041,-0.0023,-0.0032,-0.0005,-0.0023,0.0003,-26.7563,-35.55,-10.8,,adl
11.192295,-0.0041,0.0016,-0.0078,-0.0005,-0.0023,0.0003,-26.7563,-35.55,-10.8,,adl
11.209165,-0.0041,0.0016,-0.0078,0.0013,-0.0016,0.0005,-26.7563,-35.55,-10.8,,adl
11.21214,-0.0041,0.0016,-0.0078,0.0013,-0.0016,0.0005,-26.5875,-35.5688,-10.7625,,adl
11.249426,-0.0041,0.0016,-0.0078,0.0013,-0.0016,0.0005,-26.5875,-35.5688,-10.7625,,adl
11.27071,-0.0041,0.0016,-0.0078,-0.0005,0.0016,0.0003,-26.5875,-35.5688,-10.7625,,adl
11.271803,-0.0062,0.0018,0.0032,-0.0005,0.0016,0.0003,-26.5875,-35.5688,-10.7625,,adl
11.272689,-0.0062,0.0018,0.0032,-0.0005,0.0016,0.0003,-26.6625,-35.4,-10.8,,adl
11.312473,-0.0062,0.0018,0.0032,-0.0005,0.0016,0.0003,-26.6625,-35.4,-10.8,,adl
11.331563,-0.0062,0.0018,0.0032,-0.0005,0.0035,0.0003,-26.6625,-35.4,-10.8,,adl
11.333108,-0.0062,0.0018,0.0032,-0.0005,0.0035,0.0003,-26.8313,-35.4,-10.6875,,adl
11.334147,-0.0018,0.0064,-0.002,-0.0005,0.0035,0.0003,-26.8313,-35.4,-10.6875,,adl
11.373187,-0.0018,0.0064,-0.002,-0.0005,0.0035,0.0003,-26.8313,-35.4,-10.6875,,adl
11.393703,-0.0018,0.0064,-0.002,-0.0005,0.0035,0.0003,-26.775,-35.55,-10.5938,,adl
11.396025,-0.0024,-0.0086,-0.0081,-0.0005,0.0035,0.0003,-26.775,-35.55,-10.5938,,adl
11.397434,-0.0024,-0.0086,-0.0081,0.0005,0.0003,0.0005,-26.775,-35.55,-10.5938,,adl
11.433927,-0.0024,-0.0086,-0.0081,0.0005,0.0003,0.0005,-26.775,-35.55,-10.5938,,adl
11.453029,-0.0024,-0.0086,-0.0081,0.0005,0.0003,0.0005,-26.775,-35.475,-10.5375,,adl
11.455432,-0.0024,-0.0086,-0.0081,-0.0001,0.0003,0.0005,-26.775,-35.475,-10.5375,,adl
11.457173,0.0017,-0.0029,-0.007,-0.0001,0.0003,0.0005,-26.775,-35.475,-10.5375,,adl
11.493802,0.0017,-0.0029,-0.007,-0.0001,0.0003,0.0005,-26.775,-35.475,-10.5375,,adl
11.514035,0.0017,-0.0029,-0.007,0.0009,-0.0023,0.0009,-26.775,-35.475,-10.5375,,adl
11.51676,0.0017,-0.0029,-0.007,0.0009,-0.0023,0.0009,-26.6813,-35.5312,-10.5,,adl
11.533354,-0.0055,0.002,-0.0012,0.0009,-0.0023,0.0009,-26.6813,-35.5312,-10.5,,adl
11.554452,-0.0055,0.002,-0.0012,0.0009,-0.0023,0.0009,-26.6813,-35.5312,-10.5,,adl
11.572984,-0.0055,0.002,-0.0012,0.0009,-0.0023,0.0009,-26.8125,-35.7,-10.7063,,adl
11.57485,-0.0055,0.002,-0.0012,-0.0001,-0.0048,-0.0001,-26.8125,-35.7,-10.7063,,adl
11.594796,-0.0086,0.005,0.0004,-0.0001,-0.0048,-0.0001,-26.8125,-35.7,-10.7063,,adl
11.615602,-0.0086,0.005,0.0004,-0.0001,-0.0048,-0.0001,-26.8125,-35.7,-10.7063,,adl
11.63213,-0.0086,0.005,0.0004,-0.0001,-0.0048,-0.0001,-26.85,-35.7,-10.7438,,adl
11.634181,-0.0086,0.005,0.0004,0.0003,-0.0029,-0.0001,-26.85,-35.7,-10.7438,,adl
11.655373,-0.0049,-0.0065,-0.0058,0.0003,-0.0029,-0.0001,-26.85,-35.7,-10.7438,,adl
11.676207,-0.0049,-0.0065,-0.0058,0.0003,-0.0029,-0.0001,-26.85,-35.7,-10.7438,,adl
11.692285,-0.0049,-0.0065,-0.0058,0.0003,-0.0029,-0.0001,-26.9438,-35.6625,-10.8188,,adl
11.695332,-0.0049,-0.0065,-0.0058,0.0009,0.0009,0.0013,-26.9438,-35.6625,-10.8188,,adl
11.737828,-0.0049,-0.0065,-0.0058,0.0009,0.0009,0.0013,-26.9438,-35.6625,-10.8188,,adl
11.741106,-0.0116,-0.005,0.0038,0.0009,0.0009,0.0013,-26.9438,-35.6625,-10.8188,,adl
11.751847,-0.0116,-0.005,0.0038,0.0009,0.0009,0.0013,-26.85,-35.7938,-10.6313,,adl
11.756522,-0.0116,-0.005,0.0038,0.0009,-0.0008,0.0009,-26.85,-35.7938,-10.6313,,adl
11.799003,-0.0116,-0.005,0.0038,0.0009,-0.0008,0.0009,-26.85,-35.7938,-10.6313,,adl
11.802292,-0.0053,0.0062,0.0076,0.0009,-0.0008,0.0009,-26.85,-35.7938,-10.6313,,adl
11.812243,-0.0053,0.0062,0.0076,0.0009,-0.0008,0.0009,-26.8125,-35.7938,-10.7063,,adl
11.818456,-0.0053,0.0062,0.0076,0.0003,-0.0016,0.0005,-26.8125,-35.7938,-10.7063,,adl
11.861187,-0.0053,0.0062,0.0076,0.0003,-0.0016,0.0005,-26.8125,-35.7938,-10.7063,,adl
11.86304,-0.0038,-0.0025,-0.0037,0.0003,-0.0016,0.0005,-26.8125,-35.7938,-10.7063,,adl
11.873899,-0.0038,-0.0025,-0.0037,0.0003,-0.0016,0.0005,-26.85,-35.7188,-10.8188,,adl
11.878634,-0.0038,-0.0025,-0.0037,0.0003,-0.0008,0.0005,-26.85,-35.7188,-10.8188,,adl
11.921509,-0.0038,-0.0025,-0.0037,0.0003,-0.0008,0.0005,-26.85,-35.7188,-10.8188,,adl
11.924226,-0.0055,-0.0039,-0.0011,0.0003,-0.0008,0.0005,-26.85,-35.7188,-10.8188,,adl
11.931873,-0.0055,-0.0039,-0.0011,0.0003,-0.0008,0.0005,-26.9063,-35.8125,-10.8188,,adl
11.94019,-0.0055,-0.0039,-0.0011,0.0013,-0.0019,0.0005,-26.9063,-35.8125,-10.8188,,adl
11.981797,-0.0055,-0.0039,-0.0011,0.0013,-0.0019,0.0005,-26.9063,-35.8125,-10.8188,,adl
11.99342,-0.0055,-0.0039,-0.0011,0.0013,-0.0019,0.0005,-27.0375,-35.8688,-10.8375,,adl
12.000554,-0.0055,-0.0039,-0.0011,-0.0001,-0.0016,0.0009,-27.0375,-35.8688,-10.8375,,adl
12.001798,-0.0078,-0.0016,-0.0019,-0.0001,-0.0016,0.0009,-27.0375,-35.8688,-10.8375,,adl
12.043687,-0.0078,-0.0016,-0.0019,-0.0001,-0.0016,0.0009,-27.0375,-35.8688,-10.8375,,adl
12.052087,-0.0078,-0.0016,-0.0019,-0.0001,-0.0016,0.0009,-26.9438,-35.7938,-10.7063,,adl
12.060371,-0.0078,-0.0016,-0.0019,0.0003,-0.0001,0.0005,-26.9438,-35.7938,-10.7063,,adl
12.061628,0.0034,-0.0071,-0.0015,0.0003,-0.0001,0.0005,-26.9438,-35.7938,-10.7063,,adl
12.102438,0.0034,-0.0071,-0.0015,0.0003,-0.0001,0.0005,-26.9438,-35.7938,-10.7063,,adl
12.111625,0.0034,-0.0071,-0.0015,0.0003,-0.0001,0.0005,-27.2438,-35.775,-10.8563,,adl
12.121515,0.0034,-0.0071,-0.0015,-0.0001,-0.0033,-0.0001,-27.2438,-35.775,-10.8563,,adl
12.122485,-0.0005,-0.0038,0.0051,-0.0001,-0.0033,-0.0001,-27.2438,-35.775,-10.8563,,adl
12.163192,-0.0005,-0.0038,0.0051,-0.0001,-0.0033,-0.0001,-27.2438,-35.775,-10.8563,,adl
12.171562,-0.0005,-0.0038,0.0051,-0.0001,-0.0033,-0.0001,-27.3,-35.7563,-10.7438,,adl
12.184517,-0.0005,-0.0038,0.0051,0.0016,-0.0005,0.002,-27.3,-35.7563,-10.7438,,adl
12.20317,-0.0094,-0.0065,-0.0041,0.0016,-0.0005,0.002,-27.3,-35.7563,-10.7438,,adl
12.2247,-0.0094,-0.0065,-0.0041,0.0016,-0.0005,0.002,-27.3,-35.7563,-10.7438,,adl
12.234074,-0.0094,-0.0065,-0.0041,0.0016,-0.0005,0.002,-27.3563,-35.7375,-10.9875,,adl
12.244471,-0.0094,-0.0065,-0.0041,-0.0008,0.0009,-0.0001,-27.3563,-35.7375,-10.9875,,adl
12.266047,-0.0029,-0.005,-0.01,-0.0008,0.0009,-0.0001,-27.3563,-35.7375,-10.9875,,adl
12.285274,-0.0029,-0.005,-0.01,-0.0008,0.0009,-0.0001,-27.3563,-35.7375,-10.9875,,adl
12.293163,-0.0029,-0.005,-0.01,-0.0008,0.0009,-0.0001,-27.2625,-35.7188,-10.8188,,adl
12.305347,-0.0029,-0.005,-0.01,-0.0012,0.0027,-0.0012,-27.2625,-35.7188,-10.8188,,adl
12.325527,-0.0038,0.0043,-0.0064,-0.0012,0.0027,-0.0012,-27.2625,-35.7188,-10.8188,,adl
12.34726,-0.0038,0.0043,-0.0064,-0.0012,0.0027,-0.0012,-27.2625,-35.7188,-10.8188,,adl
12.352437,-0.0038,0.0043,-0.0064,-0.0012,0.0027,-0.0012,-27.2063,-35.7,-10.7812,,adl
12.366106,-0.0038,0.0043,-0.0064,-0.0001,0.0009,-0.0001,-27.2063,-35.7,-10.7812,,adl
12.38836,-0.0051,-0.0057,-0.0011,-0.0001,0.0009,-0.0001,-27.2063,-35.7,-10.7812,,adl
12.408642,-0.0051,-0.0057,-0.0011,-0.0001,0.0009,-0.0001,-27.2063,-35.7,-10.7812,,adl
12.414871,-0.0051,-0.0057,-0.0011,-0.0001,0.0009,-0.0001,-27.1875,-35.7375,-10.65,,adl
12.427333,-0.0051,-0.0057,-0.0011,0.0003,-0.0012,-0.0001,-27.1875,-35.7375,-10.65,,adl
12.469313,-0.0051,-0.0057,-0.0011,0.0003,-0.0012,-0.0001,-27.1875,-35.7375,-10.65,,adl
12.471523,-0.0074,-0.0108,-0.0039,0.0003,-0.0012,-0.0001,-27.1875,-35.7375,-10.65,,adl
12.473813,-0.0074,-0.0108,-0.0039,0.0003,-0.0012,-0.0001,-27.1313,-35.625,-10.575,,adl
12.487654,-0.0074,-0.0108,-0.0039,0.0013,-0.0029,0.0005,-27.1313,-35.625,-10.575,,adl
12.529949,0.0011,-0.0004,-0.0099,0.0013,-0.0029,0.0005,-27.1313,-35.625,-10.575,,adl
12.533242,0.0011,-0.0004,-0.0099,0.0013,-0.0029,0.0005,-27.1313,-35.625,-10.575,,adl
12.535552,0.0011,-0.0004,-0.0099,0.0013,-0.0029,0.0005,-27.225,-35.6438,-10.5,,adl
12.550493,0.0011,-0.0004,-0.0099,-0.0008,-0.0012,-0.0005,-27.225,-35.6438,-10.5,,adl
12.592108,0.0011,-0.0004,-0.0099,-0.0008,-0.0012,-0.0005,-27.225,-35.6438,-10.5,,adl
12.594425,0.0018,0.0099,-0.0042,-0.0008,-0.0012,-0.0005,-27.225,-35.6438,-10.5,,adl
12.595189,0.0018,0.0099,-0.0042,-0.0008,-0.0012,-0.0005,-26.9063,-35.6625,-10.0688,,adl
12.609825,0.0018,0.0099,-0.0042,0.0003,-0.0023,-0.0001,-26.9063,-35.6625,-10.0688,,adl
12.652807,0.0018,0.0099,-0.0042,0.0003,-0.0023,-0.0001,-26.7,-35.7188,-10.0688,,adl
12.655863,0.0018,0.0099,-0.0042,0.0003,-0.0023,-0.0001,-26.7,-35.7188,-10.0688,,adl
12.671121,0.0018,0.0099,-0.0042,0.0003,0.0005,0.0013,-26.7,-35.7188,-10.0688,,adl
12.672963,0.0014,-0.0045,0.0053,0.0003,0.0005,0.0013,-26.7,-35.7188,-10.0688,,adl
12.713918,0.0014,-0.0045,0.0053,0.0003,0.0005,0.0013,-26.5875,-35.8125,-9.8438,,adl
12.717518,0.0014,-0.0045,0.0053,0.0003,0.0005,0.0013,-26.5875,-35.8125,-9.8438,,adl
12.732688,0.0014,-0.0045,0.0053,-0.0005,-0.0001,0.0005,-26.5875,-35.8125,-9.8438,,adl
12.734877,-0.0061,0.005,0.0029,-0.0005,-0.0001,0.0005,-26.5875,-35.8125,-9.8438,,adl
12.776486,-0.0061,0.005,0.0029,-0.0005,-0.0001,0.0005,-26.6063,-35.85,-9.8625,,adl
12.778381,-0.0061,0.005,0.0029,-0.0005,-0.0001,0.0005,-26.6063,-35.85,-9.8625,,adl
12.793941,-0.0061,0.005,0.0029,0.0003,-0.0027,-0.0001,-26.6063,-35.85,-9.8625,,adl
12.796077,-0.0056,-0.0,-0.0062,0.0003,-0.0027,-0.0001,-26.6063,-35.85,-9.8625,,adl
12.835398,-0.0056,-0.0,-0.0062,0.0003,-0.0027,-0.0001,-26.6625,-35.9062,-9.9375,,adl
12.838062,-0.0056,-0.0,-0.0062,0.0003,-0.0027,-0.0001,-26.6625,-35.9062,-9.9375,,adl
12.854444,-0.0056,-0.0,-0.0062,0.0003,-0.0012,-0.0005,-26.6625,-35.9062,-9.9375,,adl
12.857269,-0.002,-0.0026,-0.0071,0.0003,-0.0012,-0.0005,-26.6625,-35.9062,-9.9375,,adl
12.894188,-0.002,-0.0026,-0.0071,0.0003,-0.0012,-0.0005,-26.6625,-35.9062,-9.9375,,adl
12.897576,-0.002,-0.0026,-0.0071,0.0003,-0.0012,-0.0005,-26.6438,-35.9062,-9.9938,,adl
12.914909,-0.002,-0.0026,-0.0071,0.0003,-0.0019,0.0005,-26.6438,-35.9062,-9.9938,,adl
12.934585,-0.0002,-0.0024,-0.0029,0.0003,-0.0019,0.0005,-26.6438,-35.9062,-9.9938,,adl
12.954204,-0.0002,-0.0024,-0.0029,0.0003,-0.0019,0.0005,-26.6813,-36.0,-9.9563,,adl
12.956877,-0.0002,-0.0024,-0.0029,0.0003,-0.0019,0.0005,-26.6813,-36.0,-9.9563,,adl
12.977288,-0.0002,-0.0024,-0.0029,0.0003,-0.0001,0.0005,-26.6813,-36.0,-9.9563,,adl
12.996609,-0.0019,0.0007,-0.0038,0.0003,-0.0001,0.0005,-26.6813,-36.0,-9.9563,,adl
13.012863,-0.0019,0.0007,-0.0038,0.0003,-0.0001,0.0005,-26.7,-35.9062,-10.1063,,adl
13.015369,-0.0019,0.0007,-0.0038,0.0003,-0.0001,0.0005,-26.7,-35.9062,-10.1063,,adl
13.037484,-0.0019,0.0007,-0.0038,0.0003,-0.0012,0.0009,-26.7,-35.9062,-10.1063,,adl
13.057445,0.0021,0.0044,-0.0029,0.0003,-0.0012,0.0009,-26.7,-35.9062,-10.1063,,adl
13.073454,0.0021,0.0044,-0.0029,0.0003,-0.0012,0.0009,-26.7563,-35.8313,-10.2938,,adl
13.078508,0.0021,0.0044,-0.0029,0.0003,-0.0012,0.0009,-26.7563,-35.8313,-10.2938,,adl
13.097167,0.0021,0.0044,-0.0029,-0.0008,-0.0012,-0.0001,-26.7563,-35.8313,-10.2938,,adl
13.133915,0.0021,0.0044,-0.0029,-0.0008,-0.0012,-0.0001,-26.925,-35.8875,-10.3688,,adl
13.138095,0.0021,0.0044,-0.0029,-0.0008,-0.0012,-0.0001,-26.925,-35.8875,-10.3688,,adl
13.140746,0.0007,0.0015,-0.0023,-0.0008,-0.0012,-0.0001,-26.925,-35.8875,-10.3688,,adl
13.157506,0.0007,0.0015,-0.0023,0.0003,0.0045,0.0013,-26.925,-35.8875,-10.3688,,adl
13.192639,0.0007,0.0015,-0.0023,0.0003,0.0045,0.0013,-27.0563,-35.8688,-10.5,,adl
13.197184,0.0007,0.0015,-0.0023,0.0003,0.0045,0.0013,-27.0563,-35.8688,-10.5,,adl
13.198357,-0.0042,-0.0072,0.0102,0.0003,0.0045,0.0013,-27.0563,-35.8688,-10.5,,adl
13.218885,-0.0042,-0.0072,0.0102,-0.0001,0.0037,0.0009,-27.0563,-35.8688,-10.5,,adl
13.251833,-0.0042,-0.0072,0.0102,-0.0001,0.0037,0.0009,-27.0938,-35.8125,-10.65,,adl
13.260687,-0.0061,0.0003,-0.003,-0.0001,0.0037,0.0009,-27.0938,-35.8125,-10.65,,adl
13.262262,-0.0061,0.0003,-0.003,-0.0001,0.0037,0.0009,-27.0938,-35.8125,-10.65,,adl
13.278932,-0.0061,0.0003,-0.003,-0.0005,-0.0029,-0.0008,-27.0938,-35.8125,-10.65,,adl
13.312104,-0.0061,0.0003,-0.003,-0.0005,-0.0029,-0.0008,-27.15,-35.7563,-10.7438,,adl
13.319756,-0.0061,0.0003,-0.003,-0.0005,-0.0029,-0.0008,-27.15,-35.7563,-10.7438,,adl
13.321538,-0.0122,-0.0054,-0.0044,-0.0005,-0.0029,-0.0008,-27.15,-35.7563,-10.7438,,adl
13.339638,-0.0122,-0.0054,-0.0044,0.0013,0.0016,0.0013,-27.15,-35.7563,-10.7438,,adl
13.371519,-0.0122,-0.0054,-0.0044,0.0013,0.0016,0.0013,-27.1688,-35.6063,-10.9313,,adl
13.380793,-0.0122,-0.0054,-0.0044,0.0013,0.0016,0.0013,-27.1688,-35.6063,-10.9313,,adl
13.401221,-0.0122,-0.0054,-0.0044,0.0009,-0.0051,-0.0001,-27.1688,-35.6063,-10.9313,,adl
13.403535,-0.0035,-0.0053,0.0041,0.0009,-0.0051,-0.0001,-27.1688,-35.6063,-10.9313,,adl
13.432236,-0.0035,-0.0053,0.0041,0.0009,-0.0051,-0.0001,-27.1313,-35.4563,-11.175,,adl
13.443771,-0.0035,-0.0053,0.0041,0.0009,-0.0051,-0.0001,-27.1313,-35.4563,-11.175,,adl
13.462137,-0.0035,-0.0053,0.0041,0.0005,-0.0019,0.0005,-27.1313,-35.4563,-11.175,,adl
13.464443,0.0027,0.0,-0.0035,0.0005,-0.0019,0.0005,-27.1313,-35.4563,-11.175,,adl
13.493552,0.0027,0.0,-0.0035,0.0005,-0.0019,0.0005,-27.2063,-35.4938,-11.3063,,adl
13.502551,0.0027,0.0,-0.0035,0.0005,-0.0019,0.0005,-27.2063,-35.4938,-11.3063,,adl
13.522852,0.0027,0.0,-0.0035,0.0005,-0.0027,0.0005,-27.2063,-35.4938,-11.3063,,adl
13.524659,0.0012,0.0002,0.0001,0.0005,-0.0027,0.0005,-27.2063,-35.4938,-11.3063,,adl
13.552155,0.0012,0.0002,0.0001,0.0005,-0.0027,0.0005,-27.1875,-35.4375,-11.5125,,adl
13.563725,0.0012,0.0002,0.0001,0.0005,-0.0027,0.0005,-27.1875,-35.4375,-11.5125,,adl
13.584066,0.0012,0.0002,0.0001,0.0003,0.0003,0.0013,-27.1875,-35.4375,-11.5125,,adl
13.60413,-0.0074,0.001,0.0009,0.0003,0.0003,0.0013,-27.1875,-35.4375,-11.5125,,adl
13.613575,-0.0074,0.001,0.0009,0.0003,0.0003,0.0013,-27.3,-35.2688,-11.5125,,adl
13.624427,-0.0074,0.001,0.0009,0.0003,0.0003,0.0013,-27.3,-35.2688,-11.5125,,adl
13.644303,-0.0074,0.001,0.0009,0.0003,-0.0005,0.0003,-27.3,-35.2688,-11.5125,,adl
13.664699,-0.0019,0.0014,0.0053,0.0003,-0.0005,0.0003,-27.3,-35.2688,-11.5125,,adl
13.670623,-0.0019,0.0014,0.0053,0.0003,-0.0005,0.0003,-27.3563,-35.1562,-11.6438,,adl
13.686113,-0.0019,0.0014,0.0053,0.0003,-0.0005,0.0003,-27.3563,-35.1562,-11.6438,,adl
13.707394,-0.0019,0.0014,0.0053,0.0005,-0.0019,0.0009,-27.3563,-35.1562,-11.6438,,adl
13.72696,-0.0008,-0.0006,-0.0053,0.0005,-0.0019,0.0009,-27.3563,-35.1562,-11.6438,,adl
13.732203,-0.0008,-0.0006,-0.0053,0.0005,-0.0019,0.0009,-27.5063,-35.2313,-11.7188,,adl
13.746319,-0.0008,-0.0006,-0.0053,0.0005,-0.0019,0.0009,-27.5063,-35.2313,-11.7188,,adl
13.76879,-0.0008,-0.0006,-0.0053,-0.0001,-0.0008,0.0013,-27.5063,-35.2313,-11.7188,,adl
13.789398,-0.0018,-0.0028,0.0037,-0.0001,-0.0008,0.0013,-27.5063,-35.2313,-11.7188,,adl
13.7927,-0.0018,-0.0028,0.0037,-0.0001,-0.0008,0.0013,-27.3938,-35.3438,-11.4563,,adl
13.809011,-0.0018,-0.0028,0.0037,-0.0001,-0.0008,0.0013,-27.3938,-35.3438,-11.4563,,adl
13.829605,-0.0018,-0.0028,0.0037,-0.0001,-0.0051,-0.0005,-27.3938,-35.3438,-11.4563,,adl
13.852825,-0.0018,-0.0028,0.0037,-0.0001,-0.0051,-0.0005,-27.3938,-35.475,-11.4188,,adl
13.868918,-0.0046,-0.0026,0.0019,-0.0001,-0.0051,-0.0005,-27.3938,-35.475,-11.4188,,adl
13.870786,-0.0046,-0.0026,0.0019,-0.0001,-0.0051,-0.0005,-27.3938,-35.475,-11.4188,,adl
13.890368,-0.0046,-0.0026,0.0019,0.0037,-0.0115,-0.0001,-27.3938,-35.475,-11.4188,,adl
13.914205,-0.0046,-0.0026,0.0019,0.0037,-0.0115,-0.0001,-27.45,-35.625,-11.2875,,adl
13.930887,-0.0046,-0.0026,0.0019,0.0037,-0.0115,-0.0001,-27.45,-35.625,-11.2875,,adl
13.934979,-0.0101,-0.0066,0.001,0.0037,-0.0115,-0.0001,-27.45,-35.625,-11.2875,,adl
13.949129,-0.0101,-0.0066,0.001,0.0037,0.0429,0.008,-27.45,-35.625,-11.2875,,adl
13.972404,-0.0101,-0.0066,0.001,0.0037,0.0429,0.008,-27.3938,-35.6813,-11.2125,,adl
13.990784,-0.0101,-0.0066,0.001,0.0037,0.0429,0.008,-27.3938,-35.6813,-11.2125,,adl
13.993151,0.0379,-0.004,0.0093,0.0037,0.0429,0.008,-27.3938,-35.6813,-11.2125,,adl
14.012922,0.0379,-0.004,0.0093,-0.0027,-0.027,-0.0051,-27.3938,-35.6813,-11.2125,,adl
14.034102,0.0379,-0.004,0.0093,-0.0027,-0.027,-0.0051,-27.3938,-35.775,-10.9688,,adl
14.053746,0.0379,-0.004,0.0093,-0.0027,-0.027,-0.0051,-27.3938,-35.775,-10.9688,,adl
14.073592,0.0379,-0.004,0.0093,0.0009,0.0169,0.0031,-27.3938,-35.775,-10.9688,,adl
14.076545,-0.0497,0.0049,-0.0272,0.0009,0.0169,0.0031,-27.3938,-35.775,-10.9688,,adl
14.095797,-0.0497,0.0049,-0.0272,0.0009,0.0169,0.0031,-27.3,-35.925,-10.8375,,adl
14.114115,-0.0497,0.0049,-0.0272,0.0009,0.0169,0.0031,-27.3,-35.925,-10.8375,,adl
14.13387,-0.0497,0.0049,-0.0272,-0.0012,-0.0048,-0.0012,-27.3,-35.925,-10.8375,,adl
14.138083,0.0068,-0.0077,0.0293,-0.0012,-0.0048,-0.0012,-27.3,-35.925,-10.8375,,adl
14.154433,0.0068,-0.0077,0.0293,-0.0012,-0.0048,-0.0012,-27.075,-36.0,-10.575,,adl
14.17279,0.0068,-0.0077,0.0293,-0.0012,-0.0048,-0.0012,-27.075,-36.0,-10.575,,adl
14.193236,0.0068,-0.0077,0.0293,0.0003,0.0052,0.0013,-27.075,-36.0,-10.575,,adl
14.195887,-0.0111,0.0063,-0.015,0.0003,0.0052,0.0013,-27.075,-36.0,-10.575,,adl
14.213725,-0.0111,0.0063,-0.015,0.0003,0.0052,0.0013,-26.8688,-35.9438,-10.425,,adl
14.234372,-0.0111,0.0063,-0.015,0.0003,0.0052,0.0013,-26.8688,-35.9438,-10.425,,adl
14.254824,-0.0111,0.0063,-0.015,0.0009,-0.0008,0.0013,-26.8688,-35.9438,-10.425,,adl
14.257409,0.0055,-0.0062,0.0005,0.0009,-0.0008,0.0013,-26.8688,-35.9438,-10.425,,adl
14.273153,0.0055,-0.0062,0.0005,0.0009,-0.0008,0.0013,-26.9063,-35.8313,-10.6125,,adl
14.295415,0.0055,-0.0062,0.0005,0.0009,-0.0008,0.0013,-26.9063,-35.8313,-10.6125,,adl
14.315629,0.0055,-0.0062,0.0005,-0.0001,-0.0051,0.0003,-26.9063,-35.8313,-10.6125,,adl
14.333196,0.0055,-0.0062,0.0005,-0.0001,-0.0051,0.0003,-26.85,-35.8688,-10.5375,,adl
14.336775,-0.0116,-0.009,0.0012,-0.0001,-0.0051,0.0003,-26.85,-35.8688,-10.5375,,adl
14.356608,-0.0116,-0.009,0.0012,-0.0001,-0.0051,0.0003,-26.85,-35.8688,-10.5375,,adl
14.377113,-0.0116,-0.009,0.0012,0.0005,0.0009,0.0013,-26.85,-35.8688,-10.5375,,adl
14.393489,-0.0116,-0.009,0.0012,0.0005,0.0009,0.0013,-26.8688,-35.8688,-10.4625,,adl
14.395791,0.0029,-0.0045,-0.0126,0.0005,0.0009,0.0013,-26.8688,-35.8688,-10.4625,,adl
14.418781,0.0029,-0.0045,-0.0126,0.0005,0.0009,0.0013,-26.8688,-35.8688,-10.4625,,adl
14.436885,0.0029,-0.0045,-0.0126,-0.0001,-0.0023,0.0003,-26.8688,-35.8688,-10.4625,,adl
14.454158,0.0029,-0.0045,-0.0126,-0.0001,-0.0023,0.0003,-26.6625,-35.6438,-10.5,,adl
14.456453,-0.0066,0.0001,-0.0018,-0.0001,-0.0023,0.0003,-26.6625,-35.6438,-10.5,,adl
14.478074,-0.0066,0.0001,-0.0018,-0.0001,-0.0023,0.0003,-26.6625,-35.6438,-10.5,,adl
14.498135,-0.0066,0.0001,-0.0018,-0.0001,0.0013,0.0013,-26.6625,-35.6438,-10.5,,adl
14.512815,-0.0066,0.0001,-0.0018,-0.0001,0.0013,0.0013,-26.5688,-35.55,-10.6313,,adl
14.540313,-0.0066,0.0001,-0.0018,-0.0001,0.0013,0.0013,-26.5688,-35.55,-10.6313,,adl
14.542548,-0.0032,0.0011,-0.0013,-0.0001,0.0013,0.0013,-26.5688,-35.55,-10.6313,,adl
14.558983,-0.0032,0.0011,-0.0013,0.0003,-0.0005,-0.0001,-26.5688,-35.55,-10.6313,,adl
14.573414,-0.0032,0.0011,-0.0013,0.0003,-0.0005,-0.0001,-26.4563,-35.4938,-10.5938,,adl
14.599024,-0.0032,0.0011,-0.0013,0.0003,-0.0005,-0.0001,-26.4563,-35.4938,-10.5938,,adl
14.600573,-0.0064,-0.007,-0.0042,0.0003,-0.0005,-0.0001,-26.4563,-35.4938,-10.5938,,adl
14.619281,-0.0064,-0.007,-0.0042,0.0003,-0.0012,-0.0001,-26.4563,-35.4938,-10.5938,,adl
14.63276,-0.0064,-0.007,-0.0042,0.0003,-0.0012,-0.0001,-26.5875,-35.4563,-10.725,,adl
14.663073,-0.0064,-0.007,-0.0042,0.0003,-0.0012,-0.0001,-26.5875,-35.4563,-10.725,,adl
14.666274,-0.0024,-0.0011,0.0042,0.0003,-0.0012,-0.0001,-26.5875,-35.4563,-10.725,,adl
14.680771,-0.0024,-0.0011,0.0042,-0.0044,0.0165,0.0031,-26.5875,-35.4563,-10.725,,adl
14.692199,-0.0024,-0.0011,0.0042,-0.0044,0.0165,0.0031,-26.775,-35.5312,-10.8,,adl
14.722261,-0.0024,-0.0011,0.0042,-0.0044,0.0165,0.0031,-26.775,-35.5312,-10.8,,adl
14.725584,0.0124,0.0108,0.0022,-0.0044,0.0165,0.0031,-26.775,-35.5312,-10.8,,adl
14.741074,0.0124,0.0108,0.0022,-0.0027,0.0099,0.0024,-26.775,-35.5312,-10.8,,adl
14.75332,0.0124,0.0108,0.0022,-0.0027,0.0099,0.0024,-26.7938,-35.55,-10.7625,,adl
14.782728,0.0124,0.0108,0.0022,-0.0027,0.0099,0.0024,-26.7938,-35.55,-10.7625,,adl
14.802961,0.0124,0.0108,0.0022,-0.0016,-0.0005,-0.0005,-26.7938,-35.55,-10.7625,,adl
14.805421,-0.0179,-0.0032,0.0025,-0.0016,-0.0005,-0.0005,-26.7938,-35.55,-10.7625,,adl
14.814751,-0.0179,-0.0032,0.0025,-0.0016,-0.0005,-0.0005,-26.85,-35.5875,-10.7438,,adl
14.843739,-0.0179,-0.0032,0.0025,-0.0016,-0.0005,-0.0005,-26.85,-35.5875,-10.7438,,adl
14.863428,-0.0179,-0.0032,0.0025,0.0003,-0.0048,-0.0001,-26.85,-35.5875,-10.7438,,adl
14.865212,-0.0069,0.0009,-0.0066,0.0003,-0.0048,-0.0001,-26.85,-35.5875,-10.7438,,adl
14.872536,-0.0069,0.0009,-0.0066,0.0003,-0.0048,-0.0001,-26.925,-35.6625,-10.7812,,adl
14.906415,-0.0069,0.0009,-0.0066,0.0003,-0.0048,-0.0001,-26.925,-35.6625,-10.7812,,adl
14.925399,-0.0069,0.0009,-0.0066,-0.0016,0.0048,-0.0001,-26.925,-35.6625,-10.7812,,adl
14.926798,-0.0048,-0.0046,-0.0149,-0.0016,0.0048,-0.0001,-26.925,-35.6625,-10.7812,,adl
14.93198,-0.0048,-0.0046,-0.0149,-0.0016,0.0048,-0.0001,-27.0563,-35.775,-10.6313,,adl
14.964519,-0.0048,-0.0046,-0.0149,-0.0016,0.0048,-0.0001,-27.0563,-35.775,-10.6313,,adl
14.98657,-0.0048,-0.0046,-0.0149,-0.0005,0.0013,0.0003,-27.0563,-35.775,-10.6313,,adl
14.989462,-0.0058,-0.0016,0.0084,-0.0005,0.0013,0.0003,-27.0563,-35.775,-10.6313,,adl
14.991705,-0.0058,-0.0016,0.0084,-0.0005,0.0013,0.0003,-27.1875,-36.0188,-10.4813,,adl
15.026505,-0.0058,-0.0016,0.0084,-0.0005,0.0013,0.0003,-27.1875,-36.0188,-10.4813,,adl
15.045693,-0.0058,-0.0016,0.0084,0.0005,-0.004,-0.0012,-27.1875,-36.0188,-10.4813,,adl
15.056536,-0.0058,-0.0016,0.0084,0.0005,-0.004,-0.0012,-27.3,-36.0938,-10.6125,,adl
15.067056,-0.0066,0.0004,-0.0016,0.0005,-0.004,-0.0012,-27.3,-36.0938,-10.6125,,adl
15.088644,-0.0066,0.0004,-0.0016,0.0005,-0.004,-0.0012,-27.3,-36.0938,-10.6125,,adl
15.106993,-0.0066,0.0004,-0.0016,-0.0012,0.0009,0.002,-27.3,-36.0938,-10.6125,,adl
15.110339,-0.0066,0.0004,-0.0016,-0.0012,0.0009,0.002,-27.2625,-36.0938,-10.5375,,adl
15.128417,-0.0086,-0.0017,0.0052,-0.0012,0.0009,0.002,-27.2625,-36.0938,-10.5375,,adl
15.147143,-0.0086,-0.0017,0.0052,-0.0012,0.0009,0.002,-27.2625,-36.0938,-10.5375,,adl
15.168122,-0.0086,-0.0017,0.0052,0.0027,-0.0008,0.0052,-27.2625,-36.0938,-10.5375,,adl
15.173208,-0.0086,-0.0017,0.0052,0.0027,-0.0008,0.0052,-27.225,-36.1688,-10.5,,adl
15.187653,-0.0083,-0.0152,0.0119,0.0027,-0.0008,0.0052,-27.225,-36.1688,-10.5,,adl
15.209882,-0.0083,-0.0152,0.0119,0.0027,-0.0008,0.0052,-27.225,-36.1688,-10.5,,adl
15.229957,-0.0083,-0.0152,0.0119,-0.0029,-0.0061,-0.0048,-27.225,-36.1688,-10.5,,adl
15.232708,-0.0083,-0.0152,0.0119,-0.0029,-0.0061,-0.0048,-27.2063,-36.0375,-10.5375,,adl
15.271605,-0.0083,-0.0152,0.0119,-0.0029,-0.0061,-0.0048,-27.2063,-36.0375,-10.5375,,adl
15.274875,-0.0027,0.025,-0.025,-0.0029,-0.0061,-0.0048,-27.2063,-36.0375,-10.5375,,adl
15.290845,-0.0027,0.025,-0.025,-0.0037,0.0024,-0.0008,-27.2063,-36.0375,-10.5375,,adl
15.293766,-0.0027,0.025,-0.025,-0.0037,0.0024,-0.0008,-27.2813,-35.9438,-10.7063,,adl
15.333295,-0.0027,0.025,-0.025,-0.0037,0.0024,-0.0008,-27.2813,-35.9438,-10.7063,,adl
15.336567,-0.0079,-0.0122,0.002,-0.0037,0.0024,-0.0008,-27.2813,-35.9438,-10.7063,,adl
15.350323,-0.0079,-0.0122,0.002,0.0069,-0.0019,0.0105,-27.2813,-35.9438,-10.7063,,adl
15.353104,-0.0079,-0.0122,0.002,0.0069,-0.0019,0.0105,-27.2438,-35.8688,-10.6313,,adl
15.394066,-0.0079,-0.0122,0.002,0.0069,-0.0019,0.0105,-27.2438,-35.8688,-10.6313,,adl
15.3974,-0.0237,-0.0377,0.0227,0.0069,-0.0019,0.0105,-27.2438,-35.8688,-10.6313,,adl
15.412096,-0.0237,-0.0377,0.0227,0.0069,-0.0019,0.0105,-27.1875,-35.8313,-10.5375,,adl
15.413716,-0.0237,-0.0377,0.0227,-0.0023,-0.0008,-0.0033,-27.1875,-35.8313,-10.5375,,adl
15.453501,0.0211,0.0512,-0.0313,-0.0023,-0.0008,-0.0033,-27.1875,-35.8313,-10.5375,,adl
15.455822,0.0211,0.0512,-0.0313,-0.0023,-0.0008,-0.0033,-27.1875,-35.8313,-10.5375,,adl
15.472769,0.0211,0.0512,-0.0313,-0.0023,-0.0008,-0.0033,-26.925,-35.6438,-10.425,,adl
15.474122,0.0211,0.0512,-0.0313,-0.0055,-0.0019,-0.0027,-26.925,-35.6438,-10.425,,adl
15.516412,0.0211,0.0512,-0.0313,-0.0055,-0.0019,-0.0027,-26.925,-35.6438,-10.425,,adl
15.53543,0.0211,0.0512,-0.0313,-0.0055,-0.0019,-0.0027,-26.9063,-35.5875,-10.3313,,adl
15.537781,-0.0158,-0.0229,0.0159,-0.0055,-0.0019,-0.0027,-26.9063,-35.5875,-10.3313,,adl
15.539498,-0.0158,-0.0229,0.0159,0.0088,-0.0027,0.0095,-26.9063,-35.5875,-10.3313,,adl
15.575646,-0.0158,-0.0229,0.0159,0.0088,-0.0027,0.0095,-26.9063,-35.5875,-10.3313,,adl
15.59262,-0.0158,-0.0229,0.0159,0.0088,-0.0027,0.0095,-27.0563,-35.7,-10.3125,,adl
15.594744,-0.0071,-0.0171,-0.0065,0.0088,-0.0027,0.0095,-27.0563,-35.7,-10.3125,,adl
15.596264,-0.0071,-0.0171,-0.0065,-0.004,-0.0119,-0.008,-27.0563,-35.7,-10.3125,,adl
15.637604,-0.0071,-0.0171,-0.0065,-0.004,-0.0119,-0.008,-27.0563,-35.7,-10.3125,,adl
15.654331,-0.0071,-0.0171,-0.0065,-0.004,-0.0119,-0.008,-27.0188,-35.7188,-10.2375,,adl
15.65657,-0.0071,-0.0171,-0.0065,-0.0027,-0.014,-0.0051,-27.0188,-35.7188,-10.2375,,adl
15.657627,-0.0062,0.0338,-0.0219,-0.0027,-0.014,-0.0051,-27.0188,-35.7188,-10.2375,,adl
15.698106,-0.0062,0.0338,-0.0219,-0.0027,-0.014,-0.0051,-27.0188,-35.7188,-10.2375,,adl
15.712861,-0.0062,0.0338,-0.0219,-0.0027,-0.014,-0.0051,-27.075,-35.8688,-10.1063,,adl
15.71553,-0.0062,0.0338,-0.0219,0.0091,0.0218,0.0216,-27.075,-35.8688,-10.1063,,adl
15.737634,-0.0037,-0.0573,0.0374,0.0091,0.0218,0.0216,-27.075,-35.8688,-10.1063,,adl
15.758608,-0.0037,-0.0573,0.0374,0.0091,0.0218,0.0216,-27.075,-35.8688,-10.1063,,adl
15.77324,-0.0037,-0.0573,0.0374,0.0091,0.0218,0.0216,-26.9813,-35.8125,-9.825,,adl
15.777937,-0.0037,-0.0573,0.0374,-0.0065,-0.0125,-0.0123,-26.9813,-35.8125,-9.825,,adl
15.797725,-0.0026,0.0041,0.0078,-0.0065,-0.0125,-0.0123,-26.9813,-35.8125,-9.825,,adl
15.819442,-0.0026,0.0041,0.0078,-0.0065,-0.0125,-0.0123,-26.9813,-35.8125,-9.825,,adl
15.8346,-0.0026,0.0041,0.0078,-0.0065,-0.0125,-0.0123,-27.0938,-35.7938,-9.9375,,adl
15.837268,-0.0026,0.0041,0.0078,-0.008,-0.0161,-0.0154,-27.0938,-35.7938,-9.9375,,adl
15.858254,0.0142,0.087,-0.0781,-0.008,-0.0161,-0.0154,-27.0938,-35.7938,-9.9375,,adl
15.879612,0.0142,0.087,-0.0781,-0.008,-0.0161,-0.0154,-27.0938,-35.7938,-9.9375,,adl
15.892818,0.0142,0.087,-0.0781,-0.008,-0.0161,-0.0154,-27.2625,-35.925,-10.2563,,adl
15.89869,0.0142,0.087,-0.0781,0.0088,0.0222,0.0276,-27.2625,-35.925,-10.2563,,adl
15.920162,-0.0145,-0.1079,0.0678,0.0088,0.0222,0.0276,-27.2625,-35.925,-10.2563,,adl
15.946323,-0.0145,-0.1079,0.0678,0.0088,0.0222,0.0276,-27.2625,-35.925,-10.2563,,adl
15.953688,-0.0145,-0.1079,0.0678,0.0088,0.0222,0.0276,-27.5438,-36.075,-10.4625,,adl
15.964563,-0.0145,-0.1079,0.0678,0.0013,0.0244,0.0013,-27.5438,-36.075,-10.4625,,adl
16.000904,-0.0145,-0.1079,0.0678,0.0013,0.0244,0.0013,-27.5438,-36.075,-10.4625,,adl
16.003783,0.0578,0.0384,-0.0055,0.0013,0.0244,0.0013,-27.5438,-36.075,-10.4625,,adl
16.013782,0.0578,0.0384,-0.0055,0.0013,0.0244,0.0013,-27.6563,-36.0563,-10.5938,,adl
16.019302,0.0578,0.0384,-0.0055,-0.0069,-0.0406,-0.0161,-27.6563,-36.0563,-10.5938,,adl
16.063411,0.0578,0.0384,-0.0055,-0.0069,-0.0406,-0.0161,-27.6563,-36.0563,-10.5938,,adl
16.066999,-0.0729,0.0439,-0.0741,-0.0069,-0.0406,-0.0161,-27.6563,-36.0563,-10.5938,,adl
16.074649,-0.0729,0.0439,-0.0741,-0.0069,-0.0406,-0.0161,-27.4688,-36.0188,-10.5563,,adl
16.084354,-0.0729,0.0439,-0.0741,0.0077,0.0152,0.0201,-27.4688,-36.0188,-10.5563,,adl
16.123333,-0.0729,0.0439,-0.0741,0.0077,0.0152,0.0201,-27.4688,-36.0188,-10.5563,,adl
16.125313,0.0026,-0.0942,0.0886,0.0077,0.0152,0.0201,-27.4688,-36.0188,-10.5563,,adl
16.135634,0.0026,-0.0942,0.0886,0.0077,0.0152,0.0201,-27.45,-35.9062,-10.5563,,adl
16.142884,0.0026,-0.0942,0.0886,-0.0023,0.0084,-0.0037,-27.45,-35.9062,-10.5563,,adl
16.185045,0.0026,-0.0942,0.0886,-0.0023,0.0084,-0.0037,-27.45,-35.9062,-10.5563,,adl
16.191036,0.0026,-0.0942,0.0886,-0.0023,0.0084,-0.0037,-27.6375,-35.9813,-10.65,,adl
16.202166,0.0026,-0.0942,0.0886,-0.0072,-0.0281,-0.0157,-27.6375,-35.9813,-10.65,,adl
16.203494,0.0475,0.0961,-0.072,-0.0072,-0.0281,-0.0157,-27.6375,-35.9813,-10.65,,adl
16.246054,0.0475,0.0961,-0.072,-0.0072,-0.0281,-0.0157,-27.6375,-35.9813,-10.65,,adl
16.253376,0.0475,0.0961,-0.072,-0.0072,-0.0281,-0.0157,-27.6938,-35.9625,-10.8,,adl
16.26184,0.0475,0.0961,-0.072,0.0059,0.0009,0.0112,-27.6938,-35.9625,-10.8,,adl
16.263046,-0.0459,-0.0105,-0.0009,0.0059,0.0009,0.0112,-27.6938,-35.9625,-10.8,,adl
16.306035,-0.0459,-0.0105,-0.0009,0.0059,0.0009,0.0112,-27.6938,-35.9625,-10.8,,adl
16.310686,-0.0459,-0.0105,-0.0009,0.0059,0.0009,0.0112,-27.6375,-35.925,-10.9125,,adl
16.325841,-0.0459,-0.0105,-0.0009,0.0069,0.0218,0.0148,-27.6375,-35.925,-10.9125,,adl
16.327039,0.0067,-0.0807,0.0603,0.0069,0.0218,0.0148,-27.6375,-35.925,-10.9125,,adl
16.368527,0.0067,-0.0807,0.0603,0.0069,0.0218,0.0148,-27.6375,-35.925,-10.9125,,adl
16.373053,0.0067,-0.0807,0.0603,0.0069,0.0218,0.0148,-27.4688,-35.775,-10.8375,,adl
16.38568,0.0067,-0.0807,0.0603,-0.008,-0.0253,-0.0189,-27.4688,-35.775,-10.8375,,adl
16.386912,0.0134,0.0497,-0.0323,-0.008,-0.0253,-0.0189,-27.4688,-35.775,-10.8375,,adl
16.428397,0.0134,0.0497,-0.0323,-0.008,-0.0253,-0.0189,-27.4688,-35.775,-10.8375,,adl
16.431436,0.0134,0.0497,-0.0323,-0.008,-0.0253,-0.0189,-27.375,-35.7,-10.8188,,adl
16.447304,0.0134,0.0497,-0.0323,-0.0023,-0.0238,-0.0129,-27.375,-35.7,-10.8188,,adl
16.467093,-0.0394,0.0711,-0.0647,-0.0023,-0.0238,-0.0129,-27.375,-35.7,-10.8188,,adl
16.486913,-0.0394,0.0711,-0.0647,-0.0023,-0.0238,-0.0129,-27.375,-35.7,-10.8188,,adl
16.49419,-0.0394,0.0711,-0.0647,-0.0023,-0.0238,-0.0129,-27.3188,-35.775,-10.7625,,adl
16.507235,-0.0394,0.0711,-0.0647,0.0048,0.0261,0.0184,-27.3188,-35.775,-10.7625,,adl
16.529905,0.0325,-0.0638,0.0493,0.0048,0.0261,0.0184,-27.3188,-35.775,-10.7625,,adl
16.5498,0.0325,-0.0638,0.0493,0.0048,0.0261,0.0184,-27.3188,-35.775,-10.7625,,adl
16.553039,0.0325,-0.0638,0.0493,0.0048,0.0261,0.0184,-27.4875,-35.8313,-10.6313,,adl
16.568253,0.0325,-0.0638,0.0493,0.0077,0.0109,0.0133,-27.4875,-35.8313,-10.6313,,adl
16.589559,-0.0273,-0.0569,0.0485,0.0077,0.0109,0.0133,-27.4875,-35.8313,-10.6313,,adl
16.608238,-0.0273,-0.0569,0.0485,0.0077,0.0109,0.0133,-27.4875,-35.8313,-10.6313,,adl
16.612934,-0.0273,-0.0569,0.0485,0.0077,0.0109,0.0133,-27.4688,-35.8688,-10.7063,,adl
16.627635,-0.0273,-0.0569,0.0485,-0.004,-0.0157,-0.0115,-27.4688,-35.8688,-10.7063,,adl
16.670822,-0.0273,-0.0569,0.0485,-0.004,-0.0157,-0.0115,-27.4688,-35.8688,-10.7063,,adl
16.67293,-0.0091,0.0633,-0.057,-0.004,-0.0157,-0.0115,-27.4688,-35.8688,-10.7063,,adl
16.674062,-0.0091,0.0633,-0.057,-0.004,-0.0157,-0.0115,-27.3375,-35.7563,-10.8375,,adl
16.689724,-0.0091,0.0633,-0.057,-0.0037,-0.0093,-0.0101,-27.3375,-35.7563,-10.8375,,adl
16.731591,-0.0091,0.0633,-0.057,-0.0037,-0.0093,-0.0101,-27.3375,-35.7563,-10.8375,,adl
16.734742,0.0058,0.0079,-0.0048,-0.0037,-0.0093,-0.0101,-27.3375,-35.7563,-10.8375,,adl
16.736921,0.0058,0.0079,-0.0048,-0.0037,-0.0093,-0.0101,-27.225,-35.775,-10.7438,,adl
16.750227,0.0058,0.0079,-0.0048,0.0009,0.0037,0.0045,-27.225,-35.775,-10.7438,,adl
16.7933,0.0058,0.0079,-0.0048,0.0009,0.0037,0.0045,-27.0375,-35.7938,-10.7625,,adl
16.79649,0.0058,0.0079,-0.0048,0.0009,0.0037,0.0045,-27.0375,-35.7938,-10.7625,,adl
16.798469,0.0018,-0.0386,0.0287,0.0009,0.0037,0.0045,-27.0375,-35.7938,-10.7625,,adl
16.811751,0.0018,-0.0386,0.0287,0.0041,0.0077,0.008,-27.0375,-35.7938,-10.7625,,adl
16.855229,0.0018,-0.0386,0.0287,0.0041,0.0077,0.008,-27.1125,-35.7563,-10.7812,,adl
16.858721,-0.0037,-0.0055,-0.0079,0.0041,0.0077,0.008,-27.1125,-35.7563,-10.7812,,adl
16.861022,-0.0037,-0.0055,-0.0079,0.0041,0.0077,0.008,-27.1125,-35.7563,-10.7812,,adl
16.872317,-0.0037,-0.0055,-0.0079,0.0009,-0.0083,-0.0019,-27.1125,-35.7563,-10.7812,,adl
16.914389,-0.0037,-0.0055,-0.0079,0.0009,-0.0083,-0.0019,-27.0938,-35.7563,-10.7438,,adl
16.91781,-0.0037,-0.0055,-0.0079,0.0009,-0.0083,-0.0019,-27.0938,-35.7563,-10.7438,,adl
16.935628,-0.0037,-0.0055,-0.0079,-0.0019,-0.0091,-0.0059,-27.0938,-35.7563,-10.7438,,adl
16.937075,-0.0032,0.0183,-0.0131,-0.0019,-0.0091,-0.0059,-27.0938,-35.7563,-10.7438,,adl
16.974248,-0.0032,0.0183,-0.0131,-0.0019,-0.0091,-0.0059,-27.0938,-35.6625,-10.8938,,adl
16.975879,-0.0032,0.0183,-0.0131,-0.0019,-0.0091,-0.0059,-27.0938,-35.6625,-10.8938,,adl
16.994449,-0.0032,0.0183,-0.0131,-0.0001,0.002,0.0003,-27.0938,-35.6625,-10.8938,,adl
16.996308,-0.0148,-0.0015,-0.0013,-0.0001,0.002,0.0003,-27.0938,-35.6625,-10.8938,,adl
17.031604,-0.0148,-0.0015,-0.0013,-0.0001,0.002,0.0003,-27.0,-35.6438,-10.9688,,adl
17.035265,-0.0148,-0.0015,-0.0013,-0.0001,0.002,0.0003,-27.0,-35.6438,-10.9688,,adl
17.054975,-0.0148,-0.0015,-0.0013,0.0005,0.0067,0.0024,-27.0,-35.6438,-10.9688,,adl
17.057186,0.0055,-0.0086,0.0022,0.0005,0.0067,0.0024,-27.0,-35.6438,-10.9688,,adl
17.093393,0.0055,-0.0086,0.0022,0.0005,0.0067,0.0024,-27.0375,-35.7188,-10.9313,,adl
17.095686,0.0055,-0.0086,0.0022,0.0005,0.0067,0.0024,-27.0375,-35.7188,-10.9313,,adl
17.116384,0.0055,-0.0086,0.0022,-0.0005,-0.0019,-0.0005,-27.0375,-35.7188,-10.9313,,adl
17.136775,-0.0068,-0.0035,-0.0064,-0.0005,-0.0019,-0.0005,-27.0375,-35.7188,-10.9313,,adl
17.154374,-0.0068,-0.0035,-0.0064,-0.0005,-0.0019,-0.0005,-26.9625,-35.7188,-10.7625,,adl
17.156104,-0.0068,-0.0035,-0.0064,-0.0005,-0.0019,-0.0005,-26.9625,-35.7188,-10.7625,,adl
17.177753,-0.0068,-0.0035,-0.0064,-0.0005,-0.0037,-0.0008,-26.9625,-35.7188,-10.7625,,adl
17.197756,-0.0093,-0.002,-0.0001,-0.0005,-0.0037,-0.0008,-26.9625,-35.7188,-10.7625,,adl
17.211882,-0.0093,-0.002,-0.0001,-0.0005,-0.0037,-0.0008,-26.8875,-35.7375,-10.8375,,adl
17.217295,-0.0093,-0.002,-0.0001,-0.0005,-0.0037,-0.0008,-26.8875,-35.7375,-10.8375,,adl
17.236728,-0.0093,-0.002,-0.0001,-0.0001,-0.0005,0.0003,-26.8875,-35.7375,-10.8375,,adl
17.257672,-0.0098,0.0043,0.0053,-0.0001,-0.0005,0.0003,-26.8875,-35.7375,-10.8375,,adl
17.271754,-0.0098,0.0043,0.0053,-0.0001,-0.0005,0.0003,-27.0188,-35.6813,-10.8563,,adl
17.278043,-0.0098,0.0043,0.0053,-0.0001,-0.0005,0.0003,-27.0188,-35.6813,-10.8563,,adl
17.299823,-0.0098,0.0043,0.0053,-0.0023,-0.0005,-0.0012,-27.0188,-35.6813,-10.8563,,adl
17.318625,0.0057,-0.0021,0.0033,-0.0023,-0.0005,-0.0012,-27.0188,-35.6813,-10.8563,,adl
17.330649,0.0057,-0.0021,0.0033,-0.0023,-0.0005,-0.0012,-27.075,-35.775,-10.8938,,adl
17.340059,0.0057,-0.0021,0.0033,-0.0023,-0.0005,-0.0012,-27.075,-35.775,-10.8938,,adl
17.358328,0.0057,-0.0021,0.0033,0.0031,-0.0012,0.0035,-27.075,-35.775,-10.8938,,adl
17.392254,0.0057,-0.0021,0.0033,0.0031,-0.0012,0.0035,-27.2625,-35.7375,-11.025,,adl
17.401574,0.0057,-0.0021,0.0033,0.0031,-0.0012,0.0035,-27.2625,-35.7375,-11.025,,adl
17.403145,-0.0109,-0.0207,0.0038,0.0031,-0.0012,0.0035,-27.2625,-35.7375,-11.025,,adl
17.421854,-0.0109,-0.0207,0.0038,-0.0023,0.0016,-0.0008,-27.2625,-35.7375,-11.025,,adl
17.451445,-0.0109,-0.0207,0.0038,-0.0023,0.0016,-0.0008,-27.3563,-35.6063,-10.9313,,adl
17.461186,-0.0109,-0.0207,0.0038,-0.0023,0.0016,-0.0008,-27.3563,-35.6063,-10.9313,,adl
17.462584,-0.002,0.0108,-0.0027,-0.0023,0.0016,-0.0008,-27.3563,-35.6063,-10.9313,,adl
17.481343,-0.002,0.0108,-0.0027,-0.0008,0.002,-0.0016,-27.3563,-35.6063,-10.9313,,adl
17.511829,-0.002,0.0108,-0.0027,-0.0008,0.002,-0.0016,-27.4875,-35.6438,-11.2125,,adl
17.523549,-0.002,0.0108,-0.0027,-0.0008,0.002,-0.0016,-27.4875,-35.6438,-11.2125,,adl
17.525681,-0.0018,-0.0029,0.0013,-0.0008,0.002,-0.0016,-27.4875,-35.6438,-11.2125,,adl
17.541114,-0.0018,-0.0029,0.0013,-0.0001,0.002,-0.0001,-27.4875,-35.6438,-11.2125,,adl
17.572171,-0.0018,-0.0029,0.0013,-0.0001,0.002,-0.0001,-27.5438,-35.3625,-11.3625,,adl
17.582542,-0.0018,-0.0029,0.0013,-0.0001,0.002,-0.0001,-27.5438,-35.3625,-11.3625,,adl
17.603024,-0.0018,-0.0029,0.0013,-0.0008,0.002,0.0013,-27.5438,-35.3625,-11.3625,,adl
17.60443,0.0004,0.0022,0.0008,-0.0008,0.002,0.0013,-27.5438,-35.3625,-11.3625,,adl
17.632129,0.0004,0.0022,0.0008,-0.0008,0.002,0.0013,-27.5063,-35.2875,-11.475,,adl
17.64344,0.0004,0.0022,0.0008,-0.0008,0.002,0.0013,-27.5063,-35.2875,-11.475,,adl
17.66361,0.0004,0.0022,0.0008,0.0009,-0.0029,0.0016,-27.5063,-35.2875,-11.475,,adl
17.666496,-0.0026,-0.0022,-0.0094,0.0009,-0.0029,0.0016,-27.5063,-35.2875,-11.475,,adl
17.691536,-0.0026,-0.0022,-0.0094,0.0009,-0.0029,0.0016,-27.675,-35.2875,-11.6063,,adl
17.704904,-0.0026,-0.0022,-0.0094,0.0009,-0.0029,0.0016,-27.675,-35.2875,-11.6063,,adl
17.725104,-0.0026,-0.0022,-0.0094,-0.0005,-0.0037,-0.0008,-27.675,-35.2875,-11.6063,,adl
17.727441,-0.0092,0.0003,-0.0074,-0.0005,-0.0037,-0.0008,-27.675,-35.2875,-11.6063,,adl
17.752852,-0.0092,0.0003,-0.0074,-0.0005,-0.0037,-0.0008,-27.6188,-35.325,-11.5125,,adl
17.765689,-0.0092,0.0003,-0.0074,-0.0005,-0.0037,-0.0008,-27.6188,-35.325,-11.5125,,adl
17.784906,-0.0092,0.0003,-0.0074,-0.0001,-0.0019,0.0003,-27.6188,-35.325,-11.5125,,adl
17.786001,-0.0041,-0.0033,-0.0005,-0.0001,-0.0019,0.0003,-27.6188,-35.325,-11.5125,,adl
17.811038,-0.0041,-0.0033,-0.0005,-0.0001,-0.0019,0.0003,-27.6375,-35.3625,-11.475,,adl
17.825932,-0.0041,-0.0033,-0.0005,-0.0001,-0.0019,0.0003,-27.6375,-35.3625,-11.475,,adl
17.845779,-0.0041,-0.0033,-0.0005,0.0003,-0.0001,0.0005,-27.6375,-35.3625,-11.475,,adl
17.86601,-0.0006,0.0007,-0.0023,0.0003,-0.0001,0.0005,-27.6375,-35.3625,-11.475,,adl
17.870218,-0.0006,0.0007,-0.0023,0.0003,-0.0001,0.0005,-27.5438,-35.3813,-11.5312,,adl
17.886558,-0.0006,0.0007,-0.0023,0.0003,-0.0001,0.0005,-27.5438,-35.3813,-11.5312,,adl
17.906356,-0.0006,0.0007,-0.0023,0.0003,-0.0001,-0.0001,-27.5438,-35.3813,-11.5312,,adl
17.928179,-0.0054,-0.0007,0.0009,0.0003,-0.0001,-0.0001,-27.5438,-35.3813,-11.5312,,adl
17.930311,-0.0054,-0.0007,0.0009,0.0003,-0.0001,-0.0001,-27.5438,-35.325,-11.6813,,adl
17.947546,-0.0054,-0.0007,0.0009,0.0003,-0.0001,-0.0001,-27.5438,-35.325,-11.6813,,adl
17.9675,-0.0054,-0.0007,0.0009,0.0005,-0.0027,0.0009,-27.5438,-35.325,-11.6813,,adl
17.987576,-0.0078,-0.0054,-0.001,0.0005,-0.0027,0.0009,-27.5438,-35.325,-11.6813,,adl
17.991047,-0.0078,-0.0054,-0.001,0.0005,-0.0027,0.0009,-27.675,-34.9875,-11.9062,,adl
18.008263,-0.0078,-0.0054,-0.001,0.0005,-0.0027,0.0009,-27.675,-34.9875,-11.9062,,adl
18.028203,-0.0078,-0.0054,-0.001,0.0003,-0.0005,0.0005,-27.675,-34.9875,-11.9062,,adl
18.05086,-0.0078,-0.0054,-0.001,0.0003,-0.0005,0.0005,-27.7125,-35.025,-12.15,,adl
18.069065,-0.0078,-0.0054,-0.001,0.0003,-0.0005,0.0005,-27.7125,-35.025,-12.15,,adl
18.070291,-0.0058,-0.0008,0.0069,0.0003,-0.0005,0.0005,-27.7125,-35.025,-12.15,,adl
18.089663,-0.0058,-0.0008,0.0069,0.0003,-0.0037,0.0003,-27.7125,-35.025,-12.15,,adl
18.111688,-0.0058,-0.0008,0.0069,0.0003,-0.0037,0.0003,-27.7688,-34.9875,-12.5438,,adl
18.131602,-0.0058,-0.0008,0.0069,0.0003,-0.0037,0.0003,-27.7688,-34.9875,-12.5438,,adl
18.132335,0.0008,0.0108,-0.0069,0.0003,-0.0037,0.0003,-27.7688,-34.9875,-12.5438,,adl
18.151247,0.0008,0.0108,-0.0069,0.0016,-0.0023,0.0024,-27.7688,-34.9875,-12.5438,,adl
18.172249,0.0008,0.0108,-0.0069,0.0016,-0.0023,0.0024,-27.9,-34.8563,-12.6563,,adl
18.191874,0.0008,0.0108,-0.0069,0.0016,-0.0023,0.0024,-27.9,-34.8563,-12.6563,,adl
18.193195,-0.0068,-0.0113,0.0034,0.0016,-0.0023,0.0024,-27.9,-34.8563,-12.6563,,adl
18.212752,-0.0068,-0.0113,0.0034,0.0003,-0.0016,-0.0001,-27.9,-34.8563,-12.6563,,adl
18.231827,-0.0068,-0.0113,0.0034,0.0003,-0.0016,-0.0001,-28.0313,-34.9125,-12.7688,,adl
18.253105,-0.0068,-0.0113,0.0034,0.0003,-0.0016,-0.0001,-28.0313,-34.9125,-12.7688,,adl
18.254254,0.0015,0.0071,-0.0069,0.0003,-0.0016,-0.0001,-28.0313,-34.9125,-12.7688,,adl
18.272493,0.0015,0.0071,-0.0069,0.0013,0.0035,0.0009,-28.0313,-34.9125,-12.7688,,adl
18.291162,0.0015,0.0071,-0.0069,0.0013,0.0035,0.0009,-27.975,-34.8,-12.8625,,adl
18.313419,0.0015,0.0071,-0.0069,0.0013,0.0035,0.0009,-27.975,-34.8,-12.8625,,adl
18.333496,0.0015,0.0071,-0.0069,-0.0001,0.0009,-0.0005,-27.975,-34.8,-12.8625,,adl
18.335047,0.0011,0.0012,-0.0011,-0.0001,0.0009,-0.0005,-27.975,-34.8,-12.8625,,adl
18.353639,0.0011,0.0012,-0.0011,-0.0001,0.0009,-0.0005,-28.0313,-34.6875,-13.0875,,adl
18.374184,0.0011,0.0012,-0.0011,-0.0001,0.0009,-0.0005,-28.0313,-34.6875,-13.0875,,adl
18.394081,0.0011,0.0012,-0.0011,-0.0005,-0.0005,-0.0005,-28.0313,-34.6875,-13.0875,,adl
18.395028,-0.0024,0.0015,-0.0019,-0.0005,-0.0005,-0.0005,-28.0313,-34.6875,-13.0875,,adl
18.411413,-0.0024,0.0015,-0.0019,-0.0005,-0.0005,-0.0005,-28.1625,-35.0063,-13.1438,,adl
18.434672,-0.0024,0.0015,-0.0019,-0.0005,-0.0005,-0.0005,-28.1625,-35.0063,-13.1438,,adl
18.454723,-0.0024,0.0015,-0.0019,0.0016,-0.0048,0.0013,-28.1625,-35.0063,-13.1438,,adl
18.455477,-0.0039,-0.0112,0.0042,0.0016,-0.0048,0.0013,-28.1625,-35.0063,-13.1438,,adl
18.472908,-0.0039,-0.0112,0.0042,0.0016,-0.0048,0.0013,-28.05,-35.0438,-13.0313,,adl
18.496278,-0.0039,-0.0112,0.0042,0.0016,-0.0048,0.0013,-28.05,-35.0438,-13.0313,,adl
18.516198,-0.0039,-0.0112,0.0042,0.0003,-0.0037,0.0009,-28.05,-35.0438,-13.0313,,adl
18.530808,-0.0039,-0.0112,0.0042,0.0003,-0.0037,0.0009,-28.1625,-35.025,-12.9563,,adl
18.536205,-0.0023,-0.0079,0.0003,0.0003,-0.0037,0.0009,-28.1625,-35.025,-12.9563,,adl
18.556757,-0.0023,-0.0079,0.0003,0.0003,-0.0037,0.0009,-28.1625,-35.025,-12.9563,,adl
18.576971,-0.0023,-0.0079,0.0003,-0.0001,-0.0005,-0.0005,-28.1625,-35.025,-12.9563,,adl
18.590929,-0.0023,-0.0079,0.0003,-0.0001,-0.0005,-0.0005,-28.1813,-35.025,-12.6938,,adl
18.597655,-0.0031,-0.0017,0.0003,-0.0001,-0.0005,-0.0005,-28.1813,-35.025,-12.6938,,adl
18.617575,-0.0031,-0.0017,0.0003,-0.0001,-0.0005,-0.0005,-28.1813,-35.025,-12.6938,,adl
18.637796,-0.0031,-0.0017,0.0003,-0.0008,-0.0008,-0.0012,-28.1813,-35.025,-12.6938,,adl
18.651577,-0.0031,-0.0017,0.0003,-0.0008,-0.0008,-0.0012,-28.0688,-35.0813,-12.6188,,adl
18.65788,-0.0028,-0.0031,-0.0041,-0.0008,-0.0008,-0.0012,-28.0688,-35.0813,-12.6188,,adl
18.678388,-0.0028,-0.0031,-0.0041,-0.0008,-0.0008,-0.0012,-28.0688,-35.0813,-12.6188,,adl
18.698594,-0.0028,-0.0031,-0.0041,-0.0001,-0.0008,0.0013,-28.0688,-35.0813,-12.6188,,adl
18.710897,-0.0028,-0.0031,-0.0041,-0.0001,-0.0008,0.0013,-27.8813,-35.0438,-12.6563,,adl
18.718867,-0.0035,-0.0092,0.0041,-0.0001,-0.0008,0.0013,-27.8813,-35.0438,-12.6563,,adl
18.739235,-0.0035,-0.0092,0.0041,-0.0001,-0.0008,0.0013,-27.8813,-35.0438,-12.6563,,adl
18.759435,-0.0035,-0.0092,0.0041,0.0005,-0.0008,0.0016,-27.8813,-35.0438,-12.6563,,adl
18.771162,-0.0035,-0.0092,0.0041,0.0005,-0.0008,0.0016,-27.8438,-34.95,-12.6,,adl
18.800461,-0.0026,-0.0022,-0.0058,0.0005,-0.0008,0.0016,-27.8438,-34.95,-12.6,,adl
18.801572,-0.0026,-0.0022,-0.0058,0.0005,-0.0008,0.0016,-27.8438,-34.95,-12.6,,adl
18.820988,-0.0026,-0.0022,-0.0058,0.0005,-0.0029,0.0005,-27.8438,-34.95,-12.6,,adl
18.830993,-0.0026,-0.0022,-0.0058,0.0005,-0.0029,0.0005,-27.6563,-34.9125,-12.4125,,adl
18.861237,-0.0026,-0.0022,-0.0058,0.0005,-0.0029,0.0005,-27.6563,-34.9125,-12.4125,,adl
18.862698,-0.0019,-0.0041,-0.0086,0.0005,-0.0029,0.0005,-27.6563,-34.9125,-12.4125,,adl
18.882286,-0.0019,-0.0041,-0.0086,0.0003,-0.0016,0.0005,-27.6563,-34.9125,-12.4125,,adl
18.894908,-0.0019,-0.0041,-0.0086,0.0003,-0.0016,0.0005,-27.6,-34.725,-12.4125,,adl
18.924678,-0.0019,-0.0041,-0.0086,0.0003,-0.0016,0.0005,-27.6,-34.725,-12.4125,,adl
18.927432,-0.0002,0.0029,-0.0027,0.0003,-0.0016,0.0005,-27.6,-34.725,-12.4125,,adl
18.943377,-0.0002,0.0029,-0.0027,0.0013,-0.0019,0.0016,-27.6,-34.725,-12.4125,,adl
18.952715,-0.0002,0.0029,-0.0027,0.0013,-0.0019,0.0016,-27.5063,-34.95,-12.1688,,adl
18.985609,-0.0002,0.0029,-0.0027,0.0013,-0.0019,0.0016,-27.5063,-34.95,-12.1688,,adl
19.003161,-0.0002,0.0029,-0.0027,-0.0001,0.0005,0.0003,-27.5063,-34.95,-12.1688,,adl
19.004871,-0.0114,-0.003,0.0007,-0.0001,0.0005,0.0003,-27.5063,-34.95,-12.1688,,adl
19.01083,-0.0114,-0.003,0.0007,-0.0001,0.0005,0.0003,-27.3375,-35.0625,-12.0188,,adl
19.046146,-0.0114,-0.003,0.0007,-0.0001,0.0005,0.0003,-27.3375,-35.0625,-12.0188,,adl
19.067079,-0.0114,-0.003,0.0007,-0.0012,0.0035,-0.0001,-27.3375,-35.0625,-12.0188,,adl
19.068794,-0.0047,0.0042,-0.0011,-0.0012,0.0035,-0.0001,-27.3375,-35.0625,-12.0188,,adl
19.072731,-0.0047,0.0042,-0.0011,-0.0012,0.0035,-0.0001,-27.2625,-35.1188,-11.8313,,adl
19.107026,-0.0047,0.0042,-0.0011,-0.0012,0.0035,-0.0001,-27.2625,-35.1188,-11.8313,,adl
19.12648,-0.0047,0.0042,-0.0011,0.0005,0.0013,0.0009,-27.2625,-35.1188,-11.8313,,adl
19.128891,-0.005,-0.0032,-0.0031,0.0005,0.0013,0.0009,-27.2625,-35.1188,-11.8313,,adl
19.131841,-0.005,-0.0032,-0.0031,0.0005,0.0013,0.0009,-27.2063,-35.175,-11.6625,,adl
19.167741,-0.005,-0.0032,-0.0031,0.0005,0.0013,0.0009,-27.2063,-35.175,-11.6625,,adl
19.186981,-0.005,-0.0032,-0.0031,-0.0001,-0.0008,0.0003,-27.2063,-35.175,-11.6625,,adl
19.189421,-0.0082,-0.0019,-0.0042,-0.0001,-0.0008,0.0003,-27.2063,-35.175,-11.6625,,adl
19.193156,-0.0082,-0.0019,-0.0042,-0.0001,-0.0008,0.0003,-27.225,-35.1562,-11.55,,adl
19.228411,-0.0082,-0.0019,-0.0042,-0.0001,-0.0008,0.0003,-27.225,-35.1562,-11.55,,adl
19.248418,-0.0082,-0.0019,-0.0042,0.0013,-0.0027,0.0016,-27.225,-35.1562,-11.55,,adl
19.251145,-0.0082,-0.0019,-0.0042,0.0013,-0.0027,0.0016,-27.1313,-35.25,-11.5125,,adl
19.268146,-0.0103,-0.0042,-0.0123,0.0013,-0.0027,0.0016,-27.1313,-35.25,-11.5125,,adl
19.290315,-0.0103,-0.0042,-0.0123,0.0013,-0.0027,0.0016,-27.1313,-35.25,-11.5125,,adl
19.308632,-0.0103,-0.0042,-0.0123,0.0005,0.0003,0.002,-27.1313,-35.25,-11.5125,,adl
19.311469,-0.0103,-0.0042,-0.0123,0.0005,0.0003,0.002,-27.0938,-35.325,-11.4188,,adl
19.329031,-0.0045,-0.0047,0.0009,0.0005,0.0003,0.002,-27.0938,-35.325,-11.4188,,adl
19.350401,-0.0045,-0.0047,0.0009,0.0005,0.0003,0.002,-27.0938,-35.325,-11.4188,,adl
19.370338,-0.0045,-0.0047,0.0009,0.0005,-0.0012,-0.0001,-27.0938,-35.325,-11.4188,,adl
19.372115,-0.0045,-0.0047,0.0009,0.0005,-0.0012,-0.0001,-26.9625,-35.55,-11.1188,,adl
19.390274,-0.0045,-0.0022,-0.0055,0.0005,-0.0012,-0.0001,-26.9625,-35.55,-11.1188,,adl
19.411284,-0.0045,-0.0022,-0.0055,0.0005,-0.0012,-0.0001,-26.9625,-35.55,-11.1188,,adl
19.431336,-0.0045,-0.0022,-0.0055,0.0003,-0.0012,0.0003,-26.9625,-35.55,-11.1188,,adl
19.434579,-0.0045,-0.0022,-0.0055,0.0003,-0.0012,0.0003,-26.85,-35.5875,-11.025,,adl
19.471865,-0.0045,-0.0022,-0.0055,0.0003,-0.0012,0.0003,-26.85,-35.5875,-11.025,,adl
19.47354,-0.0058,-0.0044,-0.0022,0.0003,-0.0012,0.0003,-26.85,-35.5875,-11.025,,adl
19.493287,-0.0058,-0.0044,-0.0022,0.0003,-0.0012,0.0003,-26.7188,-35.5688,-10.9875,,adl
19.494874,-0.0058,-0.0044,-0.0022,-0.0001,-0.0005,0.0003,-26.7188,-35.5688,-10.9875,,adl
19.535119,-0.0058,-0.0044,-0.0022,-0.0001,-0.0005,0.0003,-26.7188,-35.5688,-10.9875,,adl
19.537002,-0.0016,-0.0016,-0.0034,-0.0001,-0.0005,0.0003,-26.7188,-35.5688,-10.9875,,adl
19.553533,-0.0016,-0.0016,-0.0034,-0.0001,-0.0005,0.0003,-26.7188,-35.6625,-11.0438,,adl
19.55581,-0.0016,-0.0016,-0.0034,0.0003,-0.0005,0.0009,-26.7188,-35.6625,-11.0438,,adl
19.594625,-0.0016,-0.0016,-0.0034,0.0003,-0.0005,0.0009,-26.7188,-35.6625,-11.0438,,adl
19.596909,-0.0065,-0.0,0.0019,0.0003,-0.0005,0.0009,-26.7188,-35.6625,-11.0438,,adl
19.61286,-0.0065,-0.0,0.0019,0.0003,-0.0005,0.0009,-26.6625,-35.7938,-10.8938,,adl
19.614869,-0.0065,-0.0,0.0019,0.0009,-0.0023,-0.0001,-26.6625,-35.7938,-10.8938,,adl
19.653871,-0.0065,-0.0,0.0019,0.0009,-0.0023,-0.0001,-26.6625,-35.7938,-10.8938,,adl
19.656138,-0.0021,-0.0063,-0.0019,0.0009,-0.0023,-0.0001,-26.6625,-35.7938,-10.8938,,adl
19.672325,-0.0021,-0.0063,-0.0019,0.0009,-0.0023,-0.0001,-26.7188,-35.8688,-10.7625,,adl
19.673691,-0.0021,-0.0063,-0.0019,0.0009,-0.0044,-0.0016,-26.7188,-35.8688,-10.7625,,adl
19.715886,-0.0021,-0.0063,-0.0019,0.0009,-0.0044,-0.0016,-26.7188,-35.8688,-10.7625,,adl
19.733105,-0.0021,-0.0063,-0.0019,0.0009,-0.0044,-0.0016,-26.7375,-35.9625,-10.6688,,adl
19.736628,-0.0021,-0.0063,-0.0019,-0.0005,-0.0076,-0.0008,-26.7375,-35.9625,-10.6688,,adl
19.738228,-0.0032,0.0062,-0.0107,-0.0005,-0.0076,-0.0008,-26.7375,-35.9625,-10.6688,,adl
19.777556,-0.0032,0.0062,-0.0107,-0.0005,-0.0076,-0.0008,-26.7375,-35.9625,-10.6688,,adl
19.792385,-0.0032,0.0062,-0.0107,-0.0005,-0.0076,-0.0008,-26.6625,-35.9625,-10.5938,,adl
19.796507,-0.0032,0.0062,-0.0107,-0.0008,0.0059,0.0003,-26.6625,-35.9625,-10.5938,,adl
19.797466,-0.0018,-0.003,-0.011,-0.0008,0.0059,0.0003,-26.6625,-35.9625,-10.5938,,adl
19.837181,-0.0018,-0.003,-0.011,-0.0008,0.0059,0.0003,-26.6625,-35.9625,-10.5938,,adl
19.852556,-0.0018,-0.003,-0.011,-0.0008,0.0059,0.0003,-26.625,-35.8875,-10.6688,,adl
19.856306,-0.0018,-0.003,-0.011,-0.0005,-0.0055,0.0005,-26.625,-35.8875,-10.6688,,adl
19.857425,-0.0048,-0.0063,0.0059,-0.0005,-0.0055,0.0005,-26.625,-35.8875,-10.6688,,adl
19.898623,-0.0048,-0.0063,0.0059,-0.0005,-0.0055,0.0005,-26.625,-35.8875,-10.6688,,adl
19.91352,-0.0048,-0.0063,0.0059,-0.0005,-0.0055,0.0005,-26.6625,-35.8125,-10.7063,,adl
19.917456,-0.0048,-0.0063,0.0059,-0.0001,0.0088,0.0013,-26.6625,-35.8125,-10.7063,,adl
19.938272,0.0018,-0.0056,0.0025,-0.0001,0.0088,0.0013,-26.6625,-35.8125,-10.7063,,adl
19.958329,0.0018,-0.0056,0.0025,-0.0001,0.0088,0.0013,-26.6625,-35.8125,-10.7063,,adl
19.97381,0.0018,-0.0056,0.0025,-0.0001,0.0088,0.0013,-26.7188,-35.8125,-10.6688,,adl
19.979357,0.0018,-0.0056,0.0025,-0.0001,0.0035,0.0005,-26.7188,-35.8125,-10.6688,,adl
19.999428,-0.0046,-0.0,-0.0034,-0.0001,0.0035,0.0005,-26.7188,-35.8125,-10.6688,,adl
20.019823,-0.0046,-0.0,-0.0034,-0.0001,0.0035,0.0005,-26.7188,-35.8125,-10.6688,,adl
20.032115,-0.0046,-0.0,-0.0034,-0.0001,0.0035,0.0005,-26.5875,-35.7563,-10.5563,,adl
20.03931,-0.0046,-0.0,-0.0034,-0.0001,-0.0005,0.0005,-26.5875,-35.7563,-10.5563,,adl
20.061307,-0.0011,-0.0055,-0.005,-0.0001,-0.0005,0.0005,-26.5875,-35.7563,-10.5563,,adl
20.080697,-0.0011,-0.0055,-0.005,-0.0001,-0.0005,0.0005,-26.5875,-35.7563,-10.5563,,adl
20.092355,-0.0011,-0.0055,-0.005,-0.0001,-0.0005,0.0005,-26.6438,-35.6625,-10.725,,adl
20.099437,-0.0011,-0.0055,-0.005,0.0009,-0.0001,0.0005,-26.6438,-35.6625,-10.725,,adl
20.12247,-0.001,-0.003,-0.0102,0.0009,-0.0001,0.0005,-26.6438,-35.6625,-10.725,,adl
20.141672,-0.001,-0.003,-0.0102,0.0009,-0.0001,0.0005,-26.6438,-35.6625,-10.725,,adl
20.151731,-0.001,-0.003,-0.0102,0.0009,-0.0001,0.0005,-26.55,-35.5688,-10.8188,,adl
20.161354,-0.001,-0.003,-0.0102,0.0013,-0.0016,0.0016,-26.55,-35.5688,-10.8188,,adl
20.203326,-0.001,-0.003,-0.0102,0.0013,-0.0016,0.0016,-26.55,-35.5688,-10.8188,,adl
20.206685,-0.0024,-0.0043,-0.0051,0.0013,-0.0016,0.0016,-26.55,-35.5688,-10.8188,,adl
20.214055,-0.0024,-0.0043,-0.0051,0.0013,-0.0016,0.0016,-26.5313,-35.55,-10.7812,,adl
20.222945,-0.0024,-0.0043,-0.0051,0.0003,-0.0019,-0.0005,-26.5313,-35.55,-10.7812,,adl
20.261902,-0.0024,-0.0043,-0.0051,0.0003,-0.0019,-0.0005,-26.5313,-35.55,-10.7812,,adl
20.263078,-0.0041,0.0012,0.0067,0.0003,-0.0019,-0.0005,-26.5313,-35.55,-10.7812,,adl
20.271111,-0.0041,0.0012,0.0067,0.0003,-0.0019,-0.0005,-26.775,-35.4563,-10.95,,adl
20.281924,-0.0041,0.0012,0.0067,-0.0001,-0.0051,-0.0008,-26.775,-35.4563,-10.95,,adl
20.325284,-0.0041,0.0012,0.0067,-0.0001,-0.0051,-0.0008,-26.775,-35.4563,-10.95,,adl
20.326832,-0.011,-0.0033,-0.0033,-0.0001,-0.0051,-0.0008,-26.775,-35.4563,-10.95,,adl
20.331766,-0.011,-0.0033,-0.0033,-0.0001,-0.0051,-0.0008,-26.8125,-35.25,-11.1562,,adl
20.344181,-0.011,-0.0033,-0.0033,0.0009,-0.0037,-0.0005,-26.8125,-35.25,-11.1562,,adl
20.385386,-0.011,-0.0033,-0.0033,0.0009,-0.0037,-0.0005,-26.8125,-35.25,-11.1562,,adl
20.391884,-0.011,-0.0033,-0.0033,0.0009,-0.0037,-0.0005,-26.8313,-35.2688,-11.2125,,adl
20.404615,-0.011,-0.0033,-0.0033,0.0009,-0.0001,0.0013,-26.8313,-35.2688,-11.2125,,adl
20.405634,-0.0032,0.0017,-0.0002,0.0009,-0.0001,0.0013,-26.8313,-35.2688,-11.2125,,adl
20.445822,-0.0032,0.0017,-0.0002,0.0009,-0.0001,0.0013,-26.8313,-35.2688,-11.2125,,adl
20.451742,-0.0032,0.0017,-0.0002,0.0009,-0.0001,0.0013,-26.9063,-35.3438,-11.175,,adl
20.465671,-0.0032,0.0017,-0.0002,0.0003,-0.0008,0.0005,-26.9063,-35.3438,-11.175,,adl
20.467732,0.0017,-0.0043,0.001,0.0003,-0.0008,0.0005,-26.9063,-35.3438,-11.175,,adl
20.507547,0.0017,-0.0043,0.001,0.0003,-0.0008,0.0005,-26.9063,-35.3438,-11.175,,adl
20.512235,0.0017,-0.0043,0.001,0.0003,-0.0008,0.0005,-27.0375,-35.4563,-11.4,,adl
20.525685,0.0017,-0.0043,0.001,-0.0001,-0.0012,0.0003,-27.0375,-35.4563,-11.4,,adl
20.527385,0.0051,-0.0007,0.0031,-0.0001,-0.0012,0.0003,-27.0375,-35.4563,-11.4,,adl
20.570043,0.0051,-0.0007,0.0031,-0.0001,-0.0012,0.0003,-27.0375,-35.4563,-11.4,,adl
20.573262,0.0051,-0.0007,0.0031,-0.0001,-0.0012,0.0003,-27.1125,-35.4375,-11.2875,,adl
20.587122,0.0051,-0.0007,0.0031,0.0009,-0.0037,-0.0001,-27.1125,-35.4375,-11.2875,,adl
20.588474,-0.005,0.0026,-0.0016,0.0009,-0.0037,-0.0001,-27.1125,-35.4375,-11.2875,,adl
20.630866,-0.005,0.0026,-0.0016,0.0009,-0.0037,-0.0001,-27.1125,-35.4375,-11.2875,,adl
20.633876,-0.005,0.0026,-0.0016,0.0009,-0.0037,-0.0001,-27.1875,-35.5312,-11.175,,adl
20.650315,-0.005,0.0026,-0.0016,0.0005,0.0003,0.0013,-27.1875,-35.5312,-11.175,,adl
20.669229,-0.0042,0.0014,-0.0008,0.0005,0.0003,0.0013,-27.1875,-35.5312,-11.175,,adl
20.69032,-0.0042,0.0014,-0.0008,0.0005,0.0003,0.0013,-27.1875,-35.5312,-11.175,,adl
20.692572,-0.0042,0.0014,-0.0008,0.0005,0.0003,0.0013,-27.2813,-35.5688,-11.1562,,adl
20.711593,-0.0042,0.0014,-0.0008,0.0005,-0.0033,0.0005,-27.2813,-35.5688,-11.1562,,adl
20.731206,-0.0012,0.0032,-0.0123,0.0005,-0.0033,0.0005,-27.2813,-35.5688,-11.1562,,adl
20.750695,-0.0012,0.0032,-0.0123,0.0005,-0.0033,0.0005,-27.2813,-35.5688,-11.1562,,adl
20.753845,-0.0012,0.0032,-0.0123,0.0005,-0.0033,0.0005,-27.2813,-35.7563,-10.9125,,adl
20.770398,-0.0012,0.0032,-0.0123,0.0005,-0.0027,-0.0001,-27.2813,-35.7563,-10.9125,,adl
20.792076,-0.0045,-0.01,0.003,0.0005,-0.0027,-0.0001,-27.2813,-35.7563,-10.9125,,adl
20.812377,-0.0045,-0.01,0.003,0.0005,-0.0027,-0.0001,-27.2813,-35.7563,-10.9125,,adl
20.81516,-0.0045,-0.01,0.003,0.0005,-0.0027,-0.0001,-27.1688,-36.0,-10.6313,,adl
20.832192,-0.0045,-0.01,0.003,-0.0008,0.0037,-0.0005,-27.1688,-36.0,-10.6313,,adl
20.853222,0.0017,-0.0011,0.0018,-0.0008,0.0037,-0.0005,-27.1688,-36.0,-10.6313,,adl
20.873502,0.0017,-0.0011,0.0018,-0.0008,0.0037,-0.0005,-27.1313,-36.1125,-10.5563,,adl
20.875699,0.0017,-0.0011,0.0018,-0.0008,0.0037,-0.0005,-27.1313,-36.1125,-10.5563,,adl
20.893313,0.0017,-0.0011,0.0018,-0.0001,0.0005,-0.0001,-27.1313,-36.1125,-10.5563,,adl
20.934306,0.0017,-0.0011,0.0018,-0.0001,0.0005,-0.0001,-27.0563,-36.1125,-10.5375,,adl
20.937557,0.0017,-0.0011,0.0018,-0.0001,0.0005,-0.0001,-27.0563,-36.1125,-10.5375,,adl
20.939274,-0.0049,-0.0061,-0.0024,-0.0001,0.0005,-0.0001,-27.0563,-36.1125,-10.5375,,adl
20.952888,-0.0049,-0.0061,-0.0024,0.0003,-0.0001,0.0009,-27.0563,-36.1125,-10.5375,,adl
20.994219,-0.0049,-0.0061,-0.0024,0.0003,-0.0001,0.0009,-27.075,-36.0188,-10.3688,,adl
20.997381,-0.0049,-0.0061,-0.0024,0.0003,-0.0001,0.0009,-27.075,-36.0188,-10.3688,,adl
20.998865,-0.005,-0.002,-0.006,0.0003,-0.0001,0.0009,-27.075,-36.0188,-10.3688,,adl
21.013964,-0.005,-0.002,-0.006,0.0009,0.0005,0.0016,-27.075,-36.0188,-10.3688,,adl
21.052963,-0.005,-0.002,-0.006,0.0009,0.0005,0.0016,-27.0,-36.0375,-10.3125,,adl
21.056149,-0.005,-0.002,-0.006,0.0009,0.0005,0.0016,-27.0,-36.0375,-10.3125,,adl
21.058239,-0.0039,-0.0064,0.0038,0.0009,0.0005,0.0016,-27.0,-36.0375,-10.3125,,adl
21.075634,-0.0039,-0.0064,0.0038,0.0009,-0.0033,0.0005,-27.0,-36.0375,-10.3125,,adl
21.112238,-0.0039,-0.0064,0.0038,0.0009,-0.0033,0.0005,-27.0375,-35.925,-10.3875,,adl
21.115107,-0.0039,-0.0064,0.0038,0.0009,-0.0033,0.0005,-27.0375,-35.925,-10.3875,,adl
21.135418,-0.0039,-0.0064,0.0038,0.0005,-0.0033,-0.0001,-27.0375,-35.925,-10.3875,,adl
21.13724,-0.0058,-0.0001,-0.0063,0.0005,-0.0033,-0.0001,-27.0375,-35.925,-10.3875,,adl
21.174338,-0.0058,-0.0001,-0.0063,0.0005,-0.0033,-0.0001,-27.0,-35.8875,-10.5188,,adl
21.177929,-0.0058,-0.0001,-0.0063,0.0005,-0.0033,-0.0001,-27.0,-35.8875,-10.5188,,adl
21.196609,-0.0058,-0.0001,-0.0063,0.0003,-0.0005,0.0005,-27.0,-35.8875,-10.5188,,adl
21.198025,0.0092,-0.0004,-0.0023,0.0003,-0.0005,0.0005,-27.0,-35.8875,-10.5188,,adl
21.232969,0.0092,-0.0004,-0.0023,0.0003,-0.0005,0.0005,-26.9813,-35.9813,-10.5938,,adl
21.238238,0.0092,-0.0004,-0.0023,0.0003,-0.0005,0.0005,-26.9813,-35.9813,-10.5938,,adl
21.258876,0.0092,-0.0004,-0.0023,0.0005,-0.0019,0.0009,-26.9813,-35.9813,-10.5938,,adl
21.261479,-0.0003,-0.0041,-0.0013,0.0005,-0.0019,0.0009,-26.9813,-35.9813,-10.5938,,adl
21.295446,-0.0003,-0.0041,-0.0013,0.0005,-0.0019,0.0009,-26.925,-35.9062,-10.725,,adl
21.303148,-0.0003,-0.0041,-0.0013,0.0005,-0.0019,0.0009,-26.925,-35.9062,-10.725,,adl
21.318445,-0.0003,-0.0041,-0.0013,0.0005,-0.0005,0.0003,-26.925,-35.9062,-10.725,,adl
21.319719,-0.0023,-0.0006,0.0007,0.0005,-0.0005,0.0003,-26.925,-35.9062,-10.725,,adl
21.354176,-0.0023,-0.0006,0.0007,0.0005,-0.0005,0.0003,-26.9813,-35.775,-10.7625,,adl
21.362368,-0.0023,-0.0006,0.0007,0.0005,-0.0005,0.0003,-26.9813,-35.775,-10.7625,,adl
21.379296,-0.0023,-0.0006,0.0007,0.0005,-0.0016,-0.0001,-26.9813,-35.775,-10.7625,,adl
21.402171,-0.0027,-0.0008,-0.0026,0.0005,-0.0016,-0.0001,-26.9813,-35.775,-10.7625,,adl
21.412137,-0.0027,-0.0008,-0.0026,0.0005,-0.0016,-0.0001,-27.0938,-35.7375,-10.6875,,adl
21.419609,-0.0027,-0.0008,-0.0026,0.0005,-0.0016,-0.0001,-27.0938,-35.7375,-10.6875,,adl
21.44035,-0.0027,-0.0008,-0.0026,0.0005,-0.0023,0.0005,-27.0938,-35.7375,-10.6875,,adl
21.461198,-0.0036,-0.0028,-0.0008,0.0005,-0.0023,0.0005,-27.0938,-35.7375,-10.6875,,adl
21.473605,-0.0036,-0.0028,-0.0008,0.0005,-0.0023,0.0005,-27.0375,-35.7375,-10.6125,,adl
21.482453,-0.0036,-0.0028,-0.0008,0.0005,-0.0023,0.0005,-27.0375,-35.7375,-10.6125,,adl
21.501626,-0.0036,-0.0028,-0.0008,0.0005,-0.0037,0.0003,-27.0375,-35.7375,-10.6125,,adl
21.525147,0.0005,-0.0086,-0.0021,0.0005,-0.0037,0.0003,-27.0375,-35.7375,-10.6125,,adl
21.535592,0.0005,-0.0086,-0.0021,0.0005,-0.0037,0.0003,-27.0563,-35.7563,-10.6125,,adl
21.544466,0.0005,-0.0086,-0.0021,0.0005,-0.0037,0.0003,-27.0563,-35.7563,-10.6125,,adl
21.563554,0.0005,-0.0086,-0.0021,0.0003,-0.0016,-0.0001,-27.0563,-35.7563,-10.6125,,adl
21.593651,0.0005,-0.0086,-0.0021,0.0003,-0.0016,-0.0001,-27.0188,-35.7,-10.6875,,adl
21.602954,0.0005,-0.0086,-0.0021,0.0003,-0.0016,-0.0001,-27.0188,-35.7,-10.6875,,adl
21.604549,-0.0,-0.0042,0.0052,0.0003,-0.0016,-0.0001,-27.0188,-35.7,-10.6875,,adl
21.623643,-0.0,-0.0042,0.0052,0.0009,-0.0001,0.0009,-27.0188,-35.7,-10.6875,,adl
21.653412,-0.0,-0.0042,0.0052,0.0009,-0.0001,0.0009,-27.2063,-35.7938,-10.7063,,adl
21.663834,-0.0085,-0.0019,0.0027,0.0009,-0.0001,0.0009,-27.2063,-35.7938,-10.7063,,adl
21.666486,-0.0085,-0.0019,0.0027,0.0009,-0.0001,0.0009,-27.2063,-35.7938,-10.7063,,adl
21.684446,-0.0085,-0.0019,0.0027,-0.0001,-0.0005,-0.0001,-27.2063,-35.7938,-10.7063,,adl
21.7149,-0.0085,-0.0019,0.0027,-0.0001,-0.0005,-0.0001,-27.2063,-35.5875,-10.7625,,adl
21.727457,-0.0085,-0.0019,0.0027,-0.0001,-0.0005,-0.0001,-27.2063,-35.5875,-10.7625,,adl
21.7298,-0.0061,-0.0029,-0.0028,-0.0001,-0.0005,-0.0001,-27.2063,-35.5875,-10.7625,,adl
21.745067,-0.0061,-0.0029,-0.0028,-0.0001,0.0041,-0.0001,-27.2063,-35.5875,-10.7625,,adl
21.774725,-0.0061,-0.0029,-0.0028,-0.0001,0.0041,-0.0001,-27.3563,-35.5875,-10.6125,,adl
21.787244,-0.0061,-0.0029,-0.0028,-0.0001,0.0041,-0.0001,-27.3563,-35.5875,-10.6125,,adl
21.789971,0.004,-0.0038,-0.0022,-0.0001,0.0041,-0.0001,-27.3563,-35.5875,-10.6125,,adl
21.806005,0.004,-0.0038,-0.0022,0.0003,-0.0016,-0.0005,-27.3563,-35.5875,-10.6125,,adl
21.832614,0.004,-0.0038,-0.0022,0.0003,-0.0016,-0.0005,-27.525,-35.6625,-10.6875,,adl
21.849127,0.004,-0.0038,-0.0022,0.0003,-0.0016,-0.0005,-27.525,-35.6625,-10.6875,,adl
21.868603,0.004,-0.0038,-0.0022,0.0005,0.002,0.002,-27.525,-35.6625,-10.6875,,adl
21.871119,-0.0018,-0.0078,-0.0027,0.0005,0.002,0.002,-27.525,-35.6625,-10.6875,,adl
21.894556,-0.0018,-0.0078,-0.0027,0.0005,0.002,0.002,-27.3563,-35.6438,-10.7625,,adl
21.909287,-0.0018,-0.0078,-0.0027,0.0005,0.002,0.002,-27.3563,-35.6438,-10.7625,,adl
21.934042,-0.0018,-0.0078,-0.0027,-0.0016,-0.0016,-0.0008,-27.3563,-35.6438,-10.7625,,adl
21.936748,0.0033,0.0051,0.0004,-0.0016,-0.0016,-0.0008,-27.3563,-35.6438,-10.7625,,adl
21.953977,0.0033,0.0051,0.0004,-0.0016,-0.0016,-0.0008,-27.4313,-35.7375,-10.9125,,adl
21.969625,0.0033,0.0051,0.0004,-0.0016,-0.0016,-0.0008,-27.4313,-35.7375,-10.9125,,adl
21.990759,0.0033,0.0051,0.0004,-0.0005,-0.0044,-0.0012,-27.4313,-35.7375,-10.9125,,adl
21.993416,-0.0034,0.0003,-0.0068,-0.0005,-0.0044,-0.0012,-27.4313,-35.7375,-10.9125,,adl
22.014102,-0.0034,0.0003,-0.0068,-0.0005,-0.0044,-0.0012,-27.6,-35.775,-10.9125,,adl
22.030022,-0.0034,0.0003,-0.0068,-0.0005,-0.0044,-0.0012,-27.6,-35.775,-10.9125,,adl
