time,ax,ay,az,wx,wy,wz,Bx,By,Bz,Unnamed: 10,label
0.125214,0.0,0.0,0.0,0.0,0.0,0.0,-23.6438,-40.9313,-27.7875,,adl
0.173996,0.0,0.0,0.0,-0.0012,-0.0019,0.0016,-23.6438,-40.9313,-27.7875,,adl
0.182471,0.0,0.0,0.0,-0.0012,-0.0019,0.0016,-23.3625,-40.8563,-27.15,,adl
0.213568,0.0,0.0,0.0,-0.0012,-0.0019,0.0016,-23.3625,-40.8563,-27.15,,adl
0.232921,0.0,0.0,0.0,0.0009,-0.0016,-0.0001,-23.3625,-40.8563,-27.15,,adl
0.243947,0.0,0.0,0.0,0.0009,-0.0016,-0.0001,-23.25,-40.8563,-27.1313,,adl
0.274272,0.0,0.0,0.0,0.0009,-0.0016,-0.0001,-23.25,-40.8563,-27.1313,,adl
0.29432,0.0,0.0,0.0,0.0003,-0.0023,0.0003,-23.25,-40.8563,-27.1313,,adl
0.304528,0.0,0.0,0.0,0.0003,-0.0023,0.0003,-23.25,-40.8938,-27.1875,,adl
0.314489,0.0,0.0,0.0,0.0003,-0.0023,0.0003,-23.25,-40.8938,-27.1875,,adl
0.334324,0.0,0.0,0.0,0.0003,-0.0023,0.0003,-23.25,-40.8938,-27.1875,,adl
0.357162,0.0,0.0,0.0,0.0003,-0.0008,0.0005,-23.25,-40.8938,-27.1875,,adl
0.365531,0.0,0.0,0.0,0.0003,-0.0008,0.0005,-23.325,-40.7812,-27.225,,adl
0.375854,-0.0028,0.0,0.0037,0.0003,-0.0008,0.0005,-23.325,-40.7812,-27.225,,adl
0.395734,-0.0028,0.0,0.0037,0.0003,-0.0008,0.0005,-23.325,-40.7812,-27.225,,adl
0.415582,-0.0028,0.0,0.0037,0.0016,-0.0023,0.0009,-23.325,-40.7812,-27.225,,adl
0.423346,-0.0028,0.0,0.0037,0.0016,-0.0023,0.0009,-23.3438,-40.875,-27.1875,,adl
0.456964,-0.0028,0.0,0.0037,0.0016,-0.0023,0.0009,-23.3438,-40.875,-27.1875,,adl
0.458517,0.0074,-0.0014,-0.0061,0.0016,-0.0023,0.0009,-23.3438,-40.875,-27.1875,,adl
0.478234,0.0074,-0.0014,-0.0061,-0.0005,0.0013,0.0003,-23.3438,-40.875,-27.1875,,adl
0.482382,0.0074,-0.0014,-0.0061,-0.0005,0.0013,0.0003,-23.3625,-40.875,-27.2063,,adl
0.516797,0.0074,-0.0014,-0.0061,-0.0005,0.0013,0.0003,-23.3625,-40.875,-27.2063,,adl
0.518292,0.0029,-0.0015,0.0033,-0.0005,0.0013,0.0003,-23.3625,-40.875,-27.2063,,adl
0.539872,0.0029,-0.0015,0.0033,0.002,-0.0048,-0.0001,-23.3625,-40.875,-27.2063,,adl
0.543223,0.0029,-0.0015,0.0033,0.002,-0.0048,-0.0001,-23.2875,-40.8563,-27.3,,adl
0.579375,-0.0094,-0.0021,0.0053,0.002,-0.0048,-0.0001,-23.2875,-40.8563,-27.3,,adl
0.581782,-0.0094,-0.0021,0.0053,0.002,-0.0048,-0.0001,-23.2875,-40.8563,-27.3,,adl
0.598242,-0.0094,-0.0021,0.0053,-0.0033,0.0041,0.0013,-23.2875,-40.8563,-27.3,,adl
0.60597,-0.0094,-0.0021,0.0053,-0.0033,0.0041,0.0013,-23.3063,-40.8938,-27.1125,,adl
0.639068,-0.0094,-0.0021,0.0053,-0.0033,0.0041,0.0013,-23.3063,-40.8938,-27.1125,,adl
0.640524,0.0066,0.0029,-0.0016,-0.0033,0.0041,0.0013,-23.3063,-40.8938,-27.1125,,adl
0.660344,0.0066,0.0029,-0.0016,0.002,-0.0044,-0.0001,-23.3063,-40.8938,-27.1125,,adl
0.664487,0.0066,0.0029,-0.0016,0.002,-0.0044,-0.0001,-23.325,-40.8563,-27.1688,,adl
0.701904,0.0066,0.0029,-0.0016,0.002,-0.0044,-0.0001,-23.325,-40.8563,-27.1688,,adl
0.722117,0.0066,0.0029,-0.0016,-0.0008,0.002,0.0016,-23.325,-40.8563,-27.1688,,adl
0.723997,-0.0061,0.0055,-0.0078,-0.0008,0.002,0.0016,-23.325,-40.8563,-27.1688,,adl
0.725665,-0.0061,0.0055,-0.0078,-0.0008,0.002,0.0016,-23.3063,-40.8563,-27.2438,,adl
0.761913,-0.0061,0.0055,-0.0078,-0.0008,0.002,0.0016,-23.3063,-40.8563,-27.2438,,adl
0.781597,-0.0061,0.0055,-0.0078,0.0003,-0.0027,-0.0005,-23.3063,-40.8563,-27.2438,,adl
0.78263,0.0034,-0.0064,0.0036,0.0003,-0.0027,-0.0005,-23.3063,-40.8563,-27.2438,,adl
0.783548,0.0034,-0.0064,0.0036,0.0003,-0.0027,-0.0005,-23.2688,-40.8375,-27.225,,adl
0.822308,0.0034,-0.0064,0.0036,0.0003,-0.0027,-0.0005,-23.2688,-40.8375,-27.225,,adl
0.842209,-0.0117,-0.0037,-0.0005,0.0003,-0.0027,-0.0005,-23.2688,-40.8375,-27.225,,adl
0.843824,-0.0117,-0.0037,-0.0005,0.0003,-0.0027,-0.0005,-23.25,-40.8938,-27.2625,,adl
0.844906,-0.0117,-0.0037,-0.0005,-0.0019,0.0041,0.0005,-23.25,-40.8938,-27.2625,,adl
0.883087,-0.0117,-0.0037,-0.0005,-0.0019,0.0041,0.0005,-23.25,-40.8938,-27.2625,,adl
0.90904,-0.0117,-0.0037,-0.0005,0.0005,-0.0008,0.0003,-23.25,-40.8938,-27.2625,,adl
0.910949,-0.0117,-0.0037,-0.0005,0.0005,-0.0008,0.0003,-23.2313,-40.7438,-27.2813,,adl
0.925115,0.0065,0.0012,-0.0031,0.0005,-0.0008,0.0003,-23.2313,-40.7438,-27.2813,,adl
0.946005,0.0065,0.0012,-0.0031,0.0005,-0.0008,0.0003,-23.2313,-40.7438,-27.2813,,adl
0.96459,0.0065,0.0012,-0.0031,0.0005,-0.0008,0.0003,-23.1562,-40.725,-27.2063,,adl
0.966193,0.0065,0.0012,-0.0031,-0.0001,0.0003,0.0016,-23.1562,-40.725,-27.2063,,adl
0.985607,-0.0047,-0.0018,-0.0002,-0.0001,0.0003,0.0016,-23.1562,-40.725,-27.2063,,adl
1.008482,-0.0047,-0.0018,-0.0002,-0.0001,0.0003,0.0016,-23.1562,-40.725,-27.2063,,adl
1.026548,-0.0047,-0.0018,-0.0002,0.0003,-0.0001,0.0005,-23.1562,-40.725,-27.2063,,adl
1.02803,-0.0047,-0.0018,-0.0002,0.0003,-0.0001,0.0005,-23.175,-40.8375,-27.1313,,adl
1.046556,0.005,0.0014,0.0066,0.0003,-0.0001,0.0005,-23.175,-40.8375,-27.1313,,adl
1.066685,0.005,0.0014,0.0066,0.0003,-0.0001,0.0005,-23.175,-40.8375,-27.1313,,adl
1.085287,0.005,0.0014,0.0066,0.0003,-0.0001,0.0005,-23.0813,-40.7625,-27.1688,,adl
1.086787,0.005,0.0014,0.0066,0.0005,-0.0023,-0.0001,-23.0813,-40.7625,-27.1688,,adl
1.107222,-0.0099,-0.0045,0.0025,0.0005,-0.0023,-0.0001,-23.0813,-40.7625,-27.1688,,adl
1.127094,-0.0099,-0.0045,0.0025,0.0005,-0.0023,-0.0001,-23.0813,-40.7625,-27.1688,,adl
1.146819,-0.0099,-0.0045,0.0025,0.0003,-0.0005,0.0003,-23.0813,-40.7625,-27.1688,,adl
1.149328,-0.0099,-0.0045,0.0025,0.0003,-0.0005,0.0003,-23.0813,-40.6875,-27.2063,,adl
1.188347,-0.0099,-0.0045,0.0025,0.0003,-0.0005,0.0003,-23.0813,-40.6875,-27.2063,,adl
1.189489,0.0089,-0.0056,0.0034,0.0003,-0.0005,0.0003,-23.0813,-40.6875,-27.2063,,adl
1.205692,0.0089,-0.0056,0.0034,0.0003,-0.0005,0.0003,-23.1188,-40.6875,-27.0938,,adl
1.207298,0.0089,-0.0056,0.0034,0.0003,-0.0008,0.0005,-23.1188,-40.6875,-27.0938,,adl
1.249681,0.0089,-0.0056,0.0034,0.0003,-0.0008,0.0005,-23.1188,-40.6875,-27.0938,,adl
1.252389,-0.0138,0.0001,0.0057,0.0003,-0.0008,0.0005,-23.1188,-40.6875,-27.0938,,adl
1.263933,-0.0138,0.0001,0.0057,0.0003,-0.0008,0.0005,-23.0813,-40.7063,-27.1125,,adl
1.267904,-0.0138,0.0001,0.0057,0.0003,0.0009,0.0005,-23.0813,-40.7063,-27.1125,,adl
1.311302,-0.0138,0.0001,0.0057,0.0003,0.0009,0.0005,-23.0813,-40.7063,-27.1125,,adl
1.312474,-0.0049,-0.0068,0.0023,0.0003,0.0009,0.0005,-23.0813,-40.7063,-27.1125,,adl
1.324161,-0.0049,-0.0068,0.0023,0.0003,0.0009,0.0005,-23.1188,-40.8188,-26.9813,,adl
1.329393,-0.0049,-0.0068,0.0023,0.0013,-0.0027,-0.0008,-23.1188,-40.8188,-26.9813,,adl
1.370541,-0.0049,-0.0068,0.0023,0.0013,-0.0027,-0.0008,-23.1188,-40.8188,-26.9813,,adl
1.385226,-0.0049,-0.0068,0.0023,0.0013,-0.0027,-0.0008,-23.0813,-40.95,-26.9625,,adl
1.389834,-0.0049,-0.0068,0.0023,-0.0008,0.0003,0.0005,-23.0813,-40.95,-26.9625,,adl
1.390971,-0.0086,-0.0049,0.0071,-0.0008,0.0003,0.0005,-23.0813,-40.95,-26.9625,,adl
1.433982,-0.0086,-0.0049,0.0071,-0.0008,0.0003,0.0005,-23.0813,-40.95,-26.9625,,adl
1.444505,-0.0086,-0.0049,0.0071,-0.0008,0.0003,0.0005,-23.1938,-40.9688,-27.0563,,adl
1.452313,-0.0086,-0.0049,0.0071,0.0003,-0.0008,0.0009,-23.1938,-40.9688,-27.0563,,adl
1.453577,-0.0031,-0.0053,0.0013,0.0003,-0.0008,0.0009,-23.1938,-40.9688,-27.0563,,adl
1.495901,-0.0031,-0.0053,0.0013,0.0003,-0.0008,0.0009,-23.1938,-40.9688,-27.0563,,adl
1.504949,-0.0031,-0.0053,0.0013,0.0003,-0.0008,0.0009,-23.2313,-40.8938,-27.0188,,adl
1.511834,-0.0031,-0.0053,0.0013,-0.0008,-0.0012,-0.0001,-23.2313,-40.8938,-27.0188,,adl
1.51294,-0.0067,0.0005,0.0022,-0.0008,-0.0012,-0.0001,-23.2313,-40.8938,-27.0188,,adl
1.551493,-0.0067,0.0005,0.0022,-0.0008,-0.0012,-0.0001,-23.2313,-40.8938,-27.0188,,adl
1.562922,-0.0067,0.0005,0.0022,-0.0008,-0.0012,-0.0001,-23.2313,-40.875,-27.1313,,adl
1.575517,-0.0067,0.0005,0.0022,0.0016,0.0003,0.0016,-23.2313,-40.875,-27.1313,,adl
1.577492,0.0042,-0.0016,0.0027,0.0016,0.0003,0.0016,-23.2313,-40.875,-27.1313,,adl
1.614883,0.0042,-0.0016,0.0027,0.0016,0.0003,0.0016,-23.2313,-40.875,-27.1313,,adl
1.624561,0.0042,-0.0016,0.0027,0.0016,0.0003,0.0016,-23.1938,-40.95,-27.15,,adl
1.633785,0.0042,-0.0016,0.0027,-0.0008,-0.0005,0.0005,-23.1938,-40.95,-27.15,,adl
1.655287,0.0001,0.005,0.0032,-0.0008,-0.0005,0.0005,-23.1938,-40.95,-27.15,,adl
1.674918,0.0001,0.005,0.0032,-0.0008,-0.0005,0.0005,-23.1938,-40.95,-27.15,,adl
1.683834,0.0001,0.005,0.0032,-0.0008,-0.0005,0.0005,-23.25,-40.95,-27.225,,adl
1.694758,0.0001,0.005,0.0032,-0.0001,0.002,-0.0001,-23.25,-40.95,-27.225,,adl
1.714886,0.0022,0.0051,0.0016,-0.0001,0.002,-0.0001,-23.25,-40.95,-27.225,,adl
1.739216,0.0022,0.0051,0.0016,-0.0001,0.002,-0.0001,-23.25,-40.95,-27.225,,adl
1.746128,0.0022,0.0051,0.0016,-0.0001,0.002,-0.0001,-23.4188,-40.9875,-27.2063,,adl
1.755914,0.0022,0.0051,0.0016,0.0005,-0.0008,0.0003,-23.4188,-40.9875,-27.2063,,adl
1.777666,-0.0081,-0.0043,0.0021,0.0005,-0.0008,0.0003,-23.4188,-40.9875,-27.2063,,adl
1.798081,-0.0081,-0.0043,0.0021,0.0005,-0.0008,0.0003,-23.4188,-40.9875,-27.2063,,adl
1.803236,-0.0081,-0.0043,0.0021,0.0005,-0.0008,0.0003,-23.3813,-40.8,-27.2625,,adl
1.819844,-0.0081,-0.0043,0.0021,-0.0005,0.0003,0.0009,-23.3813,-40.8,-27.2625,,adl
1.857443,-0.0081,-0.0043,0.0021,-0.0005,0.0003,0.0009,-23.3813,-40.8,-27.2625,,adl
1.858482,-0.0009,-0.0074,0.0017,-0.0005,0.0003,0.0009,-23.3813,-40.8,-27.2625,,adl
1.863358,-0.0009,-0.0074,0.0017,-0.0005,0.0003,0.0009,-23.3813,-40.8375,-27.2438,,adl
1.877275,-0.0009,-0.0074,0.0017,0.0013,-0.0008,0.0005,-23.3813,-40.8375,-27.2438,,adl
1.920027,-0.0009,-0.0074,0.0017,0.0013,-0.0008,0.0005,-23.3813,-40.8375,-27.2438,,adl
1.9214,-0.0019,-0.0113,0.0009,0.0013,-0.0008,0.0005,-23.3813,-40.8375,-27.2438,,adl
1.927235,-0.0019,-0.0113,0.0009,0.0013,-0.0008,0.0005,-23.3813,-40.8,-27.1313,,adl
1.938254,-0.0019,-0.0113,0.0009,-0.0008,0.0003,0.0013,-23.3813,-40.8,-27.1313,,adl
1.981948,-0.0052,0.0045,-0.0079,-0.0008,0.0003,0.0013,-23.3813,-40.8,-27.1313,,adl
1.983125,-0.0052,0.0045,-0.0079,-0.0008,0.0003,0.0013,-23.3813,-40.8,-27.1313,,adl
1.983969,-0.0052,0.0045,-0.0079,-0.0008,0.0003,0.0013,-23.4,-40.7438,-27.2063,,adl
1.99946,-0.0052,0.0045,-0.0079,0.0009,0.0027,0.002,-23.4,-40.7438,-27.2063,,adl
2.040743,-0.0052,0.0045,-0.0079,0.0009,0.0027,0.002,-23.4,-40.7438,-27.2063,,adl
2.041906,0.0041,-0.0042,0.0005,0.0009,0.0027,0.002,-23.4,-40.7438,-27.2063,,adl
2.044585,0.0041,-0.0042,0.0005,0.0009,0.0027,0.002,-23.3438,-40.6688,-27.2063,,adl
2.060536,0.0041,-0.0042,0.0005,-0.0023,0.0009,0.0013,-23.3438,-40.6688,-27.2063,,adl
2.101054,0.0041,-0.0042,0.0005,-0.0023,0.0009,0.0013,-23.3438,-40.6688,-27.2063,,adl
2.103978,0.0041,-0.0042,0.0005,-0.0023,0.0009,0.0013,-23.325,-40.7063,-27.1875,,adl
2.121693,0.0041,-0.0042,0.0005,0.0003,-0.0001,0.0009,-23.325,-40.7063,-27.1875,,adl
2.123688,-0.0066,0.0049,0.0014,0.0003,-0.0001,0.0009,-23.325,-40.7063,-27.1875,,adl
2.162183,-0.0066,0.0049,0.0014,0.0003,-0.0001,0.0009,-23.325,-40.7063,-27.1875,,adl
2.163893,-0.0066,0.0049,0.0014,0.0003,-0.0001,0.0009,-23.25,-40.7438,-27.1125,,adl
2.181828,-0.0066,0.0049,0.0014,-0.0001,-0.0016,0.0003,-23.25,-40.7438,-27.1125,,adl
2.183271,-0.0036,-0.003,-0.0092,-0.0001,-0.0016,0.0003,-23.25,-40.7438,-27.1125,,adl
2.223988,-0.0036,-0.003,-0.0092,-0.0001,-0.0016,0.0003,-23.25,-40.7438,-27.1125,,adl
2.225308,-0.0036,-0.003,-0.0092,-0.0001,-0.0016,0.0003,-23.1938,-40.6125,-27.1688,,adl
2.245286,-0.0036,-0.003,-0.0092,0.0005,-0.0023,0.0005,-23.1938,-40.6125,-27.1688,,adl
2.247016,-0.0023,0.0021,0.0052,0.0005,-0.0023,0.0005,-23.1938,-40.6125,-27.1688,,adl
2.285904,-0.0023,0.0021,0.0052,0.0005,-0.0023,0.0005,-23.1,-40.65,-27.15,,adl
2.288019,-0.0023,0.0021,0.0052,0.0005,-0.0023,0.0005,-23.1,-40.65,-27.15,,adl
2.306042,-0.0023,0.0021,0.0052,0.0009,-0.0016,0.0005,-23.1,-40.65,-27.15,,adl
2.328058,-0.0034,-0.0036,0.0032,0.0009,-0.0016,0.0005,-23.1,-40.65,-27.15,,adl
2.346006,-0.0034,-0.0036,0.0032,0.0009,-0.0016,0.0005,-23.1,-40.65,-27.15,,adl
2.347494,-0.0034,-0.0036,0.0032,0.0009,-0.0016,0.0005,-23.0063,-40.5563,-27.1875,,adl
2.36628,-0.0034,-0.0036,0.0032,-0.0008,0.0009,-0.0001,-23.0063,-40.5563,-27.1875,,adl
2.385547,0.0046,0.0086,0.0018,-0.0008,0.0009,-0.0001,-23.0063,-40.5563,-27.1875,,adl
2.406842,0.0046,0.0086,0.0018,-0.0008,0.0009,-0.0001,-22.875,-40.5375,-27.1313,,adl
2.40935,0.0046,0.0086,0.0018,-0.0008,0.0009,-0.0001,-22.875,-40.5375,-27.1313,,adl
2.426215,0.0046,0.0086,0.0018,0.0016,-0.0008,0.0009,-22.875,-40.5375,-27.1313,,adl
2.446471,-0.0033,-0.005,0.0052,0.0016,-0.0008,0.0009,-22.875,-40.5375,-27.1313,,adl
2.46384,-0.0033,-0.005,0.0052,0.0016,-0.0008,0.0009,-23.025,-40.6875,-27.0563,,adl
2.465313,-0.0033,-0.005,0.0052,0.0016,-0.0008,0.0009,-23.025,-40.6875,-27.0563,,adl
2.487536,-0.0033,-0.005,0.0052,-0.0012,0.0005,-0.0001,-23.025,-40.6875,-27.0563,,adl
2.507074,-0.0038,0.0089,-0.0035,-0.0012,0.0005,-0.0001,-23.025,-40.6875,-27.0563,,adl
2.524051,-0.0038,0.0089,-0.0035,-0.0012,0.0005,-0.0001,-23.0813,-40.8375,-27.0375,,adl
2.526447,-0.0038,0.0089,-0.0035,-0.0012,0.0005,-0.0001,-23.0813,-40.8375,-27.0375,,adl
2.54914,-0.0038,0.0089,-0.0035,0.0009,0.0005,0.0005,-23.0813,-40.8375,-27.0375,,adl
2.585929,-0.0038,0.0089,-0.0035,0.0009,0.0005,0.0005,-23.1938,-40.8,-26.7938,,adl
2.588844,-0.0038,0.0089,-0.0035,0.0009,0.0005,0.0005,-23.1938,-40.8,-26.7938,,adl
2.589918,-0.0021,-0.0045,0.0006,0.0009,0.0005,0.0005,-23.1938,-40.8,-26.7938,,adl
2.609991,-0.0021,-0.0045,0.0006,0.002,-0.0019,-0.0001,-23.1938,-40.8,-26.7938,,adl
2.646767,-0.0021,-0.0045,0.0006,0.002,-0.0019,-0.0001,-23.1562,-40.725,-26.775,,adl
2.648341,-0.0164,-0.0067,-0.0013,0.002,-0.0019,-0.0001,-23.1562,-40.725,-26.775,,adl
2.649208,-0.0164,-0.0067,-0.0013,0.002,-0.0019,-0.0001,-23.1562,-40.725,-26.775,,adl
2.669652,-0.0164,-0.0067,-0.0013,-0.0005,0.0003,0.0016,-23.1562,-40.725,-26.775,,adl
2.707418,-0.0164,-0.0067,-0.0013,-0.0005,0.0003,0.0016,-23.0438,-40.7063,-26.7,,adl
2.712226,-0.0164,-0.0067,-0.0013,-0.0005,0.0003,0.0016,-23.0438,-40.7063,-26.7,,adl
2.713435,0.0006,0.0045,-0.0087,-0.0005,0.0003,0.0016,-23.0438,-40.7063,-26.7,,adl
2.73121,0.0006,0.0045,-0.0087,0.0003,-0.0019,0.0005,-23.0438,-40.7063,-26.7,,adl
2.764036,0.0006,0.0045,-0.0087,0.0003,-0.0019,0.0005,-23.0813,-40.7063,-26.7188,,adl
2.770493,0.0006,0.0045,-0.0087,0.0003,-0.0019,0.0005,-23.0813,-40.7063,-26.7188,,adl
2.791412,0.0006,0.0045,-0.0087,-0.0008,-0.0019,-0.0001,-23.0813,-40.7063,-26.7188,,adl
2.793417,-0.0064,0.0004,0.0026,-0.0008,-0.0019,-0.0001,-23.0813,-40.7063,-26.7188,,adl
2.825871,-0.0064,0.0004,0.0026,-0.0008,-0.0019,-0.0001,-23.1562,-40.7438,-26.6813,,adl
2.833364,-0.0064,0.0004,0.0026,-0.0008,-0.0019,-0.0001,-23.1562,-40.7438,-26.6813,,adl
2.852825,-0.0064,0.0004,0.0026,0.0009,-0.0019,-0.0001,-23.1562,-40.7438,-26.6813,,adl
2.854757,0.0012,0.0022,0.0003,0.0009,-0.0019,-0.0001,-23.1562,-40.7438,-26.6813,,adl
2.884384,0.0012,0.0022,0.0003,0.0009,-0.0019,-0.0001,-23.25,-40.6688,-26.8688,,adl
2.892691,0.0012,0.0022,0.0003,0.0009,-0.0019,-0.0001,-23.25,-40.6688,-26.8688,,adl
2.913197,0.0012,0.0022,0.0003,-0.0001,-0.0027,-0.0023,-23.25,-40.6688,-26.8688,,adl
2.914237,0.0019,0.0019,0.001,-0.0001,-0.0027,-0.0023,-23.25,-40.6688,-26.8688,,adl
2.944927,0.0019,0.0019,0.001,-0.0001,-0.0027,-0.0023,-23.0438,-40.6313,-26.85,,adl
2.952449,0.0019,0.0019,0.001,-0.0001,-0.0027,-0.0023,-23.0438,-40.6313,-26.85,,adl
2.973818,0.0019,0.0019,0.001,0.0003,-0.0029,-0.0016,-23.0438,-40.6313,-26.85,,adl
2.974919,-0.0042,0.0032,-0.0063,0.0003,-0.0029,-0.0016,-23.0438,-40.6313,-26.85,,adl
3.004681,-0.0042,0.0032,-0.0063,0.0003,-0.0029,-0.0016,-22.9875,-40.575,-26.925,,adl
3.014929,-0.0042,0.0032,-0.0063,0.0003,-0.0029,-0.0016,-22.9875,-40.575,-26.925,,adl
3.034953,-0.0042,0.0032,-0.0063,0.0003,0.0005,0.0013,-22.9875,-40.575,-26.925,,adl
3.055102,-0.0041,-0.0052,-0.0037,0.0003,0.0005,0.0013,-22.9875,-40.575,-26.925,,adl
3.06487,-0.0041,-0.0052,-0.0037,0.0003,0.0005,0.0013,-22.7812,-40.6125,-27.2063,,adl
3.075168,-0.0041,-0.0052,-0.0037,0.0003,0.0005,0.0013,-22.7812,-40.6125,-27.2063,,adl
3.095818,-0.0041,-0.0052,-0.0037,-0.0001,-0.0005,0.0009,-22.7812,-40.6125,-27.2063,,adl
3.117273,0.0005,0.0099,0.0008,-0.0001,-0.0005,0.0009,-22.7812,-40.6125,-27.2063,,adl
3.124478,0.0005,0.0099,0.0008,-0.0001,-0.0005,0.0009,-22.8375,-40.5938,-27.1688,,adl
3.13701,0.0005,0.0099,0.0008,-0.0001,-0.0005,0.0009,-22.8375,-40.5938,-27.1688,,adl
3.156851,0.0005,0.0099,0.0008,0.0031,-0.0029,0.0003,-22.8375,-40.5938,-27.1688,,adl
3.176693,-0.0047,-0.0065,-0.0028,0.0031,-0.0029,0.0003,-22.8375,-40.5938,-27.1688,,adl
3.182862,-0.0047,-0.0065,-0.0028,0.0031,-0.0029,0.0003,-22.8938,-40.7812,-27.15,,adl
3.199543,-0.0047,-0.0065,-0.0028,0.0031,-0.0029,0.0003,-22.8938,-40.7812,-27.15,,adl
3.217558,-0.0047,-0.0065,-0.0028,0.0003,-0.0019,-0.0001,-22.8938,-40.7812,-27.15,,adl
3.244965,-0.0047,-0.0065,-0.0028,0.0003,-0.0019,-0.0001,-22.8938,-40.8938,-27.3,,adl
3.258588,-0.0048,0.005,-0.0021,0.0003,-0.0019,-0.0001,-22.8938,-40.8938,-27.3,,adl
3.260437,-0.0048,0.005,-0.0021,0.0003,-0.0019,-0.0001,-22.8938,-40.8938,-27.3,,adl
3.278017,-0.0048,0.005,-0.0021,-0.0001,0.0003,0.0003,-22.8938,-40.8938,-27.3,,adl
3.304605,-0.0048,0.005,-0.0021,-0.0001,0.0003,0.0003,-22.875,-40.725,-27.3938,,adl
3.318874,-0.0048,0.005,-0.0021,-0.0001,0.0003,0.0003,-22.875,-40.725,-27.3938,,adl
3.320551,0.0057,0.0058,-0.0042,-0.0001,0.0003,0.0003,-22.875,-40.725,-27.3938,,adl
3.33957,0.0057,0.0058,-0.0042,-0.0008,-0.0008,-0.0008,-22.875,-40.725,-27.3938,,adl
3.363915,0.0057,0.0058,-0.0042,-0.0008,-0.0008,-0.0008,-22.8,-40.7812,-27.2625,,adl
3.380147,0.0057,0.0058,-0.0042,-0.0008,-0.0008,-0.0008,-22.8,-40.7812,-27.2625,,adl
3.381819,-0.0041,0.0037,-0.0008,-0.0008,-0.0008,-0.0008,-22.8,-40.7812,-27.2625,,adl
3.399502,-0.0041,0.0037,-0.0008,0.0005,0.0005,-0.0001,-22.8,-40.7812,-27.2625,,adl
3.425877,-0.0041,0.0037,-0.0008,0.0005,0.0005,-0.0001,-22.7438,-40.725,-27.1875,,adl
3.444416,-0.0041,0.0037,-0.0008,0.0005,0.0005,-0.0001,-22.7438,-40.725,-27.1875,,adl
3.445959,0.0054,-0.0024,0.0032,0.0005,0.0005,-0.0001,-22.7438,-40.725,-27.1875,,adl
3.461062,0.0054,-0.0024,0.0032,0.0003,0.0009,0.0005,-22.7438,-40.725,-27.1875,,adl
3.483816,0.0054,-0.0024,0.0032,0.0003,0.0009,0.0005,-22.7438,-40.6875,-27.0188,,adl
3.504465,0.0054,-0.0024,0.0032,0.0003,0.0009,0.0005,-22.7438,-40.6875,-27.0188,,adl
3.523618,0.0054,-0.0024,0.0032,0.0003,-0.0012,0.0003,-22.7438,-40.6875,-27.0188,,adl
3.525559,0.0027,0.0011,-0.0023,0.0003,-0.0012,0.0003,-22.7438,-40.6875,-27.0188,,adl
3.544892,0.0027,0.0011,-0.0023,0.0003,-0.0012,0.0003,-22.9125,-40.7812,-26.8313,,adl
3.563935,0.0027,0.0011,-0.0023,0.0003,-0.0012,0.0003,-22.9125,-40.7812,-26.8313,,adl
3.583751,0.0027,0.0011,-0.0023,0.0005,-0.0008,0.0005,-22.9125,-40.7812,-26.8313,,adl
3.585547,-0.0017,-0.0057,0.0,0.0005,-0.0008,0.0005,-22.9125,-40.7812,-26.8313,,adl
3.605418,-0.0017,-0.0057,0.0,0.0005,-0.0008,0.0005,-22.875,-40.9313,-26.8688,,adl
3.624225,-0.0017,-0.0057,0.0,0.0005,-0.0008,0.0005,-22.875,-40.9313,-26.8688,,adl
3.645292,-0.0017,-0.0057,0.0,-0.0001,-0.0005,-0.0005,-22.875,-40.9313,-26.8688,,adl
3.646857,0.0027,-0.0031,-0.0038,-0.0001,-0.0005,-0.0005,-22.875,-40.9313,-26.8688,,adl
3.668303,0.0027,-0.0031,-0.0038,-0.0001,-0.0005,-0.0005,-22.8188,-40.8188,-26.8688,,adl
3.68761,0.0027,-0.0031,-0.0038,-0.0001,-0.0005,-0.0005,-22.8188,-40.8188,-26.8688,,adl
3.706918,0.0027,-0.0031,-0.0038,0.0005,-0.0008,0.0003,-22.8188,-40.8188,-26.8688,,adl
3.725397,0.0027,-0.0031,-0.0038,0.0005,-0.0008,0.0003,-22.8938,-40.7438,-26.775,,adl
3.727736,-0.0066,-0.0106,0.0028,0.0005,-0.0008,0.0003,-22.8938,-40.7438,-26.775,,adl
3.745565,-0.0066,-0.0106,0.0028,0.0005,-0.0008,0.0003,-22.8938,-40.7438,-26.775,,adl
3.767023,-0.0066,-0.0106,0.0028,0.0009,-0.0012,0.0009,-22.8938,-40.7438,-26.775,,adl
3.786555,-0.0066,-0.0106,0.0028,0.0009,-0.0012,0.0009,-22.9125,-40.9875,-26.5875,,adl
3.790028,-0.0113,-0.0047,0.0053,0.0009,-0.0012,0.0009,-22.9125,-40.9875,-26.5875,,adl
3.807055,-0.0113,-0.0047,0.0053,0.0009,-0.0012,0.0009,-22.9125,-40.9875,-26.5875,,adl
3.825935,-0.0113,-0.0047,0.0053,0.0016,-0.0005,0.0009,-22.9125,-40.9875,-26.5875,,adl
3.845001,-0.0113,-0.0047,0.0053,0.0016,-0.0005,0.0009,-22.9875,-41.1375,-26.55,,adl
3.847108,-0.003,0.0034,0.0014,0.0016,-0.0005,0.0009,-22.9875,-41.1375,-26.55,,adl
3.867532,-0.003,0.0034,0.0014,0.0016,-0.0005,0.0009,-22.9875,-41.1375,-26.55,,adl
3.888928,-0.003,0.0034,0.0014,0.0005,-0.0005,0.0005,-22.9875,-41.1375,-26.55,,adl
3.904297,-0.003,0.0034,0.0014,0.0005,-0.0005,0.0005,-23.0625,-41.175,-26.6813,,adl
3.906862,-0.0007,-0.0038,-0.0035,0.0005,-0.0005,0.0005,-23.0625,-41.175,-26.6813,,adl
3.929605,-0.0007,-0.0038,-0.0035,0.0005,-0.0005,0.0005,-23.0625,-41.175,-26.6813,,adl
3.951793,-0.0007,-0.0038,-0.0035,0.0003,-0.0016,-0.0001,-23.0625,-41.175,-26.6813,,adl
3.965381,-0.0007,-0.0038,-0.0035,0.0003,-0.0016,-0.0001,-23.1375,-41.2688,-26.6625,,adl
3.990779,-0.0007,-0.0038,-0.0035,0.0003,-0.0016,-0.0001,-23.1375,-41.2688,-26.6625,,adl
3.992534,-0.0006,0.003,-0.0082,0.0003,-0.0016,-0.0001,-23.1375,-41.2688,-26.6625,,adl
4.010967,-0.0006,0.003,-0.0082,0.0009,-0.0012,0.0005,-23.1375,-41.2688,-26.6625,,adl
4.025799,-0.0006,0.003,-0.0082,0.0009,-0.0012,0.0005,-23.0813,-41.2688,-26.6625,,adl
4.05176,-0.0006,0.003,-0.0082,0.0009,-0.0012,0.0005,-23.0813,-41.2688,-26.6625,,adl
4.055036,0.0019,-0.0049,-0.0001,0.0009,-0.0012,0.0005,-23.0813,-41.2688,-26.6625,,adl
4.070386,0.0019,-0.0049,-0.0001,0.0003,-0.0005,-0.0001,-23.0813,-41.2688,-26.6625,,adl
4.085666,0.0019,-0.0049,-0.0001,0.0003,-0.0005,-0.0001,-23.1,-41.1938,-26.6063,,adl
4.111593,0.0019,-0.0049,-0.0001,0.0003,-0.0005,-0.0001,-23.1,-41.1938,-26.6063,,adl
4.113993,-0.0058,-0.0001,0.0008,0.0003,-0.0005,-0.0001,-23.1,-41.1938,-26.6063,,adl
4.130949,-0.0058,-0.0001,0.0008,0.0003,-0.0019,0.0003,-23.1,-41.1938,-26.6063,,adl
4.145455,-0.0058,-0.0001,0.0008,0.0003,-0.0019,0.0003,-23.1562,-41.1375,-26.5688,,adl
4.173411,-0.0058,-0.0001,0.0008,0.0003,-0.0019,0.0003,-23.1562,-41.1375,-26.5688,,adl
4.175965,-0.0025,-0.0057,-0.0015,0.0003,-0.0019,0.0003,-23.1562,-41.1375,-26.5688,,adl
4.192808,-0.0025,-0.0057,-0.0015,0.0005,-0.0001,0.0016,-23.1562,-41.1375,-26.5688,,adl
4.204703,-0.0025,-0.0057,-0.0015,0.0005,-0.0001,0.0016,-23.0625,-41.1938,-26.5313,,adl
4.232663,-0.0025,-0.0057,-0.0015,0.0005,-0.0001,0.0016,-23.0625,-41.1938,-26.5313,,adl
4.254202,-0.0025,-0.0057,-0.0015,-0.0012,0.0009,-0.0005,-23.0625,-41.1938,-26.5313,,adl
4.255798,-0.0051,-0.0037,-0.0027,-0.0012,0.0009,-0.0005,-23.0625,-41.1938,-26.5313,,adl
4.265488,-0.0051,-0.0037,-0.0027,-0.0012,0.0009,-0.0005,-22.95,-41.1562,-26.55,,adl
4.29508,-0.0051,-0.0037,-0.0027,-0.0012,0.0009,-0.0005,-22.95,-41.1562,-26.55,,adl
4.315795,-0.0051,-0.0037,-0.0027,-0.0016,0.0027,-0.0001,-22.95,-41.1562,-26.55,,adl
4.318495,0.0063,-0.0011,-0.0024,-0.0016,0.0027,-0.0001,-22.95,-41.1562,-26.55,,adl
4.323069,0.0063,-0.0011,-0.0024,-0.0016,0.0027,-0.0001,-22.9313,-41.1188,-26.4375,,adl
4.35656,0.0063,-0.0011,-0.0024,-0.0016,0.0027,-0.0001,-22.9313,-41.1188,-26.4375,,adl
4.374849,0.0063,-0.0011,-0.0024,-0.0005,0.0003,0.0003,-22.9313,-41.1188,-26.4375,,adl
4.377265,-0.009,-0.01,0.0097,-0.0005,0.0003,0.0003,-22.9313,-41.1188,-26.4375,,adl
4.386798,-0.009,-0.01,0.0097,-0.0005,0.0003,0.0003,-22.95,-41.0438,-26.4,,adl
4.417627,-0.009,-0.01,0.0097,-0.0005,0.0003,0.0003,-22.95,-41.0438,-26.4,,adl
4.436635,-0.009,-0.01,0.0097,0.0003,0.0003,0.0013,-22.95,-41.0438,-26.4,,adl
4.445112,-0.009,-0.01,0.0097,0.0003,0.0003,0.0013,-22.8375,-41.175,-26.3063,,adl
4.457953,-0.0008,0.0015,-0.0002,0.0003,0.0003,0.0013,-22.8375,-41.175,-26.3063,,adl
4.477977,-0.0008,0.0015,-0.0002,0.0003,0.0003,0.0013,-22.8375,-41.175,-26.3063,,adl
4.496044,-0.0008,0.0015,-0.0002,-0.0005,-0.0016,0.0009,-22.8375,-41.175,-26.3063,,adl
4.505995,-0.0008,0.0015,-0.0002,-0.0005,-0.0016,0.0009,-22.7438,-41.1188,-26.3813,,adl
4.519087,-0.0025,-0.0023,0.0045,-0.0005,-0.0016,0.0009,-22.7438,-41.1188,-26.3813,,adl
4.535866,-0.0025,-0.0023,0.0045,-0.0005,-0.0016,0.0009,-22.7438,-41.1188,-26.3813,,adl
4.555914,-0.0025,-0.0023,0.0045,-0.0005,-0.0016,-0.0001,-22.7438,-41.1188,-26.3813,,adl
4.563616,-0.0025,-0.0023,0.0045,-0.0005,-0.0016,-0.0001,-22.7812,-41.0625,-26.4938,,adl
4.576357,-0.0018,0.0082,-0.0,-0.0005,-0.0016,-0.0001,-22.7812,-41.0625,-26.4938,,adl
4.597619,-0.0018,0.0082,-0.0,-0.0005,-0.0016,-0.0001,-22.7812,-41.0625,-26.4938,,adl
4.61847,-0.0018,0.0082,-0.0,0.0003,-0.0016,0.0003,-22.7812,-41.0625,-26.4938,,adl
4.623498,-0.0018,0.0082,-0.0,0.0003,-0.0016,0.0003,-22.8188,-41.1188,-26.5688,,adl
4.640691,0.0019,-0.0008,0.008,0.0003,-0.0016,0.0003,-22.8188,-41.1188,-26.5688,,adl
4.659962,0.0019,-0.0008,0.008,0.0003,-0.0016,0.0003,-22.8188,-41.1188,-26.5688,,adl
4.681123,0.0019,-0.0008,0.008,-0.0001,0.0003,0.0013,-22.8188,-41.1188,-26.5688,,adl
4.684707,0.0019,-0.0008,0.008,-0.0001,0.0003,0.0013,-22.8938,-41.1,-26.625,,adl
4.722257,0.0019,-0.0008,0.008,-0.0001,0.0003,0.0013,-22.8938,-41.1,-26.625,,adl
4.725075,0.0007,-0.0049,0.0004,-0.0001,0.0003,0.0013,-22.8938,-41.1,-26.625,,adl
4.739287,0.0007,-0.0049,0.0004,-0.0008,-0.0008,0.0005,-22.8938,-41.1,-26.625,,adl
4.743625,0.0007,-0.0049,0.0004,-0.0008,-0.0008,0.0005,-22.9875,-41.1,-26.5313,,adl
4.783262,0.0007,-0.0049,0.0004,-0.0008,-0.0008,0.0005,-22.9875,-41.1,-26.5313,,adl
4.78655,-0.0049,0.0036,-0.008,-0.0008,-0.0008,0.0005,-22.9875,-41.1,-26.5313,,adl
4.801185,-0.0049,0.0036,-0.008,0.0005,-0.0012,-0.0001,-22.9875,-41.1,-26.5313,,adl
4.803707,-0.0049,0.0036,-0.008,0.0005,-0.0012,-0.0001,-22.8563,-41.1,-26.625,,adl
4.844531,-0.0049,0.0036,-0.008,0.0005,-0.0012,-0.0001,-22.8563,-41.1,-26.625,,adl
4.8478,-0.0023,-0.0054,-0.0008,0.0005,-0.0012,-0.0001,-22.8563,-41.1,-26.625,,adl
4.86146,-0.0023,-0.0054,-0.0008,-0.0001,-0.0005,0.0005,-22.8563,-41.1,-26.625,,adl
4.863261,-0.0023,-0.0054,-0.0008,-0.0001,-0.0005,0.0005,-22.725,-41.025,-26.625,,adl
4.904594,-0.0023,-0.0054,-0.0008,-0.0001,-0.0005,0.0005,-22.725,-41.025,-26.625,,adl
4.924807,-0.0023,-0.0054,-0.0008,0.0003,-0.0016,-0.0005,-22.725,-41.025,-26.625,,adl
4.927213,-0.0053,0.0012,-0.0074,0.0003,-0.0016,-0.0005,-22.725,-41.025,-26.625,,adl
4.92932,-0.0053,0.0012,-0.0074,0.0003,-0.0016,-0.0005,-22.8188,-40.8375,-26.7938,,adl
4.967085,-0.0053,0.0012,-0.0074,0.0003,-0.0016,-0.0005,-22.8188,-40.8375,-26.7938,,adl
4.986345,-0.0053,0.0012,-0.0074,0.0003,-0.0016,-0.0005,-22.8375,-40.9125,-26.7563,,adl
4.990044,-0.0053,0.0012,-0.0074,0.0003,-0.0008,0.0013,-22.8375,-40.9125,-26.7563,,adl
4.99201,0.0069,0.0061,-0.0058,0.0003,-0.0008,0.0013,-22.8375,-40.9125,-26.7563,,adl
5.025037,0.0069,0.0061,-0.0058,0.0003,-0.0008,0.0013,-22.8375,-40.9125,-26.7563,,adl
5.044028,0.0069,0.0061,-0.0058,0.0003,-0.0008,0.0003,-22.8375,-40.9125,-26.7563,,adl
5.045622,-0.0123,-0.0058,0.0029,0.0003,-0.0008,0.0003,-22.8375,-40.9125,-26.7563,,adl
5.04633,-0.0123,-0.0058,0.0029,0.0003,-0.0008,0.0003,-22.7812,-40.95,-26.7375,,adl
5.085331,-0.0123,-0.0058,0.0029,0.0003,-0.0008,0.0003,-22.7812,-40.95,-26.7375,,adl
5.105335,-0.0123,-0.0058,0.0029,-0.0016,0.0027,0.0003,-22.7812,-40.95,-26.7375,,adl
5.106873,0.0009,0.0089,-0.0023,-0.0016,0.0027,0.0003,-22.7812,-40.95,-26.7375,,adl
5.1076,0.0009,0.0089,-0.0023,-0.0016,0.0027,0.0003,-22.7625,-40.9125,-26.7375,,adl
5.146658,0.0009,0.0089,-0.0023,-0.0016,0.0027,0.0003,-22.7625,-40.9125,-26.7375,,adl
5.165511,0.0009,0.0089,-0.0023,-0.0016,0.0027,0.0003,-22.7812,-41.0438,-26.6063,,adl
5.167058,0.0009,0.0089,-0.0023,-0.0001,0.0005,0.0005,-22.7812,-41.0438,-26.6063,,adl
5.187694,-0.008,-0.0002,-0.0029,-0.0001,0.0005,0.0005,-22.7812,-41.0438,-26.6063,,adl
5.206376,-0.008,-0.0002,-0.0029,-0.0001,0.0005,0.0005,-22.7812,-41.0438,-26.6063,,adl
5.223856,-0.008,-0.0002,-0.0029,-0.0001,0.0005,0.0005,-22.8938,-41.0813,-26.7938,,adl
5.225824,-0.008,-0.0002,-0.0029,-0.0012,-0.0001,0.0005,-22.8938,-41.0813,-26.7938,,adl
5.246932,0.0081,-0.0036,-0.0032,-0.0012,-0.0001,0.0005,-22.8938,-41.0813,-26.7938,,adl
5.267868,0.0081,-0.0036,-0.0032,-0.0012,-0.0001,0.0005,-22.8938,-41.0813,-26.7938,,adl
5.286425,0.0081,-0.0036,-0.0032,-0.0012,-0.0001,0.0005,-22.9875,-41.0813,-26.8125,,adl
5.288695,0.0081,-0.0036,-0.0032,0.0009,-0.0023,0.0013,-22.9875,-41.0813,-26.8125,,adl
5.308592,-0.0021,-0.0053,-0.0039,0.0009,-0.0023,0.0013,-22.9875,-41.0813,-26.8125,,adl
5.330944,-0.0021,-0.0053,-0.0039,0.0009,-0.0023,0.0013,-22.9875,-41.0813,-26.8125,,adl
5.346172,-0.0021,-0.0053,-0.0039,0.0009,-0.0023,0.0013,-23.1562,-41.1375,-26.8313,,adl
5.349939,-0.0021,-0.0053,-0.0039,0.0009,-0.0019,-0.0001,-23.1562,-41.1375,-26.8313,,adl
5.392565,-0.0021,-0.0053,-0.0039,0.0009,-0.0019,-0.0001,-23.1562,-41.1375,-26.8313,,adl
5.395732,-0.0044,-0.0029,0.0002,0.0009,-0.0019,-0.0001,-23.1562,-41.1375,-26.8313,,adl
5.405093,-0.0044,-0.0029,0.0002,0.0009,-0.0019,-0.0001,-23.1375,-41.1562,-26.6625,,adl
5.409576,-0.0044,-0.0029,0.0002,-0.0008,-0.0005,0.0009,-23.1375,-41.1562,-26.6625,,adl
5.451984,-0.0044,-0.0029,0.0002,-0.0008,-0.0005,0.0009,-23.1375,-41.1562,-26.6625,,adl
5.455931,-0.0042,0.0002,-0.0011,-0.0008,-0.0005,0.0009,-23.1375,-41.1562,-26.6625,,adl
5.463842,-0.0042,0.0002,-0.0011,-0.0008,-0.0005,0.0009,-23.2125,-41.1,-26.7188,,adl
5.469889,-0.0042,0.0002,-0.0011,-0.0012,0.0003,0.0005,-23.2125,-41.1,-26.7188,,adl
5.514314,-0.0042,0.0002,-0.0011,-0.0012,0.0003,0.0005,-23.2125,-41.1,-26.7188,,adl
5.517308,-0.01,-0.0002,-0.002,-0.0012,0.0003,0.0005,-23.2125,-41.1,-26.7188,,adl
5.525927,-0.01,-0.0002,-0.002,-0.0012,0.0003,0.0005,-23.2688,-41.3063,-26.625,,adl
5.532778,-0.01,-0.0002,-0.002,-0.0008,0.0003,0.0009,-23.2688,-41.3063,-26.625,,adl
5.574384,-0.01,-0.0002,-0.002,-0.0008,0.0003,0.0009,-23.2688,-41.3063,-26.625,,adl
5.577723,-0.0009,0.004,0.0005,-0.0008,0.0003,0.0009,-23.2688,-41.3063,-26.625,,adl
5.585481,-0.0009,0.004,0.0005,-0.0008,0.0003,0.0009,-23.2875,-41.4375,-26.5688,,adl
5.593091,-0.0009,0.004,0.0005,0.0003,-0.0008,-0.0001,-23.2875,-41.4375,-26.5688,,adl
5.635562,-0.0009,0.004,0.0005,0.0003,-0.0008,-0.0001,-23.2875,-41.4375,-26.5688,,adl
5.64312,-0.0009,0.004,0.0005,0.0003,-0.0008,-0.0001,-23.25,-41.325,-26.4938,,adl
5.652986,-0.0009,0.004,0.0005,-0.0012,-0.0005,-0.0001,-23.25,-41.325,-26.4938,,adl
5.654385,-0.0027,-0.0019,-0.0078,-0.0012,-0.0005,-0.0001,-23.25,-41.325,-26.4938,,adl
5.696807,-0.0027,-0.0019,-0.0078,-0.0012,-0.0005,-0.0001,-23.25,-41.325,-26.4938,,adl
5.703374,-0.0027,-0.0019,-0.0078,-0.0012,-0.0005,-0.0001,-23.2688,-41.3625,-26.475,,adl
5.715568,-0.0027,-0.0019,-0.0078,0.0005,-0.0012,0.0003,-23.2688,-41.3625,-26.475,,adl
5.716766,0.0008,0.0017,0.005,0.0005,-0.0012,0.0003,-23.2688,-41.3625,-26.475,,adl
5.757497,0.0008,0.0017,0.005,0.0005,-0.0012,0.0003,-23.2688,-41.3625,-26.475,,adl
5.767389,0.0008,0.0017,0.005,0.0005,-0.0012,0.0003,-23.325,-41.3625,-26.4563,,adl
5.778139,0.0008,0.0017,0.005,0.0024,-0.0008,0.0016,-23.325,-41.3625,-26.4563,,adl
5.780752,-0.0026,0.0012,0.0007,0.0024,-0.0008,0.0016,-23.325,-41.3625,-26.4563,,adl
5.818353,-0.0026,0.0012,0.0007,0.0024,-0.0008,0.0016,-23.325,-41.3625,-26.4563,,adl
5.825136,-0.0026,0.0012,0.0007,0.0024,-0.0008,0.0016,-23.2313,-41.3813,-26.4563,,adl
5.836424,-0.0026,0.0012,0.0007,-0.0016,-0.0001,-0.0001,-23.2313,-41.3813,-26.4563,,adl
5.85821,-0.0005,0.0066,0.008,-0.0016,-0.0001,-0.0001,-23.2313,-41.3813,-26.4563,,adl
5.876672,-0.0005,0.0066,0.008,-0.0016,-0.0001,-0.0001,-23.2313,-41.3813,-26.4563,,adl
5.883736,-0.0005,0.0066,0.008,-0.0016,-0.0001,-0.0001,-23.2313,-41.2313,-26.6625,,adl
5.895193,-0.0005,0.0066,0.008,-0.0008,0.0009,-0.0008,-23.2313,-41.2313,-26.6625,,adl
5.919756,-0.002,0.0086,0.003,-0.0008,0.0009,-0.0008,-23.2313,-41.2313,-26.6625,,adl
5.940262,-0.002,0.0086,0.003,-0.0008,0.0009,-0.0008,-23.2313,-41.2313,-26.6625,,adl
5.943582,-0.002,0.0086,0.003,-0.0008,0.0009,-0.0008,-23.1938,-41.1188,-26.6438,,adl
5.957716,-0.002,0.0086,0.003,0.0003,0.0005,0.0005,-23.1938,-41.1188,-26.6438,,adl
5.978527,-0.003,-0.0045,-0.0003,0.0003,0.0005,0.0005,-23.1938,-41.1188,-26.6438,,adl
5.999287,-0.003,-0.0045,-0.0003,0.0003,0.0005,0.0005,-23.1938,-41.1188,-26.6438,,adl
6.003626,-0.003,-0.0045,-0.0003,0.0003,0.0005,0.0005,-23.0813,-40.9688,-26.6438,,adl
6.018466,-0.003,-0.0045,-0.0003,-0.0005,-0.0005,0.0005,-23.0813,-40.9688,-26.6438,,adl
6.038691,-0.0073,0.0038,-0.0031,-0.0005,-0.0005,0.0005,-23.0813,-40.9688,-26.6438,,adl
6.059563,-0.0073,0.0038,-0.0031,-0.0005,-0.0005,0.0005,-23.0813,-40.9688,-26.6438,,adl
6.064989,-0.0073,0.0038,-0.0031,-0.0005,-0.0005,0.0005,-23.0063,-41.025,-26.6438,,adl
6.079504,-0.0073,0.0038,-0.0031,0.0003,-0.0008,0.0005,-23.0063,-41.025,-26.6438,,adl
6.123783,-0.0073,0.0038,-0.0031,0.0003,-0.0008,0.0005,-23.0063,-41.025,-26.6438,,adl
6.125452,-0.0084,-0.0026,-0.0024,0.0003,-0.0008,0.0005,-23.0063,-41.025,-26.6438,,adl
6.126256,-0.0084,-0.0026,-0.0024,0.0003,-0.0008,0.0005,-22.9688,-41.0625,-26.7375,,adl
6.143129,-0.0084,-0.0026,-0.0024,-0.0005,-0.0027,-0.0001,-22.9688,-41.0625,-26.7375,,adl
6.182184,-0.0084,-0.0026,-0.0024,-0.0005,-0.0027,-0.0001,-22.9688,-41.0625,-26.7375,,adl
6.185706,-0.0083,-0.0015,-0.0007,-0.0005,-0.0027,-0.0001,-22.9688,-41.0625,-26.7375,,adl
6.187774,-0.0083,-0.0015,-0.0007,-0.0005,-0.0027,-0.0001,-22.8375,-40.95,-26.7375,,adl
6.201873,-0.0083,-0.0015,-0.0007,0.0005,-0.0012,0.0009,-22.8375,-40.95,-26.7375,,adl
6.243967,0.0086,-0.0036,0.0007,0.0005,-0.0012,0.0009,-22.8375,-40.95,-26.7375,,adl
6.246579,0.0086,-0.0036,0.0007,0.0005,-0.0012,0.0009,-22.8375,-40.95,-26.7375,,adl
6.247854,0.0086,-0.0036,0.0007,0.0005,-0.0012,0.0009,-22.8188,-40.9313,-26.85,,adl
6.261999,0.0086,-0.0036,0.0007,0.0003,-0.0001,0.0013,-22.8188,-40.9313,-26.85,,adl
6.305944,0.0086,-0.0036,0.0007,0.0003,-0.0001,0.0013,-22.8188,-40.9313,-26.85,,adl
6.309111,0.0086,-0.0036,0.0007,0.0003,-0.0001,0.0013,-22.875,-41.0438,-26.7938,,adl
6.324315,0.0086,-0.0036,0.0007,0.0009,-0.0005,0.0005,-22.875,-41.0438,-26.7938,,adl
6.325775,-0.0078,-0.0008,-0.003,0.0009,-0.0005,0.0005,-22.875,-41.0438,-26.7938,,adl
6.367091,-0.0078,-0.0008,-0.003,0.0009,-0.0005,0.0005,-22.875,-41.0438,-26.7938,,adl
6.370618,-0.0078,-0.0008,-0.003,0.0009,-0.0005,0.0005,-22.9313,-41.2313,-26.8313,,adl
6.385437,-0.0078,-0.0008,-0.003,0.002,-0.0019,0.0009,-22.9313,-41.2313,-26.8313,,adl
6.387089,-0.008,-0.0056,-0.0049,0.002,-0.0019,0.0009,-22.9313,-41.2313,-26.8313,,adl
6.426994,-0.008,-0.0056,-0.0049,0.002,-0.0019,0.0009,-22.9313,-41.325,-26.8125,,adl
6.430005,-0.008,-0.0056,-0.0049,0.002,-0.0019,0.0009,-22.9313,-41.325,-26.8125,,adl
6.445921,-0.008,-0.0056,-0.0049,-0.0001,-0.0008,0.0003,-22.9313,-41.325,-26.8125,,adl
6.447824,-0.009,-0.0019,-0.0026,-0.0001,-0.0008,0.0003,-22.9313,-41.325,-26.8125,,adl
6.487533,-0.009,-0.0019,-0.0026,-0.0001,-0.0008,0.0003,-22.8938,-41.2313,-26.9625,,adl
6.490937,-0.009,-0.0019,-0.0026,-0.0001,-0.0008,0.0003,-22.8938,-41.2313,-26.9625,,adl
6.505494,-0.009,-0.0019,-0.0026,0.0005,-0.0019,0.0013,-22.8938,-41.2313,-26.9625,,adl
6.507179,-0.0011,-0.0013,-0.0079,0.0005,-0.0019,0.0013,-22.8938,-41.2313,-26.9625,,adl
6.547102,-0.0011,-0.0013,-0.0079,0.0005,-0.0019,0.0013,-22.9313,-41.0813,-26.9813,,adl
6.5499,-0.0011,-0.0013,-0.0079,0.0005,-0.0019,0.0013,-22.9313,-41.0813,-26.9813,,adl
6.567954,-0.0011,-0.0013,-0.0079,0.0005,-0.0005,0.0005,-22.9313,-41.0813,-26.9813,,adl
6.588661,-0.0019,-0.0097,0.0007,0.0005,-0.0005,0.0005,-22.9313,-41.0813,-26.9813,,adl
6.604348,-0.0019,-0.0097,0.0007,0.0005,-0.0005,0.0005,-22.8938,-41.0813,-26.8875,,adl
6.608037,-0.0019,-0.0097,0.0007,0.0005,-0.0005,0.0005,-22.8938,-41.0813,-26.8875,,adl
6.629792,-0.0019,-0.0097,0.0007,-0.0005,0.0016,0.0003,-22.8938,-41.0813,-26.8875,,adl
6.647897,-0.0034,0.0025,0.0053,-0.0005,0.0016,0.0003,-22.8938,-41.0813,-26.8875,,adl
6.665901,-0.0034,0.0025,0.0053,-0.0005,0.0016,0.0003,-22.9313,-41.1,-26.85,,adl
6.672032,-0.0034,0.0025,0.0053,-0.0005,0.0016,0.0003,-22.9313,-41.1,-26.85,,adl
6.688369,-0.0034,0.0025,0.0053,0.0005,-0.0005,0.0003,-22.9313,-41.1,-26.85,,adl
6.7107,-0.0034,0.0032,-0.0007,0.0005,-0.0005,0.0003,-22.9313,-41.1,-26.85,,adl
6.725403,-0.0034,0.0032,-0.0007,0.0005,-0.0005,0.0003,-22.9313,-41.1375,-26.775,,adl
6.731279,-0.0034,0.0032,-0.0007,0.0005,-0.0005,0.0003,-22.9313,-41.1375,-26.775,,adl
6.749409,-0.0034,0.0032,-0.0007,-0.0008,0.0009,-0.0001,-22.9313,-41.1375,-26.775,,adl
6.787105,-0.0034,0.0032,-0.0007,-0.0008,0.0009,-0.0001,-22.9313,-41.1,-26.7375,,adl
6.7904,-0.0034,0.0032,-0.0007,-0.0008,0.0009,-0.0001,-22.9313,-41.1,-26.7375,,adl
6.792224,0.0066,0.001,0.0022,-0.0008,0.0009,-0.0001,-22.9313,-41.1,-26.7375,,adl
6.811358,0.0066,0.001,0.0022,0.0009,-0.0027,0.0009,-22.9313,-41.1,-26.7375,,adl
6.845864,0.0066,0.001,0.0022,0.0009,-0.0027,0.0009,-22.8188,-41.1,-26.625,,adl
6.855112,0.0066,0.001,0.0022,0.0009,-0.0027,0.0009,-22.8188,-41.1,-26.625,,adl
6.857167,-0.0051,-0.0047,-0.0033,0.0009,-0.0027,0.0009,-22.8188,-41.1,-26.625,,adl
6.870987,-0.0051,-0.0047,-0.0033,0.0005,-0.0023,-0.0001,-22.8188,-41.1,-26.625,,adl
6.906712,-0.0051,-0.0047,-0.0033,0.0005,-0.0023,-0.0001,-22.8188,-41.0438,-26.4938,,adl
6.913311,-0.0051,-0.0047,-0.0033,0.0005,-0.0023,-0.0001,-22.8188,-41.0438,-26.4938,,adl
6.914661,-0.0018,-0.003,-0.0081,0.0005,-0.0023,-0.0001,-22.8188,-41.0438,-26.4938,,adl
6.932006,-0.0018,-0.003,-0.0081,0.0005,-0.0012,-0.0001,-22.8188,-41.0438,-26.4938,,adl
6.966117,-0.0018,-0.003,-0.0081,0.0005,-0.0012,-0.0001,-22.7812,-41.1188,-26.3625,,adl
6.973722,-0.0018,-0.003,-0.0081,0.0005,-0.0012,-0.0001,-22.7812,-41.1188,-26.3625,,adl
6.975516,-0.0062,-0.0004,0.0076,0.0005,-0.0012,-0.0001,-22.7812,-41.1188,-26.3625,,adl
6.994522,-0.0062,-0.0004,0.0076,0.0009,-0.0012,0.0005,-22.7812,-41.1188,-26.3625,,adl
7.02636,-0.0062,-0.0004,0.0076,0.0009,-0.0012,0.0005,-22.7625,-41.0063,-26.4,,adl
7.038094,-0.0062,-0.0004,0.0076,0.0009,-0.0012,0.0005,-22.7625,-41.0063,-26.4,,adl
7.053887,-0.0062,-0.0004,0.0076,-0.0001,-0.0001,0.0003,-22.7625,-41.0063,-26.4,,adl
7.055582,0.0011,0.0012,0.0036,-0.0001,-0.0001,0.0003,-22.7625,-41.0063,-26.4,,adl
7.086596,0.0011,0.0012,0.0036,-0.0001,-0.0001,0.0003,-22.5938,-40.8563,-26.4188,,adl
7.097311,0.0011,0.0012,0.0036,-0.0001,-0.0001,0.0003,-22.5938,-40.8563,-26.4188,,adl
7.114817,0.0011,0.0012,0.0036,0.0005,-0.0016,0.0003,-22.5938,-40.8563,-26.4188,,adl
7.11825,-0.0015,0.0024,-0.0031,0.0005,-0.0016,0.0003,-22.5938,-40.8563,-26.4188,,adl
7.14368,-0.0015,0.0024,-0.0031,0.0005,-0.0016,0.0003,-22.6875,-40.8375,-26.4188,,adl
7.155718,-0.0015,0.0024,-0.0031,0.0005,-0.0016,0.0003,-22.6875,-40.8375,-26.4188,,adl
7.177567,-0.0015,0.0024,-0.0031,0.0003,-0.0005,0.0003,-22.6875,-40.8375,-26.4188,,adl
7.181124,-0.0004,-0.0049,0.0018,0.0003,-0.0005,0.0003,-22.6875,-40.8375,-26.4188,,adl
7.206447,-0.0004,-0.0049,0.0018,0.0003,-0.0005,0.0003,-22.725,-40.7063,-26.5688,,adl
7.216718,-0.0004,-0.0049,0.0018,0.0003,-0.0005,0.0003,-22.725,-40.7063,-26.5688,,adl
7.23922,-0.0004,-0.0049,0.0018,0.0009,-0.0008,0.0003,-22.725,-40.7063,-26.5688,,adl
7.257377,-0.004,0.0034,-0.0022,0.0009,-0.0008,0.0003,-22.725,-40.7063,-26.5688,,adl
7.26205,-0.004,0.0034,-0.0022,0.0009,-0.0008,0.0003,-22.725,-40.5938,-26.5875,,adl
7.277148,-0.004,0.0034,-0.0022,0.0009,-0.0008,0.0003,-22.725,-40.5938,-26.5875,,adl
7.298095,-0.004,0.0034,-0.0022,0.0003,-0.0008,0.0003,-22.725,-40.5938,-26.5875,,adl
7.31752,-0.0,0.0046,-0.0009,0.0003,-0.0008,0.0003,-22.725,-40.5938,-26.5875,,adl
7.323302,-0.0,0.0046,-0.0009,0.0003,-0.0008,0.0003,-22.875,-40.4813,-26.8125,,adl
7.338455,-0.0,0.0046,-0.0009,0.0003,-0.0008,0.0003,-22.875,-40.4813,-26.8125,,adl
7.358674,-0.0,0.0046,-0.0009,0.0013,-0.0005,0.0016,-22.875,-40.4813,-26.8125,,adl
7.379564,-0.0055,-0.0018,-0.005,0.0013,-0.0005,0.0016,-22.875,-40.4813,-26.8125,,adl
7.382085,-0.0055,-0.0018,-0.005,0.0013,-0.0005,0.0016,-22.9875,-40.5375,-27.1313,,adl
7.398623,-0.0055,-0.0018,-0.005,0.0013,-0.0005,0.0016,-22.9875,-40.5375,-27.1313,,adl
7.419701,-0.0055,-0.0018,-0.005,0.0003,-0.0008,0.0005,-22.9875,-40.5375,-27.1313,,adl
7.439616,0.0005,-0.0017,-0.007,0.0003,-0.0008,0.0005,-22.9875,-40.5375,-27.1313,,adl
7.445271,0.0005,-0.0017,-0.007,0.0003,-0.0008,0.0005,-23.1938,-40.4813,-27.2625,,adl
7.459996,0.0005,-0.0017,-0.007,0.0003,-0.0008,0.0005,-23.1938,-40.4813,-27.2625,,adl
7.484143,0.0005,-0.0017,-0.007,-0.0005,0.0031,0.0009,-23.1938,-40.4813,-27.2625,,adl
7.505504,0.0005,-0.0017,-0.007,-0.0005,0.0031,0.0009,-23.2313,-40.5,-27.3,,adl
7.521185,0.0005,-0.0017,-0.007,-0.0005,0.0031,0.0009,-23.2313,-40.5,-27.3,,adl
7.523173,0.0014,-0.0042,-0.0046,-0.0005,0.0031,0.0009,-23.2313,-40.5,-27.3,,adl
7.54052,0.0014,-0.0042,-0.0046,0.0005,-0.0005,0.0005,-23.2313,-40.5,-27.3,,adl
7.564396,0.0014,-0.0042,-0.0046,0.0005,-0.0005,0.0005,-23.5125,-40.4438,-27.3563,,adl
7.582668,-0.0045,-0.0068,0.0077,0.0005,-0.0005,0.0005,-23.5125,-40.4438,-27.3563,,adl
7.583506,-0.0045,-0.0068,0.0077,0.0005,-0.0005,0.0005,-23.5125,-40.4438,-27.3563,,adl
7.601876,-0.0045,-0.0068,0.0077,-0.0008,-0.0001,0.0003,-23.5125,-40.4438,-27.3563,,adl
7.625887,-0.0045,-0.0068,0.0077,-0.0008,-0.0001,0.0003,-23.3813,-40.3875,-27.45,,adl
7.643678,-0.0045,-0.0068,0.0077,-0.0008,-0.0001,0.0003,-23.3813,-40.3875,-27.45,,adl
7.64613,-0.0023,-0.0044,-0.0056,-0.0008,-0.0001,0.0003,-23.3813,-40.3875,-27.45,,adl
7.663959,-0.0023,-0.0044,-0.0056,0.0009,-0.0016,0.0013,-23.3813,-40.3875,-27.45,,adl
7.688528,-0.0023,-0.0044,-0.0056,0.0009,-0.0016,0.0013,-23.325,-40.5938,-27.1875,,adl
7.70836,-0.0023,-0.0044,-0.0056,0.0009,-0.0016,0.0013,-23.325,-40.5938,-27.1875,,adl
7.726237,-0.0023,-0.0044,-0.0056,0.0003,-0.0008,0.0003,-23.325,-40.5938,-27.1875,,adl
7.729835,-0.0083,-0.0068,0.0073,0.0003,-0.0008,0.0003,-23.325,-40.5938,-27.1875,,adl
7.744829,-0.0083,-0.0068,0.0073,0.0003,-0.0008,0.0003,-23.3625,-40.7438,-27.1125,,adl
7.765314,-0.0083,-0.0068,0.0073,0.0003,-0.0008,0.0003,-23.3625,-40.7438,-27.1125,,adl
7.78758,-0.0083,-0.0068,0.0073,-0.0001,-0.0008,0.0003,-23.3625,-40.7438,-27.1125,,adl
7.790074,0.0012,0.0029,-0.0117,-0.0001,-0.0008,0.0003,-23.3625,-40.7438,-27.1125,,adl
7.806253,0.0012,0.0029,-0.0117,-0.0001,-0.0008,0.0003,-23.3438,-40.7812,-26.9813,,adl
7.827013,0.0012,0.0029,-0.0117,-0.0001,-0.0008,0.0003,-23.3438,-40.7812,-26.9813,,adl
7.845194,0.0012,0.0029,-0.0117,-0.0001,-0.0001,0.0013,-23.3438,-40.7812,-26.9813,,adl
7.846584,-0.0101,0.0019,-0.0004,-0.0001,-0.0001,0.0013,-23.3438,-40.7812,-26.9813,,adl
7.865928,-0.0101,0.0019,-0.0004,-0.0001,-0.0001,0.0013,-23.1562,-40.7625,-26.7938,,adl
7.887147,-0.0101,0.0019,-0.0004,-0.0001,-0.0001,0.0013,-23.1562,-40.7625,-26.7938,,adl
7.908529,-0.0101,0.0019,-0.0004,0.0016,0.0052,0.0084,-23.1562,-40.7625,-26.7938,,adl
7.911023,-0.0072,-0.0099,0.0091,0.0016,0.0052,0.0084,-23.1562,-40.7625,-26.7938,,adl
7.923879,-0.0072,-0.0099,0.0091,0.0016,0.0052,0.0084,-23.0813,-40.725,-26.6813,,adl
7.949507,-0.0072,-0.0099,0.0091,0.0016,0.0052,0.0084,-23.0813,-40.725,-26.6813,,adl
7.970834,-0.0072,-0.0099,0.0091,-0.0091,0.0109,-0.0048,-23.0813,-40.725,-26.6813,,adl
7.988957,-0.0072,-0.0099,0.0091,-0.0091,0.0109,-0.0048,-23.1188,-40.9125,-26.6438,,adl
7.992243,0.0237,-0.008,0.004,-0.0091,0.0109,-0.0048,-23.1188,-40.9125,-26.6438,,adl
8.010118,0.0237,-0.008,0.004,-0.0091,0.0109,-0.0048,-23.1188,-40.9125,-26.6438,,adl
8.028822,0.0237,-0.008,0.004,-0.0069,0.0013,0.0059,-23.1188,-40.9125,-26.6438,,adl
8.044293,0.0237,-0.008,0.004,-0.0069,0.0013,0.0059,-23.1375,-41.0063,-26.6625,,adl
8.051824,-0.0237,0.0632,-0.0362,-0.0069,0.0013,0.0059,-23.1375,-41.0063,-26.6625,,adl
8.069461,-0.0237,0.0632,-0.0362,-0.0069,0.0013,0.0059,-23.1375,-41.0063,-26.6625,,adl
8.091865,-0.0237,0.0632,-0.0362,-0.0016,-0.0008,0.0009,-23.1375,-41.0063,-26.6625,,adl
8.1083,-0.0237,0.0632,-0.0362,-0.0016,-0.0008,0.0009,-23.1375,-41.1375,-26.6625,,adl
8.109674,-0.002,-0.0539,0.0437,-0.0016,-0.0008,0.0009,-23.1375,-41.1375,-26.6625,,adl
8.132711,-0.002,-0.0539,0.0437,-0.0016,-0.0008,0.0009,-23.1375,-41.1375,-26.6625,,adl
8.150122,-0.002,-0.0539,0.0437,-0.0008,0.0088,0.0073,-23.1375,-41.1375,-26.6625,,adl
8.163951,-0.002,-0.0539,0.0437,-0.0008,0.0088,0.0073,-23.1188,-41.1,-26.8125,,adl
8.190342,-0.002,-0.0539,0.0437,-0.0008,0.0088,0.0073,-23.1188,-41.1,-26.8125,,adl
8.191444,0.0261,-0.004,-0.0215,-0.0008,0.0088,0.0073,-23.1188,-41.1,-26.8125,,adl
8.210705,0.0261,-0.004,-0.0215,-0.0005,0.0105,-0.0005,-23.1188,-41.1,-26.8125,,adl
8.224365,0.0261,-0.004,-0.0215,-0.0005,0.0105,-0.0005,-23.1375,-40.875,-26.9625,,adl
8.25436,0.0261,-0.004,-0.0215,-0.0005,0.0105,-0.0005,-23.1375,-40.875,-26.9625,,adl
8.257321,-0.0102,-0.0465,0.0542,-0.0005,0.0105,-0.0005,-23.1375,-40.875,-26.9625,,adl
8.27383,-0.0102,-0.0465,0.0542,-0.0072,-0.0115,-0.0019,-23.1375,-40.875,-26.9625,,adl
8.287169,-0.0102,-0.0465,0.0542,-0.0072,-0.0115,-0.0019,-23.1375,-40.875,-26.9438,,adl
8.314708,-0.0102,-0.0465,0.0542,-0.0072,-0.0115,-0.0019,-23.1375,-40.875,-26.9438,,adl
8.317474,-0.0308,0.1,-0.0824,-0.0072,-0.0115,-0.0019,-23.1375,-40.875,-26.9438,,adl
8.332878,-0.0308,0.1,-0.0824,0.0077,0.0169,0.0048,-23.1375,-40.875,-26.9438,,adl
8.345701,-0.0308,0.1,-0.0824,0.0077,0.0169,0.0048,-23.1,-40.875,-26.8875,,adl
8.375706,-0.0308,0.1,-0.0824,0.0077,0.0169,0.0048,-23.1,-40.875,-26.8875,,adl
8.378862,0.0351,-0.0605,0.0514,0.0077,0.0169,0.0048,-23.1,-40.875,-26.8875,,adl
8.393725,0.0351,-0.0605,0.0514,-0.0091,-0.0112,-0.0125,-23.1,-40.875,-26.8875,,adl
8.405112,0.0351,-0.0605,0.0514,-0.0091,-0.0112,-0.0125,-23.0625,-40.9688,-26.9063,,adl
8.434818,0.0351,-0.0605,0.0514,-0.0091,-0.0112,-0.0125,-23.0625,-40.9688,-26.9063,,adl
8.454766,0.0351,-0.0605,0.0514,0.013,0.0116,0.0105,-23.0625,-40.9688,-26.9063,,adl
8.456777,-0.0593,0.0624,-0.0582,0.013,0.0116,0.0105,-23.0625,-40.9688,-26.9063,,adl
8.463625,-0.0593,0.0624,-0.0582,0.013,0.0116,0.0105,-23.025,-40.875,-27.0938,,adl
8.497679,-0.0593,0.0624,-0.0582,0.013,0.0116,0.0105,-23.025,-40.875,-27.0938,,adl
8.517235,-0.0593,0.0624,-0.0582,-0.0178,0.0027,-0.0225,-23.025,-40.875,-27.0938,,adl
8.519702,0.0561,-0.1042,0.0601,-0.0178,0.0027,-0.0225,-23.025,-40.875,-27.0938,,adl
8.525033,0.0561,-0.1042,0.0601,-0.0178,0.0027,-0.0225,-22.95,-40.95,-27.1125,,adl
8.559752,0.0561,-0.1042,0.0601,-0.0178,0.0027,-0.0225,-22.95,-40.95,-27.1125,,adl
8.577095,0.0561,-0.1042,0.0601,0.0069,-0.0172,0.0009,-22.95,-40.95,-27.1125,,adl
8.57974,-0.0622,0.1295,-0.0622,0.0069,-0.0172,0.0009,-22.95,-40.95,-27.1125,,adl
8.585102,-0.0622,0.1295,-0.0622,0.0069,-0.0172,0.0009,-23.0438,-40.9313,-27.0563,,adl
8.619302,-0.0622,0.1295,-0.0622,0.0069,-0.0172,0.0009,-23.0438,-40.9313,-27.0563,,adl
8.646959,-0.0622,0.1295,-0.0622,0.0244,0.0099,0.0154,-23.0438,-40.9313,-27.0563,,adl
8.649865,-0.0622,0.1295,-0.0622,0.0244,0.0099,0.0154,-23.0625,-40.8188,-27.0375,,adl
8.664032,-0.0044,-0.1082,0.0451,0.0244,0.0099,0.0154,-23.0625,-40.8188,-27.0375,,adl
8.679801,-0.0044,-0.1082,0.0451,0.0244,0.0099,0.0154,-23.0625,-40.8188,-27.0375,,adl
8.698345,-0.0044,-0.1082,0.0451,-0.0417,0.0158,-0.0133,-23.0625,-40.8188,-27.0375,,adl
8.705014,-0.0044,-0.1082,0.0451,-0.0417,0.0158,-0.0133,-23.0625,-41.0063,-26.9813,,adl
8.718371,0.0817,0.101,-0.033,-0.0417,0.0158,-0.0133,-23.0625,-41.0063,-26.9813,,adl
8.738775,0.0817,0.101,-0.033,-0.0417,0.0158,-0.0133,-23.0625,-41.0063,-26.9813,,adl
8.758696,0.0817,0.101,-0.033,0.0073,-0.02,0.0041,-23.0625,-41.0063,-26.9813,,adl
8.764372,0.0817,0.101,-0.033,0.0073,-0.02,0.0041,-23.0625,-41.0438,-27.0375,,adl
8.778835,-0.0827,0.0248,-0.0012,0.0073,-0.02,0.0041,-23.0625,-41.0438,-27.0375,,adl
8.799436,-0.0827,0.0248,-0.0012,0.0073,-0.02,0.0041,-23.0625,-41.0438,-27.0375,,adl
8.819381,-0.0827,0.0248,-0.0012,0.0254,0.0212,0.0073,-23.0625,-41.0438,-27.0375,,adl
8.822996,-0.0827,0.0248,-0.0012,0.0254,0.0212,0.0073,-23.1938,-40.8188,-27.3,,adl
8.839998,0.037,-0.1614,0.0734,0.0254,0.0212,0.0073,-23.1938,-40.8188,-27.3,,adl
8.861584,0.037,-0.1614,0.0734,0.0254,0.0212,0.0073,-23.1938,-40.8188,-27.3,,adl
8.880465,0.037,-0.1614,0.0734,-0.0336,-0.0238,-0.0154,-23.1938,-40.8188,-27.3,,adl
8.882485,0.037,-0.1614,0.0734,-0.0336,-0.0238,-0.0154,-23.3813,-40.8375,-27.5438,,adl
8.920745,0.037,-0.1614,0.0734,-0.0336,-0.0238,-0.0154,-23.3813,-40.8375,-27.5438,,adl
8.921923,-0.0522,0.2004,-0.0746,-0.0336,-0.0238,-0.0154,-23.3813,-40.8375,-27.5438,,adl
8.941362,-0.0522,0.2004,-0.0746,0.0165,0.0073,0.0154,-23.3813,-40.8375,-27.5438,,adl
8.942527,-0.0522,0.2004,-0.0746,0.0165,0.0073,0.0154,-23.4188,-40.7625,-27.4125,,adl
8.98174,-0.0522,0.2004,-0.0746,0.0165,0.0073,0.0154,-23.4188,-40.7625,-27.4125,,adl
8.983253,0.0507,-0.1377,0.0301,0.0165,0.0073,0.0154,-23.4188,-40.7625,-27.4125,,adl
9.003034,0.0507,-0.1377,0.0301,0.0165,0.0073,0.0154,-23.4,-40.725,-27.4313,,adl
9.004783,0.0507,-0.1377,0.0301,-0.0087,0.0368,-0.0129,-23.4,-40.725,-27.4313,,adl
9.045386,0.0507,-0.1377,0.0301,-0.0087,0.0368,-0.0129,-23.4,-40.725,-27.4313,,adl
9.047092,0.0479,0.0895,-0.0317,-0.0087,0.0368,-0.0129,-23.4,-40.725,-27.4313,,adl
9.063893,0.0479,0.0895,-0.0317,-0.0144,-0.0406,-0.0044,-23.4,-40.725,-27.4313,,adl
9.065455,0.0479,0.0895,-0.0317,-0.0144,-0.0406,-0.0044,-23.2688,-40.6125,-27.45,,adl
9.10909,0.0479,0.0895,-0.0317,-0.0144,-0.0406,-0.0044,-23.2688,-40.6125,-27.45,,adl
9.125532,0.0479,0.0895,-0.0317,0.0344,0.0073,0.0165,-23.2688,-40.6125,-27.45,,adl
9.127202,0.0479,0.0895,-0.0317,0.0344,0.0073,0.0165,-23.2313,-40.5938,-27.5438,,adl
9.128417,-0.1379,-0.0167,0.0335,0.0344,0.0073,0.0165,-23.2313,-40.5938,-27.5438,,adl
9.164001,-0.1379,-0.0167,0.0335,0.0344,0.0073,0.0165,-23.2313,-40.5938,-27.5438,,adl
9.1823,-0.1379,-0.0167,0.0335,0.0344,0.0073,0.0165,-23.1562,-40.4813,-27.7125,,adl
9.184264,-0.1379,-0.0167,0.0335,-0.0253,0.019,-0.0112,-23.1562,-40.4813,-27.7125,,adl
9.185419,0.0946,-0.1342,0.0352,-0.0253,0.019,-0.0112,-23.1562,-40.4813,-27.7125,,adl
9.225616,0.0946,-0.1342,0.0352,-0.0253,0.019,-0.0112,-23.1562,-40.4813,-27.7125,,adl
9.243501,0.0946,-0.1342,0.0352,-0.0253,0.019,-0.0112,-23.175,-40.3688,-27.8063,,adl
9.245255,0.0946,-0.1342,0.0352,-0.0044,-0.0313,0.0009,-23.175,-40.3688,-27.8063,,adl
9.245838,-0.0387,0.1991,-0.0672,-0.0044,-0.0313,0.0009,-23.175,-40.3688,-27.8063,,adl
9.286505,-0.0387,0.1991,-0.0672,-0.0044,-0.0313,0.0009,-23.175,-40.3688,-27.8063,,adl
9.303302,-0.0387,0.1991,-0.0672,-0.0044,-0.0313,0.0009,-23.1938,-40.5375,-27.75,,adl
9.306141,-0.0387,0.1991,-0.0672,0.0293,0.0314,0.0144,-23.1938,-40.5375,-27.75,,adl
9.306766,0.0054,-0.1303,0.0445,0.0293,0.0314,0.0144,-23.1938,-40.5375,-27.75,,adl
9.34711,0.0054,-0.1303,0.0445,0.0293,0.0314,0.0144,-23.1938,-40.5375,-27.75,,adl
9.362967,0.0054,-0.1303,0.0445,0.0293,0.0314,0.0144,-23.1375,-40.5,-27.7313,,adl
9.367446,0.0054,-0.1303,0.0445,-0.031,0.0162,-0.0101,-23.1375,-40.5,-27.7313,,adl
9.387564,0.0443,-0.0328,0.0022,-0.031,0.0162,-0.0101,-23.1375,-40.5,-27.7313,,adl
9.407937,0.0443,-0.0328,0.0022,-0.031,0.0162,-0.0101,-23.1375,-40.5,-27.7313,,adl
9.423207,0.0443,-0.0328,0.0022,-0.031,0.0162,-0.0101,-23.0625,-40.425,-27.9,,adl
9.426897,0.0443,-0.0328,0.0022,-0.0112,-0.026,-0.0027,-23.0625,-40.425,-27.9,,adl
9.449307,-0.073,0.181,-0.061,-0.0112,-0.026,-0.0027,-23.0625,-40.425,-27.9,,adl
9.46945,-0.073,0.181,-0.061,-0.0112,-0.026,-0.0027,-23.0625,-40.425,-27.9,,adl
9.483281,-0.073,0.181,-0.061,-0.0112,-0.026,-0.0027,-23.0625,-40.2563,-28.05,,adl
9.490259,-0.073,0.181,-0.061,0.0389,-0.0069,0.0095,-23.0625,-40.2563,-28.05,,adl
9.508853,0.0238,-0.1014,0.0179,0.0389,-0.0069,0.0095,-23.0625,-40.2563,-28.05,,adl
9.530151,0.0238,-0.1014,0.0179,0.0389,-0.0069,0.0095,-23.0625,-40.2563,-28.05,,adl
9.543378,0.0238,-0.1014,0.0179,0.0389,-0.0069,0.0095,-23.1562,-40.1438,-28.2375,,adl
9.549614,0.0238,-0.1014,0.0179,-0.0146,0.0165,0.0013,-23.1562,-40.1438,-28.2375,,adl
9.591231,0.0238,-0.1014,0.0179,-0.0146,0.0165,0.0013,-23.1562,-40.1438,-28.2375,,adl
9.593301,0.0065,-0.0364,0.0334,-0.0146,0.0165,0.0013,-23.1562,-40.1438,-28.2375,,adl
9.60456,0.0065,-0.0364,0.0334,-0.0146,0.0165,0.0013,-23.25,-40.1438,-28.4813,,adl
9.614151,0.0065,-0.0364,0.0334,-0.0353,-0.0027,-0.008,-23.25,-40.1438,-28.4813,,adl
9.651804,0.0065,-0.0364,0.0334,-0.0353,-0.0027,-0.008,-23.25,-40.1438,-28.4813,,adl
9.652925,0.0092,0.1439,-0.0546,-0.0353,-0.0027,-0.008,-23.25,-40.1438,-28.4813,,adl
9.662789,0.0092,0.1439,-0.0546,-0.0353,-0.0027,-0.008,-23.1938,-40.1813,-28.5563,,adl
9.671895,0.0092,0.1439,-0.0546,0.029,-0.0125,0.0031,-23.1938,-40.1813,-28.5563,,adl
9.712514,0.0092,0.1439,-0.0546,0.029,-0.0125,0.0031,-23.1938,-40.1813,-28.5563,,adl
9.713292,-0.0348,-0.1014,0.0157,0.029,-0.0125,0.0031,-23.1938,-40.1813,-28.5563,,adl
9.723145,-0.0348,-0.1014,0.0157,0.029,-0.0125,0.0031,-23.1188,-40.2188,-28.3688,,adl
9.732468,-0.0348,-0.1014,0.0157,0.0212,-0.0019,0.0116,-23.1188,-40.2188,-28.3688,,adl
9.773815,-0.0348,-0.1014,0.0157,0.0212,-0.0019,0.0116,-23.1188,-40.2188,-28.3688,,adl
9.775369,-0.0103,-0.0781,0.0427,0.0212,-0.0019,0.0116,-23.1188,-40.2188,-28.3688,,adl
9.782882,-0.0103,-0.0781,0.0427,0.0212,-0.0019,0.0116,-23.0813,-40.1813,-28.5,,adl
9.793104,-0.0103,-0.0781,0.0427,-0.041,0.0173,-0.0101,-23.0813,-40.1813,-28.5,,adl
9.834107,-0.0103,-0.0781,0.0427,-0.041,0.0173,-0.0101,-23.0813,-40.1813,-28.5,,adl
9.843248,-0.0103,-0.0781,0.0427,-0.041,0.0173,-0.0101,-22.9688,-39.975,-28.5,,adl
9.854562,-0.0103,-0.0781,0.0427,0.0003,-0.0157,-0.0048,-22.9688,-39.975,-28.5,,adl
9.856039,0.029,0.1491,-0.0387,0.0003,-0.0157,-0.0048,-22.9688,-39.975,-28.5,,adl
9.894882,0.029,0.1491,-0.0387,0.0003,-0.0157,-0.0048,-22.9688,-39.975,-28.5,,adl
9.902794,0.029,0.1491,-0.0387,0.0003,-0.0157,-0.0048,-23.1375,-40.0312,-28.4813,,adl
9.915851,0.029,0.1491,-0.0387,0.0314,-0.0097,0.0009,-23.1375,-40.0312,-28.4813,,adl
9.917375,-0.0462,-0.0594,-0.0148,0.0314,-0.0097,0.0009,-23.1375,-40.0312,-28.4813,,adl
9.955349,-0.0462,-0.0594,-0.0148,0.0314,-0.0097,0.0009,-23.1375,-40.0312,-28.4813,,adl
9.962854,-0.0462,-0.0594,-0.0148,0.0314,-0.0097,0.0009,-23.2875,-40.0312,-28.5375,,adl
9.975622,-0.0462,-0.0594,-0.0148,-0.0061,0.0013,0.0048,-23.2875,-40.0312,-28.5375,,adl
9.976471,-0.0372,-0.0706,0.0209,-0.0061,0.0013,0.0048,-23.2875,-40.0312,-28.5375,,adl
10.016812,-0.0372,-0.0706,0.0209,-0.0061,0.0013,0.0048,-23.2875,-40.0312,-28.5375,,adl
10.023137,-0.0372,-0.0706,0.0209,-0.0061,0.0013,0.0048,-23.2688,-40.05,-28.6125,,adl
10.037054,-0.0372,-0.0706,0.0209,-0.031,0.0109,-0.0104,-23.2688,-40.05,-28.6125,,adl
10.038293,0.0551,0.0719,0.0222,-0.031,0.0109,-0.0104,-23.2688,-40.05,-28.6125,,adl
10.077799,0.0551,0.0719,0.0222,-0.031,0.0109,-0.0104,-23.2688,-40.05,-28.6125,,adl
10.082998,0.0551,0.0719,0.0222,-0.031,0.0109,-0.0104,-23.1938,-39.9,-28.5563,,adl
10.097795,0.0551,0.0719,0.0222,0.0201,-0.0129,0.0013,-23.1938,-39.9,-28.5563,,adl
10.118381,-0.0278,0.0073,-0.0643,0.0201,-0.0129,0.0013,-23.1938,-39.9,-28.5563,,adl
10.138686,-0.0278,0.0073,-0.0643,0.0201,-0.0129,0.0013,-23.1938,-39.9,-28.5563,,adl
10.143853,-0.0278,0.0073,-0.0643,0.0201,-0.0129,0.0013,-23.2125,-39.8625,-28.4813,,adl
10.158934,-0.0278,0.0073,-0.0643,0.0194,-0.0097,0.0073,-23.2125,-39.8625,-28.4813,,adl
10.182979,-0.0214,-0.0447,0.0358,0.0194,-0.0097,0.0073,-23.2125,-39.8625,-28.4813,,adl
10.199447,-0.0214,-0.0447,0.0358,0.0194,-0.0097,0.0073,-23.2125,-39.8625,-28.4813,,adl
10.201851,-0.0214,-0.0447,0.0358,0.0194,-0.0097,0.0073,-23.325,-39.8625,-28.6313,,adl
10.21957,-0.0214,-0.0447,0.0358,-0.0157,0.0101,-0.0005,-23.325,-39.8625,-28.6313,,adl
10.240725,0.0155,-0.0308,0.0455,-0.0157,0.0101,-0.0005,-23.325,-39.8625,-28.6313,,adl
10.261302,0.0155,-0.0308,0.0455,-0.0157,0.0101,-0.0005,-23.325,-39.8625,-28.6313,,adl
10.263394,0.0155,-0.0308,0.0455,-0.0157,0.0101,-0.0005,-23.3438,-39.9375,-28.425,,adl
10.281923,0.0155,-0.0308,0.0455,-0.0087,0.0035,-0.0059,-23.3438,-39.9375,-28.425,,adl
10.326721,0.0155,-0.0308,0.0455,-0.0087,0.0035,-0.0059,-23.3438,-39.9375,-28.425,,adl
10.328655,0.0155,-0.0308,0.0455,-0.0087,0.0035,-0.0059,-23.3063,-40.0688,-28.275,,adl
10.329794,0.0299,0.081,-0.0741,-0.0087,0.0035,-0.0059,-23.3063,-40.0688,-28.275,,adl
10.342876,0.0299,0.081,-0.0741,0.0123,-0.0121,-0.0008,-23.3063,-40.0688,-28.275,,adl
10.382962,0.0299,0.081,-0.0741,0.0123,-0.0121,-0.0008,-23.3063,-40.0688,-28.275,,adl
10.384603,0.0299,0.081,-0.0741,0.0123,-0.0121,-0.0008,-23.2125,-40.275,-28.0313,,adl
10.385587,-0.0578,-0.0351,0.031,0.0123,-0.0121,-0.0008,-23.2125,-40.275,-28.0313,,adl
10.405711,-0.0578,-0.0351,0.031,0.0035,-0.0033,0.0056,-23.2125,-40.275,-28.0313,,adl
10.445168,-0.0578,-0.0351,0.031,0.0035,-0.0033,0.0056,-23.1,-40.3875,-27.825,,adl
10.44705,-0.0578,-0.0351,0.031,0.0035,-0.0033,0.0056,-23.1,-40.3875,-27.825,,adl
10.447814,0.0229,-0.0552,0.0112,0.0035,-0.0033,0.0056,-23.1,-40.3875,-27.825,,adl
10.467877,0.0229,-0.0552,0.0112,-0.008,0.0109,-0.0016,-23.1,-40.3875,-27.825,,adl
10.50677,0.0229,-0.0552,0.0112,-0.008,0.0109,-0.0016,-22.9688,-40.5188,-27.5813,,adl
10.508856,0.0229,-0.0552,0.0112,-0.008,0.0109,-0.0016,-22.9688,-40.5188,-27.5813,,adl
10.509703,0.0259,0.0411,-0.0117,-0.008,0.0109,-0.0016,-22.9688,-40.5188,-27.5813,,adl
10.525787,0.0259,0.0411,-0.0117,0.0031,-0.0093,-0.0001,-22.9688,-40.5188,-27.5813,,adl
10.565565,0.0259,0.0411,-0.0117,0.0031,-0.0093,-0.0001,-22.9875,-40.7812,-27.4125,,adl
10.568978,0.0259,0.0411,-0.0117,0.0031,-0.0093,-0.0001,-22.9875,-40.7812,-27.4125,,adl
10.586359,0.0259,0.0411,-0.0117,0.0031,-0.0029,-0.0019,-22.9875,-40.7812,-27.4125,,adl
10.587795,-0.0396,0.01,-0.0083,0.0031,-0.0029,-0.0019,-22.9875,-40.7812,-27.4125,,adl
10.627429,-0.0396,0.01,-0.0083,0.0031,-0.0029,-0.0019,-23.0625,-40.8375,-27.3563,,adl
10.63054,-0.0396,0.01,-0.0083,0.0031,-0.0029,-0.0019,-23.0625,-40.8375,-27.3563,,adl
10.649315,-0.0396,0.01,-0.0083,-0.004,0.0013,0.0009,-23.0625,-40.8375,-27.3563,,adl
10.651682,0.023,0.0067,-0.018,-0.004,0.0013,0.0009,-23.0625,-40.8375,-27.3563,,adl
10.686038,0.023,0.0067,-0.018,-0.004,0.0013,0.0009,-22.9875,-40.9875,-27.1313,,adl
10.689275,0.023,0.0067,-0.018,-0.004,0.0013,0.0009,-22.9875,-40.9875,-27.1313,,adl
10.707512,0.023,0.0067,-0.018,-0.0012,0.0003,0.0035,-22.9875,-40.9875,-27.1313,,adl
10.709298,0.0051,-0.0181,0.0135,-0.0012,0.0003,0.0035,-22.9875,-40.9875,-27.1313,,adl
10.744507,0.0051,-0.0181,0.0135,-0.0012,0.0003,0.0035,-23.0063,-40.9688,-27.1688,,adl
10.748382,0.0051,-0.0181,0.0135,-0.0012,0.0003,0.0035,-23.0063,-40.9688,-27.1688,,adl
10.768954,0.0051,-0.0181,0.0135,0.0003,-0.0012,0.0005,-23.0063,-40.9688,-27.1688,,adl
10.789209,-0.0105,-0.0136,-0.0006,0.0003,-0.0012,0.0005,-23.0063,-40.9688,-27.1688,,adl
10.805674,-0.0105,-0.0136,-0.0006,0.0003,-0.0012,0.0005,-23.0063,-41.0813,-27.0938,,adl
10.809996,-0.0105,-0.0136,-0.0006,0.0003,-0.0012,0.0005,-23.0063,-41.0813,-27.0938,,adl
10.830161,-0.0105,-0.0136,-0.0006,-0.0019,-0.0029,-0.0019,-23.0063,-41.0813,-27.0938,,adl
10.849865,0.0087,0.009,-0.0012,-0.0019,-0.0029,-0.0019,-23.0063,-41.0813,-27.0938,,adl
10.866099,0.0087,0.009,-0.0012,-0.0019,-0.0029,-0.0019,-22.95,-41.1562,-27.0938,,adl
10.871802,0.0087,0.009,-0.0012,-0.0019,-0.0029,-0.0019,-22.95,-41.1562,-27.0938,,adl
10.89158,0.0087,0.009,-0.0012,-0.0005,-0.0048,-0.0012,-22.95,-41.1562,-27.0938,,adl
10.911062,-0.0107,-0.0006,-0.0051,-0.0005,-0.0048,-0.0012,-22.95,-41.1562,-27.0938,,adl
10.924322,-0.0107,-0.0006,-0.0051,-0.0005,-0.0048,-0.0012,-22.8938,-41.0625,-27.075,,adl
10.934686,-0.0107,-0.0006,-0.0051,-0.0005,-0.0048,-0.0012,-22.8938,-41.0625,-27.075,,adl
10.953219,-0.0107,-0.0006,-0.0051,0.0013,-0.0027,-0.0001,-22.8938,-41.0625,-27.075,,adl
10.974141,0.0034,-0.0112,0.005,0.0013,-0.0027,-0.0001,-22.8938,-41.0625,-27.075,,adl
10.985086,0.0034,-0.0112,0.005,0.0013,-0.0027,-0.0001,-23.0438,-41.2125,-27.1125,,adl
10.991629,0.0034,-0.0112,0.005,0.0013,-0.0027,-0.0001,-23.0438,-41.2125,-27.1125,,adl
11.013681,0.0034,-0.0112,0.005,0.0005,-0.0016,0.0009,-23.0438,-41.2125,-27.1125,,adl
11.046684,0.0034,-0.0112,0.005,0.0005,-0.0016,0.0009,-22.95,-41.1188,-26.8875,,adl
11.053441,0.0034,-0.0112,0.005,0.0005,-0.0016,0.0009,-22.95,-41.1188,-26.8875,,adl
11.055743,0.0028,-0.0068,-0.0069,0.0005,-0.0016,0.0009,-22.95,-41.1188,-26.8875,,adl
11.074867,0.0028,-0.0068,-0.0069,-0.0016,-0.0005,-0.0001,-22.95,-41.1188,-26.8875,,adl
11.106999,0.0028,-0.0068,-0.0069,-0.0016,-0.0005,-0.0001,-22.875,-41.25,-26.7188,,adl
11.117388,0.0028,-0.0068,-0.0069,-0.0016,-0.0005,-0.0001,-22.875,-41.25,-26.7188,,adl
11.11915,-0.0105,0.0096,-0.0049,-0.0016,-0.0005,-0.0001,-22.875,-41.25,-26.7188,,adl
11.134589,-0.0105,0.0096,-0.0049,-0.0012,0.0016,-0.0005,-22.875,-41.25,-26.7188,,adl
11.165969,-0.0105,0.0096,-0.0049,-0.0012,0.0016,-0.0005,-22.95,-41.175,-26.7938,,adl
11.176583,-0.0105,0.0096,-0.0049,-0.0012,0.0016,-0.0005,-22.95,-41.175,-26.7938,,adl
11.178296,0.0004,0.0017,0.0012,-0.0012,0.0016,-0.0005,-22.95,-41.175,-26.7938,,adl
11.195957,0.0004,0.0017,0.0012,0.0009,-0.0027,-0.0027,-22.95,-41.175,-26.7938,,adl
11.22708,0.0004,0.0017,0.0012,0.0009,-0.0027,-0.0027,-22.9313,-41.175,-26.7,,adl
11.237027,0.0004,0.0017,0.0012,0.0009,-0.0027,-0.0027,-22.9313,-41.175,-26.7,,adl
11.258013,0.0004,0.0017,0.0012,-0.0005,-0.0033,-0.0033,-22.9313,-41.175,-26.7,,adl
11.261233,-0.003,-0.005,-0.0071,-0.0005,-0.0033,-0.0033,-22.9313,-41.175,-26.7,,adl
11.284343,-0.003,-0.005,-0.0071,-0.0005,-0.0033,-0.0033,-22.8938,-41.3063,-26.7188,,adl
11.297303,-0.003,-0.005,-0.0071,-0.0005,-0.0033,-0.0033,-22.8938,-41.3063,-26.7188,,adl
11.316009,-0.003,-0.005,-0.0071,0.0031,-0.004,0.0003,-22.8938,-41.3063,-26.7188,,adl
11.317701,-0.0037,0.0007,0.0012,0.0031,-0.004,0.0003,-22.8938,-41.3063,-26.7188,,adl
11.344377,-0.0037,0.0007,0.0012,0.0031,-0.004,0.0003,-22.95,-41.2688,-26.8125,,adl
11.357256,-0.0037,0.0007,0.0012,0.0031,-0.004,0.0003,-22.95,-41.2688,-26.8125,,adl
11.378363,-0.0037,0.0007,0.0012,0.0005,-0.0012,-0.0001,-22.95,-41.2688,-26.8125,,adl
11.380872,-0.0049,-0.0054,-0.0007,0.0005,-0.0012,-0.0001,-22.95,-41.2688,-26.8125,,adl
11.404986,-0.0049,-0.0054,-0.0007,0.0005,-0.0012,-0.0001,-22.875,-41.4,-26.7563,,adl
11.421082,-0.0049,-0.0054,-0.0007,0.0005,-0.0012,-0.0001,-22.875,-41.4,-26.7563,,adl
11.438868,-0.0049,-0.0054,-0.0007,-0.0005,0.002,-0.0001,-22.875,-41.4,-26.7563,,adl
11.439643,0.0029,0.0051,-0.0123,-0.0005,0.002,-0.0001,-22.875,-41.4,-26.7563,,adl
11.463761,0.0029,0.0051,-0.0123,-0.0005,0.002,-0.0001,-22.875,-41.3625,-26.625,,adl
11.478405,0.0029,0.0051,-0.0123,-0.0005,0.002,-0.0001,-22.875,-41.3625,-26.625,,adl
11.500799,0.0029,0.0051,-0.0123,-0.0016,-0.0029,-0.0029,-22.875,-41.3625,-26.625,,adl
11.520952,-0.0016,0.0116,-0.0094,-0.0016,-0.0029,-0.0029,-22.875,-41.3625,-26.625,,adl
11.523585,-0.0016,0.0116,-0.0094,-0.0016,-0.0029,-0.0029,-22.9125,-41.2313,-26.7938,,adl
11.541752,-0.0016,0.0116,-0.0094,-0.0016,-0.0029,-0.0029,-22.9125,-41.2313,-26.7938,,adl
11.562453,-0.0016,0.0116,-0.0094,0.0024,-0.0029,-0.0008,-22.9125,-41.2313,-26.7938,,adl
11.583698,-0.0101,-0.0208,0.0093,0.0024,-0.0029,-0.0008,-22.9125,-41.2313,-26.7938,,adl
11.587052,-0.0101,-0.0208,0.0093,0.0024,-0.0029,-0.0008,-22.8375,-41.0625,-26.925,,adl
11.601238,-0.0101,-0.0208,0.0093,0.0024,-0.0029,-0.0008,-22.8375,-41.0625,-26.925,,adl
11.622029,-0.0101,-0.0208,0.0093,0.0013,-0.0012,0.0009,-22.8375,-41.0625,-26.925,,adl
11.644511,-0.0101,-0.0208,0.0093,0.0013,-0.0012,0.0009,-22.6875,-41.025,-26.9438,,adl
11.646992,-0.005,-0.0012,0.0024,0.0013,-0.0012,0.0009,-22.6875,-41.025,-26.9438,,adl
11.662268,-0.005,-0.0012,0.0024,0.0013,-0.0012,0.0009,-22.6875,-41.025,-26.9438,,adl
11.686385,-0.005,-0.0012,0.0024,0.0005,-0.0001,-0.0005,-22.6875,-41.025,-26.9438,,adl
11.706562,-0.005,-0.0012,0.0024,0.0005,-0.0001,-0.0005,-22.5375,-41.1,-26.925,,adl
11.725934,-0.005,-0.0012,0.0024,0.0005,-0.0001,-0.0005,-22.5375,-41.1,-26.925,,adl
11.729152,0.0036,0.0013,0.0013,0.0005,-0.0001,-0.0005,-22.5375,-41.1,-26.925,,adl
11.745311,0.0036,0.0013,0.0013,0.002,-0.0037,-0.0005,-22.5375,-41.1,-26.925,,adl
11.7646,0.0036,0.0013,0.0013,0.002,-0.0037,-0.0005,-22.4438,-40.9125,-26.925,,adl
11.787148,0.0036,0.0013,0.0013,0.002,-0.0037,-0.0005,-22.4438,-40.9125,-26.925,,adl
11.789821,-0.0066,-0.0052,0.0008,0.002,-0.0037,-0.0005,-22.4438,-40.9125,-26.925,,adl
11.807342,-0.0066,-0.0052,0.0008,-0.0008,-0.0008,0.0009,-22.4438,-40.9125,-26.925,,adl
11.82557,-0.0066,-0.0052,0.0008,-0.0008,-0.0008,0.0009,-22.35,-40.8563,-26.85,,adl
11.845947,-0.0066,-0.0052,0.0008,-0.0008,-0.0008,0.0009,-22.35,-40.8563,-26.85,,adl
11.84838,-0.0057,-0.001,-0.0027,-0.0008,-0.0008,0.0009,-22.35,-40.8563,-26.85,,adl
11.865288,-0.0057,-0.001,-0.0027,-0.0012,0.0016,-0.0001,-22.35,-40.8563,-26.85,,adl
11.884235,-0.0057,-0.001,-0.0027,-0.0012,0.0016,-0.0001,-22.4625,-40.8563,-26.6438,,adl
11.907718,-0.0057,-0.001,-0.0027,-0.0012,0.0016,-0.0001,-22.4625,-40.8563,-26.6438,,adl
11.910335,0.0024,0.0098,-0.0066,-0.0012,0.0016,-0.0001,-22.4625,-40.8563,-26.6438,,adl
11.92579,0.0024,0.0098,-0.0066,-0.0012,-0.0027,-0.0016,-22.4625,-40.8563,-26.6438,,adl
11.947124,0.0024,0.0098,-0.0066,-0.0012,-0.0027,-0.0016,-22.2938,-40.725,-26.5313,,adl
11.968905,0.0024,0.0098,-0.0066,-0.0012,-0.0027,-0.0016,-22.2938,-40.725,-26.5313,,adl
11.988744,0.0024,0.0098,-0.0066,0.0031,-0.0044,0.0009,-22.2938,-40.725,-26.5313,,adl
11.992404,-0.0047,0.0083,0.0015,0.0031,-0.0044,0.0009,-22.2938,-40.725,-26.5313,,adl
12.004285,-0.0047,0.0083,0.0015,0.0031,-0.0044,0.0009,-22.2563,-40.8563,-26.5125,,adl
12.027167,-0.0047,0.0083,0.0015,0.0031,-0.0044,0.0009,-22.2563,-40.8563,-26.5125,,adl
12.048212,-0.0047,0.0083,0.0015,0.0031,0.0016,0.0024,-22.2563,-40.8563,-26.5125,,adl
12.050263,-0.007,-0.0304,0.0093,0.0031,0.0016,0.0024,-22.2563,-40.8563,-26.5125,,adl
12.063836,-0.007,-0.0304,0.0093,0.0031,0.0016,0.0024,-22.4062,-41.025,-26.475,,adl
12.090528,-0.007,-0.0304,0.0093,0.0031,0.0016,0.0024,-22.4062,-41.025,-26.475,,adl
12.110539,-0.007,-0.0304,0.0093,-0.0012,-0.0019,-0.0001,-22.4062,-41.025,-26.475,,adl
12.112998,0.0036,0.0096,-0.0075,-0.0012,-0.0019,-0.0001,-22.4062,-41.025,-26.475,,adl
12.123693,0.0036,0.0096,-0.0075,-0.0012,-0.0019,-0.0001,-22.425,-41.1188,-26.325,,adl
12.151033,0.0036,0.0096,-0.0075,-0.0012,-0.0019,-0.0001,-22.425,-41.1188,-26.325,,adl
12.170037,0.0036,0.0096,-0.0075,-0.0016,-0.0016,-0.0016,-22.425,-41.1188,-26.325,,adl
12.184692,0.0036,0.0096,-0.0075,-0.0016,-0.0016,-0.0016,-22.4625,-41.025,-26.325,,adl
12.193365,-0.0068,0.0102,-0.0057,-0.0016,-0.0016,-0.0016,-22.4625,-41.025,-26.325,,adl
12.21031,-0.0068,0.0102,-0.0057,-0.0016,-0.0016,-0.0016,-22.4625,-41.025,-26.325,,adl
12.231467,-0.0068,0.0102,-0.0057,0.0005,-0.0008,0.0003,-22.4625,-41.025,-26.325,,adl
12.245523,-0.0068,0.0102,-0.0057,0.0005,-0.0008,0.0003,-22.6875,-41.1,-26.3438,,adl
12.249801,-0.0034,-0.0068,0.0047,0.0005,-0.0008,0.0003,-22.6875,-41.1,-26.3438,,adl
12.273612,-0.0034,-0.0068,0.0047,0.0005,-0.0008,0.0003,-22.6875,-41.1,-26.3438,,adl
12.291275,-0.0034,-0.0068,0.0047,0.0009,-0.0005,0.0013,-22.6875,-41.1,-26.3438,,adl
12.303894,-0.0034,-0.0068,0.0047,0.0009,-0.0005,0.0013,-22.5938,-41.025,-26.2875,,adl
12.311019,0.0027,-0.0137,0.0044,0.0009,-0.0005,0.0013,-22.5938,-41.025,-26.2875,,adl
12.33466,0.0027,-0.0137,0.0044,0.0009,-0.0005,0.0013,-22.5938,-41.025,-26.2875,,adl
12.354432,0.0027,-0.0137,0.0044,0.0009,-0.0008,0.0005,-22.5938,-41.025,-26.2875,,adl
12.363364,0.0027,-0.0137,0.0044,0.0009,-0.0008,0.0005,-22.5938,-40.9875,-26.5125,,adl
12.373137,-0.0097,0.0003,0.0011,0.0009,-0.0008,0.0005,-22.5938,-40.9875,-26.5125,,adl
12.39513,-0.0097,0.0003,0.0011,0.0009,-0.0008,0.0005,-22.5938,-40.9875,-26.5125,,adl
12.415728,-0.0097,0.0003,0.0011,-0.0005,-0.0005,0.0009,-22.5938,-40.9875,-26.5125,,adl
12.422547,-0.0097,0.0003,0.0011,-0.0005,-0.0005,0.0009,-22.6875,-41.1562,-26.6813,,adl
12.456569,-0.0097,0.0003,0.0011,-0.0005,-0.0005,0.0009,-22.6875,-41.1562,-26.6813,,adl
12.459977,0.005,0.0076,-0.0006,-0.0005,-0.0005,0.0009,-22.6875,-41.1562,-26.6813,,adl
12.474069,0.005,0.0076,-0.0006,0.0031,0.0016,0.0041,-22.6875,-41.1562,-26.6813,,adl
12.483699,0.005,0.0076,-0.0006,0.0031,0.0016,0.0041,-22.6688,-41.1,-26.6438,,adl
12.517348,0.005,0.0076,-0.0006,0.0031,0.0016,0.0041,-22.6688,-41.1,-26.6438,,adl
12.520582,-0.0018,-0.0183,0.0207,0.0031,0.0016,0.0041,-22.6688,-41.1,-26.6438,,adl
12.535275,-0.0018,-0.0183,0.0207,-0.0065,0.0056,-0.0027,-22.6688,-41.1,-26.6438,,adl
12.545872,-0.0018,-0.0183,0.0207,-0.0065,0.0056,-0.0027,-22.5563,-40.9125,-26.6813,,adl
12.578059,-0.0018,-0.0183,0.0207,-0.0065,0.0056,-0.0027,-22.5563,-40.9125,-26.6813,,adl
12.582469,0.0162,0.0587,-0.0426,-0.0065,0.0056,-0.0027,-22.5563,-40.9125,-26.6813,,adl
12.595636,0.0162,0.0587,-0.0426,-0.0115,0.0048,-0.004,-22.5563,-40.9125,-26.6813,,adl
12.605373,0.0162,0.0587,-0.0426,-0.0115,0.0048,-0.004,-22.575,-40.8938,-26.775,,adl
12.63786,0.0162,0.0587,-0.0426,-0.0115,0.0048,-0.004,-22.575,-40.8938,-26.775,,adl
12.658417,0.0162,0.0587,-0.0426,0.0063,0.0005,0.0091,-22.575,-40.8938,-26.775,,adl
12.660754,-0.0142,-0.0059,0.0144,0.0063,0.0005,0.0091,-22.575,-40.8938,-26.775,,adl
12.664424,-0.0142,-0.0059,0.0144,0.0063,0.0005,0.0091,-22.6688,-40.9125,-26.7,,adl
12.699089,-0.0142,-0.0059,0.0144,0.0063,0.0005,0.0091,-22.6688,-40.9125,-26.7,,adl
12.719408,-0.0142,-0.0059,0.0144,0.002,0.0048,0.0016,-22.6688,-40.9125,-26.7,,adl
12.722741,0.0019,-0.0694,0.0504,0.002,0.0048,0.0016,-22.6688,-40.9125,-26.7,,adl
12.724319,0.0019,-0.0694,0.0504,0.002,0.0048,0.0016,-22.5938,-40.7625,-26.625,,adl
12.760792,0.0019,-0.0694,0.0504,0.002,0.0048,0.0016,-22.5938,-40.7625,-26.625,,adl
12.77854,0.0019,-0.0694,0.0504,-0.0023,-0.0119,-0.0061,-22.5938,-40.7625,-26.625,,adl
12.781498,0.0,0.0665,-0.0455,-0.0023,-0.0119,-0.0061,-22.5938,-40.7625,-26.625,,adl
12.783783,0.0,0.0665,-0.0455,-0.0023,-0.0119,-0.0061,-22.6875,-40.9125,-26.7,,adl
12.82176,0.0,0.0665,-0.0455,-0.0023,-0.0119,-0.0061,-22.6875,-40.9125,-26.7,,adl
12.842104,0.0,0.0665,-0.0455,0.0016,-0.0051,0.0005,-22.6875,-40.9125,-26.7,,adl
12.844575,-0.0312,0.0097,-0.0003,0.0016,-0.0051,0.0005,-22.6875,-40.9125,-26.7,,adl
12.846403,-0.0312,0.0097,-0.0003,0.0016,-0.0051,0.0005,-22.7063,-41.0063,-26.6625,,adl
12.882633,-0.0312,0.0097,-0.0003,0.0016,-0.0051,0.0005,-22.7063,-41.0063,-26.6625,,adl
12.902764,-0.0312,0.0097,-0.0003,0.0045,0.0095,0.0069,-22.7063,-41.0063,-26.6625,,adl
12.905514,-0.0312,0.0097,-0.0003,0.0045,0.0095,0.0069,-22.6688,-40.9313,-26.7,,adl
12.921217,0.0222,-0.0577,0.02,0.0045,0.0095,0.0069,-22.6688,-40.9313,-26.7,,adl
12.942156,0.0222,-0.0577,0.02,0.0045,0.0095,0.0069,-22.6688,-40.9313,-26.7,,adl
12.962982,0.0222,-0.0577,0.02,-0.0023,-0.0016,-0.0033,-22.6688,-40.9313,-26.7,,adl
12.964942,0.0222,-0.0577,0.02,-0.0023,-0.0016,-0.0033,-22.6875,-40.9125,-26.6625,,adl
12.981447,-0.0044,0.0208,-0.0081,-0.0023,-0.0016,-0.0033,-22.6875,-40.9125,-26.6625,,adl
13.003946,-0.0044,0.0208,-0.0081,-0.0023,-0.0016,-0.0033,-22.6875,-40.9125,-26.6625,,adl
13.023468,-0.0044,0.0208,-0.0081,-0.0016,-0.0076,-0.0048,-22.6875,-40.9125,-26.6625,,adl
13.026297,-0.0044,0.0208,-0.0081,-0.0016,-0.0076,-0.0048,-22.7438,-40.95,-26.55,,adl
13.042327,-0.0204,0.0338,-0.0233,-0.0016,-0.0076,-0.0048,-22.7438,-40.95,-26.55,,adl
13.065668,-0.0204,0.0338,-0.0233,-0.0016,-0.0076,-0.0048,-22.7438,-40.95,-26.55,,adl
13.084874,-0.0204,0.0338,-0.0233,0.0031,-0.0016,0.0031,-22.7438,-40.95,-26.55,,adl
13.087847,-0.0204,0.0338,-0.0233,0.0031,-0.0016,0.0031,-22.7063,-40.9875,-26.4375,,adl
13.127309,-0.0204,0.0338,-0.0233,0.0031,-0.0016,0.0031,-22.7063,-40.9875,-26.4375,,adl
13.130438,0.0028,-0.0408,0.0208,0.0031,-0.0016,0.0031,-22.7063,-40.9875,-26.4375,,adl
13.145851,0.0028,-0.0408,0.0208,0.0031,-0.0016,0.0031,-22.7438,-41.0813,-26.55,,adl
13.147825,0.0028,-0.0408,0.0208,0.0013,0.002,0.0016,-22.7438,-41.0813,-26.55,,adl
13.184944,0.0028,-0.0408,0.0208,0.0013,0.002,0.0016,-22.7438,-41.0813,-26.55,,adl
13.187944,0.0042,0.0031,0.0081,0.0013,0.002,0.0016,-22.7438,-41.0813,-26.55,,adl
13.205954,0.0042,0.0031,0.0081,0.0013,0.002,0.0016,-22.725,-41.2125,-26.6438,,adl
13.207603,0.0042,0.0031,0.0081,0.0045,-0.0029,0.0016,-22.725,-41.2125,-26.6438,,adl
13.249006,-0.0161,-0.0039,0.0001,0.0045,-0.0029,0.0016,-22.725,-41.2125,-26.6438,,adl
13.252745,-0.0161,-0.0039,0.0001,0.0045,-0.0029,0.0016,-22.725,-41.2125,-26.6438,,adl
13.267819,-0.0161,-0.0039,0.0001,-0.0023,-0.0008,-0.0044,-22.725,-41.2125,-26.6438,,adl
13.26942,-0.0161,-0.0039,0.0001,-0.0023,-0.0008,-0.0044,-22.6313,-41.0813,-26.4563,,adl
13.308483,0.0052,0.0344,-0.0268,-0.0023,-0.0008,-0.0044,-22.6313,-41.0813,-26.4563,,adl
13.311255,0.0052,0.0344,-0.0268,-0.0023,-0.0008,-0.0044,-22.6313,-41.0813,-26.4563,,adl
13.326069,0.0052,0.0344,-0.0268,-0.0023,-0.0008,-0.0044,-22.6688,-41.025,-26.4938,,adl
13.327878,0.0052,0.0344,-0.0268,-0.0016,0.0084,-0.0008,-22.6688,-41.025,-26.4938,,adl
13.37004,0.0052,0.0344,-0.0268,-0.0016,0.0084,-0.0008,-22.6688,-41.025,-26.4938,,adl
13.384744,0.0052,0.0344,-0.0268,-0.0016,0.0084,-0.0008,-22.5188,-40.875,-26.5313,,adl
13.387095,0.0052,0.0344,-0.0268,0.0052,-0.0033,0.0048,-22.5188,-40.875,-26.5313,,adl
13.388057,0.014,-0.0198,0.0031,0.0052,-0.0033,0.0048,-22.5188,-40.875,-26.5313,,adl
13.430259,0.014,-0.0198,0.0031,0.0052,-0.0033,0.0048,-22.5188,-40.875,-26.5313,,adl
13.444047,0.014,-0.0198,0.0031,0.0052,-0.0033,0.0048,-22.5375,-41.025,-26.6063,,adl
13.447591,0.014,-0.0198,0.0031,-0.0008,-0.0001,0.0003,-22.5375,-41.025,-26.6063,,adl
13.449476,-0.0328,-0.0285,0.0332,-0.0008,-0.0001,0.0003,-22.5375,-41.025,-26.6063,,adl
13.492957,-0.0328,-0.0285,0.0332,-0.0008,-0.0001,0.0003,-22.5375,-41.025,-26.6063,,adl
13.505663,-0.0328,-0.0285,0.0332,-0.0008,-0.0001,0.0003,-22.5188,-41.1,-26.6063,,adl
13.511629,-0.0328,-0.0285,0.0332,0.0003,-0.0044,-0.0016,-22.5188,-41.1,-26.6063,,adl
13.513365,0.0035,0.0303,-0.028,0.0003,-0.0044,-0.0016,-22.5188,-41.1,-26.6063,,adl
13.5499,0.0035,0.0303,-0.028,0.0003,-0.0044,-0.0016,-22.5188,-41.1,-26.6063,,adl
13.563584,0.0035,0.0303,-0.028,0.0003,-0.0044,-0.0016,-22.5,-41.1188,-26.7188,,adl
13.569312,0.0035,0.0303,-0.028,0.0009,-0.0019,-0.0008,-22.5,-41.1188,-26.7188,,adl
13.591368,-0.0082,0.0025,0.008,0.0009,-0.0019,-0.0008,-22.5,-41.1188,-26.7188,,adl
13.612905,-0.0082,0.0025,0.008,0.0009,-0.0019,-0.0008,-22.5,-41.1188,-26.7188,,adl
13.623727,-0.0082,0.0025,0.008,0.0009,-0.0019,-0.0008,-22.4438,-41.1188,-26.8125,,adl
13.631748,-0.0082,0.0025,0.008,0.0095,0.0003,0.0024,-22.4438,-41.1188,-26.8125,,adl
13.651803,0.0115,-0.0165,0.0117,0.0095,0.0003,0.0024,-22.4438,-41.1188,-26.8125,,adl
13.67288,0.0115,-0.0165,0.0117,0.0095,0.0003,0.0024,-22.4438,-41.1188,-26.8125,,adl
13.68509,0.0115,-0.0165,0.0117,0.0095,0.0003,0.0024,-22.4625,-41.0063,-26.8125,,adl
13.69499,0.0115,-0.0165,0.0117,0.0063,0.0073,-0.0008,-22.4625,-41.0063,-26.8125,,adl
13.714461,0.0137,-0.001,-0.0051,0.0063,0.0073,-0.0008,-22.4625,-41.0063,-26.8125,,adl
13.73389,0.0137,-0.001,-0.0051,0.0063,0.0073,-0.0008,-22.4625,-41.0063,-26.8125,,adl
13.743895,0.0137,-0.001,-0.0051,0.0063,0.0073,-0.0008,-22.5563,-41.0063,-27.0188,,adl
13.752629,0.0137,-0.001,-0.0051,0.002,-0.0019,-0.0019,-22.5563,-41.0063,-27.0188,,adl
13.773775,-0.0191,0.0152,-0.007,0.002,-0.0019,-0.0019,-22.5563,-41.0063,-27.0188,,adl
13.793991,-0.0191,0.0152,-0.007,0.002,-0.0019,-0.0019,-22.5563,-41.0063,-27.0188,,adl
13.803922,-0.0191,0.0152,-0.007,0.002,-0.0019,-0.0019,-22.4625,-40.95,-27.075,,adl
13.813324,-0.0191,0.0152,-0.007,0.0035,-0.0033,-0.0001,-22.4625,-40.95,-27.075,,adl
13.85599,-0.0191,0.0152,-0.007,0.0035,-0.0033,-0.0001,-22.4625,-40.95,-27.075,,adl
13.858073,-0.0104,-0.0099,0.0041,0.0035,-0.0033,-0.0001,-22.4625,-40.95,-27.075,,adl
13.863498,-0.0104,-0.0099,0.0041,0.0035,-0.0033,-0.0001,-22.6313,-40.9313,-27.0375,,adl
13.874155,-0.0104,-0.0099,0.0041,0.0016,-0.0001,0.0005,-22.6313,-40.9313,-27.0375,,adl
13.918434,-0.0104,-0.0099,0.0041,0.0016,-0.0001,0.0005,-22.6313,-40.9313,-27.0375,,adl
13.922078,0.0015,-0.0044,-0.0017,0.0016,-0.0001,0.0005,-22.6313,-40.9313,-27.0375,,adl
13.927364,0.0015,-0.0044,-0.0017,0.0016,-0.0001,0.0005,-22.65,-40.8938,-27.1313,,adl
13.93545,0.0015,-0.0044,-0.0017,0.002,-0.0001,0.0005,-22.65,-40.8938,-27.1313,,adl
13.979757,0.0015,-0.0044,-0.0017,0.002,-0.0001,0.0005,-22.65,-40.8938,-27.1313,,adl
13.981557,-0.0002,0.0026,0.0017,0.002,-0.0001,0.0005,-22.65,-40.8938,-27.1313,,adl
13.986462,-0.0002,0.0026,0.0017,0.002,-0.0001,0.0005,-22.6875,-40.875,-27.1313,,adl
13.995154,-0.0002,0.0026,0.0017,0.0005,0.0005,-0.0005,-22.6875,-40.875,-27.1313,,adl
14.038805,-0.0002,0.0026,0.0017,0.0005,0.0005,-0.0005,-22.6875,-40.875,-27.1313,,adl
14.042934,-0.0002,0.0026,0.0017,0.0005,0.0005,-0.0005,-22.7625,-40.6875,-27.2063,,adl
14.057152,-0.0002,0.0026,0.0017,-0.0019,0.0013,-0.0008,-22.7625,-40.6875,-27.2063,,adl
14.058863,0.0033,0.0063,-0.0142,-0.0019,0.0013,-0.0008,-22.7625,-40.6875,-27.2063,,adl
14.100045,0.0033,0.0063,-0.0142,-0.0019,0.0013,-0.0008,-22.7625,-40.6875,-27.2063,,adl
14.105801,0.0033,0.0063,-0.0142,-0.0019,0.0013,-0.0008,-22.7063,-40.7438,-27.0563,,adl
14.119203,0.0033,0.0063,-0.0142,0.002,-0.0019,-0.0001,-22.7063,-40.7438,-27.0563,,adl
14.121837,-0.0036,0.0037,-0.0028,0.002,-0.0019,-0.0001,-22.7063,-40.7438,-27.0563,,adl
14.161213,-0.0036,0.0037,-0.0028,0.002,-0.0019,-0.0001,-22.7063,-40.7438,-27.0563,,adl
14.164582,-0.0036,0.0037,-0.0028,0.002,-0.0019,-0.0001,-22.65,-40.8563,-26.9438,,adl
14.179076,-0.0036,0.0037,-0.0028,-0.0008,0.0003,0.0009,-22.65,-40.8563,-26.9438,,adl
14.181076,-0.0024,-0.0017,0.0019,-0.0008,0.0003,0.0009,-22.65,-40.8563,-26.9438,,adl
14.221715,-0.0024,-0.0017,0.0019,-0.0008,0.0003,0.0009,-22.65,-40.8563,-26.9438,,adl
14.224875,-0.0024,-0.0017,0.0019,-0.0008,0.0003,0.0009,-22.6125,-40.8938,-26.8125,,adl
14.239986,0.008,-0.0048,-0.0019,-0.0008,0.0003,0.0009,-22.6125,-40.8938,-26.8125,,adl
14.24166,0.008,-0.0048,-0.0019,0.0005,-0.0008,0.0003,-22.6125,-40.8938,-26.8125,,adl
14.282853,0.008,-0.0048,-0.0019,0.0005,-0.0008,0.0003,-22.6125,-40.8938,-26.8125,,adl
14.286156,0.008,-0.0048,-0.0019,0.0005,-0.0008,0.0003,-22.6688,-40.9688,-26.7188,,adl
14.301739,0.008,-0.0048,-0.0019,-0.0001,-0.0027,-0.0012,-22.6688,-40.9688,-26.7188,,adl
14.321285,-0.0098,0.0011,0.0109,-0.0001,-0.0027,-0.0012,-22.6688,-40.9688,-26.7188,,adl
14.343173,-0.0098,0.0011,0.0109,-0.0001,-0.0027,-0.0012,-22.6688,-40.9688,-26.7188,,adl
14.345012,-0.0098,0.0011,0.0109,-0.0001,-0.0027,-0.0012,-22.65,-41.1188,-26.7938,,adl
14.361922,-0.0098,0.0011,0.0109,-0.0005,-0.0012,-0.0008,-22.65,-41.1188,-26.7938,,adl
14.381683,-0.0049,0.0011,-0.0028,-0.0005,-0.0012,-0.0008,-22.65,-41.1188,-26.7938,,adl
14.403546,-0.0049,0.0011,-0.0028,-0.0005,-0.0012,-0.0008,-22.65,-41.1188,-26.7938,,adl
14.405856,-0.0049,0.0011,-0.0028,-0.0005,-0.0012,-0.0008,-22.6875,-40.9688,-26.8875,,adl
14.422466,-0.0049,0.0011,-0.0028,0.0005,0.0003,0.0005,-22.6875,-40.9688,-26.8875,,adl
14.444841,-0.0034,-0.0068,-0.0022,0.0005,0.0003,0.0005,-22.6875,-40.9688,-26.8875,,adl
14.46654,-0.0034,-0.0068,-0.0022,0.0005,0.0003,0.0005,-22.6875,-40.9688,-26.8875,,adl
14.468757,-0.0034,-0.0068,-0.0022,0.0005,0.0003,0.0005,-22.575,-40.95,-26.9813,,adl
14.484952,-0.0034,-0.0068,-0.0022,-0.0005,0.0005,0.0003,-22.575,-40.95,-26.9813,,adl
14.526876,-0.0034,-0.0068,-0.0022,-0.0005,0.0005,0.0003,-22.4062,-41.0625,-26.9625,,adl
14.530196,-0.0034,-0.0068,-0.0022,-0.0005,0.0005,0.0003,-22.4062,-41.0625,-26.9625,,adl
14.53247,0.0013,0.0021,-0.0053,-0.0005,0.0005,0.0003,-22.4062,-41.0625,-26.9625,,adl
14.544975,0.0013,0.0021,-0.0053,0.0003,-0.0019,-0.0005,-22.4062,-41.0625,-26.9625,,adl
14.587716,0.0013,0.0021,-0.0053,0.0003,-0.0019,-0.0005,-22.4813,-40.9875,-27.0188,,adl
14.591335,0.0013,0.0021,-0.0053,0.0003,-0.0019,-0.0005,-22.4813,-40.9875,-27.0188,,adl
14.593546,-0.0049,-0.0071,0.0041,0.0003,-0.0019,-0.0005,-22.4813,-40.9875,-27.0188,,adl
14.606005,-0.0049,-0.0071,0.0041,-0.0016,-0.0005,-0.0001,-22.4813,-40.9875,-27.0188,,adl
14.646892,-0.0049,-0.0071,0.0041,-0.0016,-0.0005,-0.0001,-22.5,-40.9313,-27.0563,,adl
14.650371,-0.0009,0.0027,0.0022,-0.0016,-0.0005,-0.0001,-22.5,-40.9313,-27.0563,,adl
14.652783,-0.0009,0.0027,0.0022,-0.0016,-0.0005,-0.0001,-22.5,-40.9313,-27.0563,,adl
14.666036,-0.0009,0.0027,0.0022,0.0003,-0.0019,0.0013,-22.5,-40.9313,-27.0563,,adl
14.707323,-0.0009,0.0027,0.0022,0.0003,-0.0019,0.0013,-22.5,-40.9688,-27.075,,adl
14.709747,-0.0009,0.0027,0.0022,0.0003,-0.0019,0.0013,-22.5,-40.9688,-27.075,,adl
14.710944,-0.0027,-0.0042,0.0041,0.0003,-0.0019,0.0013,-22.5,-40.9688,-27.075,,adl
14.726269,-0.0027,-0.0042,0.0041,-0.0012,-0.0005,-0.0001,-22.5,-40.9688,-27.075,,adl
14.766538,-0.0027,-0.0042,0.0041,-0.0012,-0.0005,-0.0001,-22.65,-41.025,-27.075,,adl
14.76833,-0.0027,-0.0042,0.0041,-0.0012,-0.0005,-0.0001,-22.65,-41.025,-27.075,,adl
14.788327,-0.0027,-0.0042,0.0041,-0.0076,0.0027,-0.0008,-22.65,-41.025,-27.075,,adl
14.789937,-0.0048,0.0109,0.0006,-0.0076,0.0027,-0.0008,-22.65,-41.025,-27.075,,adl
14.826727,-0.0048,0.0109,0.0006,-0.0076,0.0027,-0.0008,-22.65,-41.025,-26.9813,,adl
14.829235,-0.0048,0.0109,0.0006,-0.0076,0.0027,-0.0008,-22.65,-41.025,-26.9813,,adl
14.848914,-0.0048,0.0109,0.0006,-0.0119,-0.014,-0.0001,-22.65,-41.025,-26.9813,,adl
14.850265,-0.0021,-0.0003,0.0005,-0.0119,-0.014,-0.0001,-22.65,-41.025,-26.9813,,adl
14.885841,-0.0021,-0.0003,0.0005,-0.0119,-0.014,-0.0001,-22.5563,-41.1938,-26.8313,,adl
14.889734,-0.0021,-0.0003,0.0005,-0.0119,-0.014,-0.0001,-22.5563,-41.1938,-26.8313,,adl
14.910993,-0.0021,-0.0003,0.0005,-0.0072,-0.0129,-0.0027,-22.5563,-41.1938,-26.8313,,adl
14.913351,-0.0543,-0.0024,0.023,-0.0072,-0.0129,-0.0027,-22.5563,-41.1938,-26.8313,,adl
14.946244,-0.0543,-0.0024,0.023,-0.0072,-0.0129,-0.0027,-22.65,-41.1938,-26.7375,,adl
14.951476,-0.0543,-0.0024,0.023,-0.0072,-0.0129,-0.0027,-22.65,-41.1938,-26.7375,,adl
14.972792,-0.0543,-0.0024,0.023,-0.0029,0.0052,0.002,-22.65,-41.1938,-26.7375,,adl
14.990446,0.0611,0.0079,-0.0292,-0.0029,0.0052,0.002,-22.65,-41.1938,-26.7375,,adl
15.004294,0.0611,0.0079,-0.0292,-0.0029,0.0052,0.002,-22.8563,-40.9875,-26.8875,,adl
15.010684,0.0611,0.0079,-0.0292,-0.0029,0.0052,0.002,-22.8563,-40.9875,-26.8875,,adl
15.030218,0.0611,0.0079,-0.0292,0.0009,-0.0051,0.0005,-22.8563,-40.9875,-26.8875,,adl
15.051879,-0.0414,-0.0131,0.0208,0.0009,-0.0051,0.0005,-22.8563,-40.9875,-26.8875,,adl
15.063349,-0.0414,-0.0131,0.0208,0.0009,-0.0051,0.0005,-22.95,-40.95,-27.15,,adl
15.071862,-0.0414,-0.0131,0.0208,0.0009,-0.0051,0.0005,-22.95,-40.95,-27.15,,adl
15.091708,-0.0414,-0.0131,0.0208,-0.0019,0.0013,0.0003,-22.95,-40.95,-27.15,,adl
15.11178,0.0132,0.0049,0.0,-0.0019,0.0013,0.0003,-22.95,-40.95,-27.15,,adl
15.123289,0.0132,0.0049,0.0,-0.0019,0.0013,0.0003,-23.1938,-40.8375,-27.6,,adl
15.133115,0.0132,0.0049,0.0,-0.0019,0.0013,0.0003,-23.1938,-40.8375,-27.6,,adl
15.153447,0.0132,0.0049,0.0,-0.0016,-0.0027,-0.0012,-23.1938,-40.8375,-27.6,,adl
15.173204,-0.0112,0.0067,0.001,-0.0016,-0.0027,-0.0012,-23.1938,-40.8375,-27.6,,adl
15.183504,-0.0112,0.0067,0.001,-0.0016,-0.0027,-0.0012,-23.4,-40.6875,-27.8438,,adl
15.193772,-0.0112,0.0067,0.001,-0.0016,-0.0027,-0.0012,-23.4,-40.6875,-27.8438,,adl
15.213925,-0.0112,0.0067,0.001,0.0016,-0.0008,0.0013,-23.4,-40.6875,-27.8438,,adl
15.243091,-0.0112,0.0067,0.001,0.0016,-0.0008,0.0013,-23.325,-40.6125,-28.0313,,adl
15.254768,-0.0112,0.0067,0.001,0.0016,-0.0008,0.0013,-23.325,-40.6125,-28.0313,,adl
15.255943,-0.0014,-0.0074,-0.0009,0.0016,-0.0008,0.0013,-23.325,-40.6125,-28.0313,,adl
15.27455,-0.0014,-0.0074,-0.0009,0.0031,0.0003,0.0031,-23.325,-40.6125,-28.0313,,adl
15.304434,-0.0014,-0.0074,-0.0009,0.0031,0.0003,0.0031,-23.5125,-40.5375,-28.2563,,adl
15.318133,-0.001,-0.0082,0.0062,0.0031,0.0003,0.0031,-23.5125,-40.5375,-28.2563,,adl
15.32077,-0.001,-0.0082,0.0062,0.0031,0.0003,0.0031,-23.5125,-40.5375,-28.2563,,adl
15.335517,-0.001,-0.0082,0.0062,-0.0027,0.0024,0.0003,-23.5125,-40.5375,-28.2563,,adl
15.363564,-0.001,-0.0082,0.0062,-0.0027,0.0024,0.0003,-23.7188,-40.4625,-28.4438,,adl
15.376734,-0.001,-0.0082,0.0062,-0.0027,0.0024,0.0003,-23.7188,-40.4625,-28.4438,,adl
15.378312,-0.0021,0.0172,-0.0124,-0.0027,0.0024,0.0003,-23.7188,-40.4625,-28.4438,,adl
15.396836,-0.0021,0.0172,-0.0124,-0.0005,-0.0029,-0.0019,-23.7188,-40.4625,-28.4438,,adl
15.424065,-0.0021,0.0172,-0.0124,-0.0005,-0.0029,-0.0019,-23.8313,-40.5938,-28.7625,,adl
15.43786,-0.0021,0.0172,-0.0124,-0.0005,-0.0029,-0.0019,-23.8313,-40.5938,-28.7625,,adl
15.458785,-0.0021,0.0172,-0.0124,0.0003,-0.0016,0.0003,-23.8313,-40.5938,-28.7625,,adl
15.461284,-0.0156,-0.0001,0.0045,0.0003,-0.0016,0.0003,-23.8313,-40.5938,-28.7625,,adl
15.484974,-0.0156,-0.0001,0.0045,0.0003,-0.0016,0.0003,-23.7188,-40.7625,-28.6313,,adl
15.499626,-0.0156,-0.0001,0.0045,0.0003,-0.0016,0.0003,-23.7188,-40.7625,-28.6313,,adl
15.518879,-0.0156,-0.0001,0.0045,-0.0008,0.0037,0.0031,-23.7188,-40.7625,-28.6313,,adl
15.520472,0.0119,-0.0059,-0.0017,-0.0008,0.0037,0.0031,-23.7188,-40.7625,-28.6313,,adl
15.54398,0.0119,-0.0059,-0.0017,-0.0008,0.0037,0.0031,-23.5688,-40.7812,-28.2563,,adl
15.561023,0.0119,-0.0059,-0.0017,-0.0008,0.0037,0.0031,-23.5688,-40.7812,-28.2563,,adl
15.582719,0.0119,-0.0059,-0.0017,0.0005,0.0005,0.0003,-23.5688,-40.7812,-28.2563,,adl
15.585746,-0.0018,-0.0055,-0.0032,0.0005,0.0005,0.0003,-23.5688,-40.7812,-28.2563,,adl
15.60635,-0.0018,-0.0055,-0.0032,0.0005,0.0005,0.0003,-23.3438,-40.9125,-27.7875,,adl
15.622285,-0.0018,-0.0055,-0.0032,0.0005,0.0005,0.0003,-23.3438,-40.9125,-27.7875,,adl
15.641016,-0.0018,-0.0055,-0.0032,-0.0008,-0.0016,-0.0008,-23.3438,-40.9125,-27.7875,,adl
15.642958,-0.0058,0.0039,-0.0034,-0.0008,-0.0016,-0.0008,-23.3438,-40.9125,-27.7875,,adl
15.663869,-0.0058,0.0039,-0.0034,-0.0008,-0.0016,-0.0008,-23.175,-40.9688,-27.675,,adl
15.683847,-0.0058,0.0039,-0.0034,-0.0008,-0.0016,-0.0008,-23.175,-40.9688,-27.675,,adl
15.70266,-0.0058,0.0039,-0.0034,0.0027,-0.0029,0.0003,-23.175,-40.9688,-27.675,,adl
15.72478,-0.0058,0.0039,-0.0034,0.0027,-0.0029,0.0003,-23.0438,-41.0813,-27.5625,,adl
15.726813,-0.0028,-0.0111,0.0093,0.0027,-0.0029,0.0003,-23.0438,-41.0813,-27.5625,,adl
15.742725,-0.0028,-0.0111,0.0093,0.0027,-0.0029,0.0003,-23.0438,-41.0813,-27.5625,,adl
15.764719,-0.0028,-0.0111,0.0093,0.0005,-0.0005,0.0005,-23.0438,-41.0813,-27.5625,,adl
15.785036,0.0009,-0.0033,0.0019,0.0005,-0.0005,0.0005,-23.0438,-41.0813,-27.5625,,adl
15.787525,0.0009,-0.0033,0.0019,0.0005,-0.0005,0.0005,-22.9688,-41.1562,-27.2438,,adl
15.807997,0.0009,-0.0033,0.0019,0.0005,-0.0005,0.0005,-22.9688,-41.1562,-27.2438,,adl
15.826564,0.0009,-0.0033,0.0019,0.002,-0.0019,0.0009,-22.9688,-41.1562,-27.2438,,adl
15.845778,0.0009,-0.0033,0.0019,0.002,-0.0019,0.0009,-22.875,-41.1938,-26.8688,,adl
15.847854,0.0055,0.0037,-0.0043,0.002,-0.0019,0.0009,-22.875,-41.1938,-26.8688,,adl
15.865656,0.0055,0.0037,-0.0043,0.002,-0.0019,0.0009,-22.875,-41.1938,-26.8688,,adl
15.886927,0.0055,0.0037,-0.0043,0.0013,-0.0019,-0.0005,-22.875,-41.1938,-26.8688,,adl
15.907784,0.0055,0.0037,-0.0043,0.0013,-0.0019,-0.0005,-22.7438,-41.1562,-26.6813,,adl
15.927561,0.0055,0.0037,-0.0043,0.0013,-0.0019,-0.0005,-22.7438,-41.1562,-26.6813,,adl
15.929038,-0.0049,-0.0068,0.0011,0.0013,-0.0019,-0.0005,-22.7438,-41.1562,-26.6813,,adl
15.945482,-0.0049,-0.0068,0.0011,-0.0008,-0.0001,-0.0001,-22.7438,-41.1562,-26.6813,,adl
15.965666,-0.0049,-0.0068,0.0011,-0.0008,-0.0001,-0.0001,-22.8375,-41.1375,-26.6438,,adl
15.989087,-0.0049,-0.0068,0.0011,-0.0008,-0.0001,-0.0001,-22.8375,-41.1375,-26.6438,,adl
15.990449,0.0134,0.0044,-0.0093,-0.0008,-0.0001,-0.0001,-22.8375,-41.1375,-26.6438,,adl
16.006915,0.0134,0.0044,-0.0093,0.0016,-0.0023,-0.0005,-22.8375,-41.1375,-26.6438,,adl
16.026421,0.0134,0.0044,-0.0093,0.0016,-0.0023,-0.0005,-22.9313,-41.2313,-26.625,,adl
16.048064,0.0134,0.0044,-0.0093,0.0016,-0.0023,-0.0005,-22.9313,-41.2313,-26.625,,adl
16.050335,-0.001,-0.0059,0.0042,0.0016,-0.0023,-0.0005,-22.9313,-41.2313,-26.625,,adl
16.066723,-0.001,-0.0059,0.0042,0.0013,-0.0027,0.0005,-22.9313,-41.2313,-26.625,,adl
16.08613,-0.001,-0.0059,0.0042,0.0013,-0.0027,0.0005,-22.875,-41.1562,-26.6438,,adl
16.10794,-0.001,-0.0059,0.0042,0.0013,-0.0027,0.0005,-22.875,-41.1562,-26.6438,,adl
16.110794,-0.016,-0.0017,0.0089,0.0013,-0.0027,0.0005,-22.875,-41.1562,-26.6438,,adl
16.127488,-0.016,-0.0017,0.0089,0.0024,-0.0016,0.0024,-22.875,-41.1562,-26.6438,,adl
16.144657,-0.016,-0.0017,0.0089,0.0024,-0.0016,0.0024,-22.9688,-41.175,-26.6625,,adl
16.170672,-0.016,-0.0017,0.0089,0.0024,-0.0016,0.0024,-22.9688,-41.175,-26.6625,,adl
16.188199,-0.016,-0.0017,0.0089,-0.0016,0.0016,-0.0008,-22.9688,-41.175,-26.6625,,adl
16.18968,-0.0002,0.0006,-0.0093,-0.0016,0.0016,-0.0008,-22.9688,-41.175,-26.6625,,adl
16.205152,-0.0002,0.0006,-0.0093,-0.0016,0.0016,-0.0008,-22.9313,-41.0813,-26.6813,,adl
16.231142,-0.0002,0.0006,-0.0093,-0.0016,0.0016,-0.0008,-22.9313,-41.0813,-26.6813,,adl
16.251306,-0.0002,0.0006,-0.0093,0.0013,-0.0037,-0.0012,-22.9313,-41.0813,-26.6813,,adl
16.253515,0.0014,0.0076,0.0007,0.0013,-0.0037,-0.0012,-22.9313,-41.0813,-26.6813,,adl
16.265135,0.0014,0.0076,0.0007,0.0013,-0.0037,-0.0012,-22.8375,-41.0625,-26.6813,,adl
16.294145,0.0014,0.0076,0.0007,0.0013,-0.0037,-0.0012,-22.8375,-41.0625,-26.6813,,adl
16.312359,0.0014,0.0076,0.0007,-0.0029,0.0027,0.0013,-22.8375,-41.0625,-26.6813,,adl
16.314207,-0.0098,-0.009,0.0072,-0.0029,0.0027,0.0013,-22.8375,-41.0625,-26.6813,,adl
16.323706,-0.0098,-0.009,0.0072,-0.0029,0.0027,0.0013,-22.8188,-40.9688,-26.7938,,adl
16.351529,-0.0098,-0.009,0.0072,-0.0029,0.0027,0.0013,-22.8188,-40.9688,-26.7938,,adl
16.371555,-0.0098,-0.009,0.0072,0.0041,0.0005,0.002,-22.8188,-40.9688,-26.7938,,adl
16.37419,0.0093,-0.0078,0.0084,0.0041,0.0005,0.002,-22.8188,-40.9688,-26.7938,,adl
16.385521,0.0093,-0.0078,0.0084,0.0041,0.0005,0.002,-22.7438,-40.7625,-26.7188,,adl
16.414051,0.0093,-0.0078,0.0084,0.0041,0.0005,0.002,-22.7438,-40.7625,-26.7188,,adl
16.432379,0.0093,-0.0078,0.0084,-0.0029,0.002,-0.0008,-22.7438,-40.7625,-26.7188,,adl
16.444053,0.0093,-0.0078,0.0084,-0.0029,0.002,-0.0008,-22.65,-40.7438,-26.7563,,adl
16.452903,0.0019,0.007,-0.0135,-0.0029,0.002,-0.0008,-22.65,-40.7438,-26.7563,,adl
16.473875,0.0019,0.007,-0.0135,-0.0029,0.002,-0.0008,-22.65,-40.7438,-26.7563,,adl
16.493624,0.0019,0.007,-0.0135,0.0005,-0.0048,-0.0008,-22.65,-40.7438,-26.7563,,adl
16.504348,0.0019,0.007,-0.0135,0.0005,-0.0048,-0.0008,-22.5375,-40.725,-26.8313,,adl
16.513402,-0.0184,0.0033,-0.0015,0.0005,-0.0048,-0.0008,-22.5375,-40.725,-26.8313,,adl
16.534507,-0.0184,0.0033,-0.0015,0.0005,-0.0048,-0.0008,-22.5375,-40.725,-26.8313,,adl
16.553181,-0.0184,0.0033,-0.0015,0.0005,-0.0008,0.0013,-22.5375,-40.725,-26.8313,,adl
16.561955,-0.0184,0.0033,-0.0015,0.0005,-0.0008,0.0013,-22.575,-40.6875,-27.0,,adl
16.573261,0.0036,-0.0118,0.001,0.0005,-0.0008,0.0013,-22.575,-40.6875,-27.0,,adl
16.594691,0.0036,-0.0118,0.001,0.0005,-0.0008,0.0013,-22.575,-40.6875,-27.0,,adl
16.615335,0.0036,-0.0118,0.001,0.0009,-0.0016,0.0013,-22.575,-40.6875,-27.0,,adl
16.624418,0.0036,-0.0118,0.001,0.0009,-0.0016,0.0013,-22.5563,-40.6875,-27.0938,,adl
16.658733,0.0036,-0.0118,0.001,0.0009,-0.0016,0.0013,-22.5563,-40.6875,-27.0938,,adl
16.661425,-0.0012,0.0001,-0.0012,0.0009,-0.0016,0.0013,-22.5563,-40.6875,-27.0938,,adl
16.675476,-0.0012,0.0001,-0.0012,0.0009,-0.0008,0.0005,-22.5563,-40.6875,-27.0938,,adl
16.686323,-0.0012,0.0001,-0.0012,0.0009,-0.0008,0.0005,-22.6313,-40.6125,-27.0375,,adl
16.717477,-0.0012,0.0001,-0.0012,0.0009,-0.0008,0.0005,-22.6313,-40.6125,-27.0375,,adl
16.719982,0.0017,0.001,0.0014,0.0009,-0.0008,0.0005,-22.6313,-40.6125,-27.0375,,adl
16.736736,0.0017,0.001,0.0014,-0.0008,-0.0019,-0.0005,-22.6313,-40.6125,-27.0375,,adl
16.745208,0.0017,0.001,0.0014,-0.0008,-0.0019,-0.0005,-22.6688,-40.6313,-27.0938,,adl
16.781074,0.0017,0.001,0.0014,-0.0008,-0.0019,-0.0005,-22.6688,-40.6313,-27.0938,,adl
16.78495,-0.0063,0.0033,0.0001,-0.0008,-0.0019,-0.0005,-22.6688,-40.6313,-27.0938,,adl
16.798107,-0.0063,0.0033,0.0001,-0.0012,0.0216,-0.0012,-22.6688,-40.6313,-27.0938,,adl
16.804194,-0.0063,0.0033,0.0001,-0.0012,0.0216,-0.0012,-22.6313,-40.7438,-27.0375,,adl
16.840753,-0.0063,0.0033,0.0001,-0.0012,0.0216,-0.0012,-22.6313,-40.7438,-27.0375,,adl
16.843666,0.0147,-0.0124,-0.012,-0.0012,0.0216,-0.0012,-22.6313,-40.7438,-27.0375,,adl
16.859679,0.0147,-0.0124,-0.012,-0.0019,0.0517,-0.0051,-22.6313,-40.7438,-27.0375,,adl
16.86352,0.0147,-0.0124,-0.012,-0.0019,0.0517,-0.0051,-22.725,-40.8563,-27.0188,,adl
16.901737,0.0147,-0.0124,-0.012,-0.0019,0.0517,-0.0051,-22.725,-40.8563,-27.0188,,adl
16.920004,0.0147,-0.0124,-0.012,-0.0065,0.0563,-0.0033,-22.725,-40.8563,-27.0188,,adl
16.922325,0.0214,0.0146,-0.0284,-0.0065,0.0563,-0.0033,-22.725,-40.8563,-27.0188,,adl
16.923924,0.0214,0.0146,-0.0284,-0.0065,0.0563,-0.0033,-22.8,-40.9875,-27.0563,,adl
16.962527,0.0214,0.0146,-0.0284,-0.0065,0.0563,-0.0033,-22.8,-40.9875,-27.0563,,adl
16.981304,0.0214,0.0146,-0.0284,-0.0115,0.0623,-0.0029,-22.8,-40.9875,-27.0563,,adl
16.983695,0.032,0.0141,-0.0053,-0.0115,0.0623,-0.0029,-22.8,-40.9875,-27.0563,,adl
16.985281,0.032,0.0141,-0.0053,-0.0115,0.0623,-0.0029,-22.6688,-40.8938,-27.225,,adl
17.02331,0.032,0.0141,-0.0053,-0.0115,0.0623,-0.0029,-22.6688,-40.8938,-27.225,,adl
17.043021,0.032,0.0141,-0.0053,-0.0136,0.0482,0.0013,-22.6688,-40.8938,-27.225,,adl
17.045883,0.032,0.0141,-0.0053,-0.0136,0.0482,0.0013,-22.6875,-41.175,-27.15,,adl
17.047646,0.0152,0.0246,0.0213,-0.0136,0.0482,0.0013,-22.6875,-41.175,-27.15,,adl
17.085118,0.0152,0.0246,0.0213,-0.0136,0.0482,0.0013,-22.6875,-41.175,-27.15,,adl
17.105683,0.0152,0.0246,0.0213,-0.0037,0.0169,-0.0019,-22.6875,-41.175,-27.15,,adl
17.10886,0.0152,0.0246,0.0213,-0.0037,0.0169,-0.0019,-22.5188,-41.25,-27.0563,,adl
17.125616,0.027,-0.0118,-0.0122,-0.0037,0.0169,-0.0019,-22.5188,-41.25,-27.0563,,adl
17.142687,0.027,-0.0118,-0.0122,-0.0037,0.0169,-0.0019,-22.5188,-41.25,-27.0563,,adl
17.164942,0.027,-0.0118,-0.0122,-0.0029,-0.0083,0.0003,-22.5188,-41.25,-27.0563,,adl
17.166553,0.027,-0.0118,-0.0122,-0.0029,-0.0083,0.0003,-22.3313,-41.325,-27.0563,,adl
17.184489,-0.0555,-0.0044,0.0554,-0.0029,-0.0083,0.0003,-22.3313,-41.325,-27.0563,,adl
17.20846,-0.0555,-0.0044,0.0554,-0.0029,-0.0083,0.0003,-22.3313,-41.325,-27.0563,,adl
17.225392,-0.0555,-0.0044,0.0554,-0.0029,-0.0083,0.0003,-22.35,-41.3063,-27.2438,,adl
17.228043,-0.0555,-0.0044,0.0554,-0.0027,0.0127,-0.0012,-22.35,-41.3063,-27.2438,,adl
17.245633,0.019,0.003,-0.025,-0.0027,0.0127,-0.0012,-22.35,-41.3063,-27.2438,,adl
17.266329,0.019,0.003,-0.025,-0.0027,0.0127,-0.0012,-22.35,-41.3063,-27.2438,,adl
17.286239,0.019,0.003,-0.025,0.0009,0.0031,-0.0019,-22.35,-41.3063,-27.2438,,adl
17.28801,0.019,0.003,-0.025,0.0009,0.0031,-0.0019,-22.3313,-41.1938,-27.4125,,adl
17.307203,-0.0457,-0.0166,0.0101,0.0009,0.0031,-0.0019,-22.3313,-41.1938,-27.4125,,adl
17.327064,-0.0457,-0.0166,0.0101,0.0009,0.0031,-0.0019,-22.3313,-41.1938,-27.4125,,adl
17.345007,-0.0457,-0.0166,0.0101,-0.0033,0.0197,0.0009,-22.3313,-41.1938,-27.4125,,adl
17.349056,-0.0457,-0.0166,0.0101,-0.0033,0.0197,0.0009,-22.2938,-41.2688,-27.4125,,adl
17.389198,-0.0457,-0.0166,0.0101,-0.0033,0.0197,0.0009,-22.2938,-41.2688,-27.4125,,adl
17.390842,0.0353,0.006,-0.0173,-0.0033,0.0197,0.0009,-22.2938,-41.2688,-27.4125,,adl
17.405743,0.0353,0.006,-0.0173,-0.0033,0.0197,0.0009,-22.2188,-41.2125,-27.4688,,adl
17.407127,0.0353,0.006,-0.0173,0.0101,0.2441,-0.0232,-22.2188,-41.2125,-27.4688,,adl
17.450548,0.0353,0.006,-0.0173,0.0101,0.2441,-0.0232,-22.2188,-41.2125,-27.4688,,adl
17.454458,0.1629,-0.0055,-0.1745,0.0101,0.2441,-0.0232,-22.2188,-41.2125,-27.4688,,adl
17.468619,0.1629,-0.0055,-0.1745,0.0101,0.2441,-0.0232,-22.2375,-41.2125,-27.2813,,adl
17.469768,0.1629,-0.0055,-0.1745,-0.0274,-0.1312,0.019,-22.2375,-41.2125,-27.2813,,adl
