time,ax,ay,az,wx,wy,wz,Bx,By,Bz,Unnamed: 10,label
0.051951,0.0,0.0,0.0,-0.0057,0.0353,0.0305,0.0,0.0,0.0,,adl
0.093832,0.0,0.0,0.0,-0.0057,0.0353,0.0305,-4.6313,18.6375,24.9,,adl
0.147809,0.0,0.0,0.0,0.012,-0.0028,-0.0057,-4.6313,18.6375,24.9,,adl
0.153498,0.0,0.0,0.0,0.012,-0.0028,-0.0057,-13.3875,14.6625,31.8,,adl
0.206151,0.0,0.0,0.0,0.0156,0.0051,-0.0019,-13.3875,14.6625,31.8,,adl
0.214017,0.0,0.0,0.0,0.0156,0.0051,-0.0019,-16.5375,13.8,34.4438,,adl
0.225921,0.0,0.0,0.0,0.0156,0.0051,-0.0019,-16.5375,13.8,34.4438,,adl
0.268324,0.0,0.0,0.0,0.0181,0.0019,0.0007,-16.5375,13.8,34.4438,,adl
0.275056,0.0,0.0,0.0,0.0181,0.0019,0.0007,-17.9438,13.2188,35.7938,,adl
0.287994,0.0,0.0,0.0,0.0181,0.0019,0.0007,-17.9438,13.2188,35.7938,,adl
0.328558,0.0,0.0,0.0,0.016,-0.0009,0.0013,-17.9438,13.2188,35.7938,,adl
0.33011,0.0,0.0,0.0,0.016,-0.0009,0.0013,-17.9438,13.2188,35.7938,,adl
0.333651,0.0,0.0,0.0,0.016,-0.0009,0.0013,-18.7875,12.8063,36.6375,,adl
0.348064,0.0,0.0,0.0,0.016,-0.0009,0.0013,-18.7875,12.8063,36.6375,,adl
0.390087,-0.0057,0.0065,0.0191,0.016,-0.0009,0.0013,-18.7875,12.8063,36.6375,,adl
0.392258,-0.0057,0.0065,0.0191,0.0117,-0.0039,0.0045,-18.7875,12.8063,36.6375,,adl
0.39306,-0.0057,0.0065,0.0191,0.0117,-0.0039,0.0045,-19.4062,12.8438,37.2,,adl
0.409016,-0.0057,0.0065,0.0191,0.0117,-0.0039,0.0045,-19.4062,12.8438,37.2,,adl
0.449775,-0.0057,0.0065,0.0191,0.0064,0.0036,0.0073,-19.4062,12.8438,37.2,,adl
0.451023,-0.0119,0.0019,0.0011,0.0064,0.0036,0.0073,-19.4062,12.8438,37.2,,adl
0.453213,-0.0119,0.0019,0.0011,0.0064,0.0036,0.0073,-20.175,12.6,37.6875,,adl
0.469871,-0.0119,0.0019,0.0011,0.0064,0.0036,0.0073,-20.175,12.6,37.6875,,adl
0.510119,-0.0119,0.0019,0.0011,0.0024,0.0001,0.0099,-20.175,12.6,37.6875,,adl
0.51207,-0.0119,0.0019,0.0011,0.0024,0.0001,0.0099,-20.5312,12.4125,38.0063,,adl
0.530868,-0.0119,0.0019,0.0011,0.0024,0.0001,0.0099,-20.5312,12.4125,38.0063,,adl
0.532373,-0.0068,0.0058,0.0141,0.0024,0.0001,0.0099,-20.5312,12.4125,38.0063,,adl
0.571547,-0.0068,0.0058,0.0141,-0.0025,0.0029,0.0148,-20.5312,12.4125,38.0063,,adl
0.573191,-0.0068,0.0058,0.0141,-0.0025,0.0029,0.0148,-22.875,11.7188,40.2,,adl
0.591687,-0.0068,0.0058,0.0141,-0.0025,0.0029,0.0148,-22.875,11.7188,40.2,,adl
0.592278,0.0023,-0.0033,0.0003,-0.0025,0.0029,0.0148,-22.875,11.7188,40.2,,adl
0.632811,0.0023,-0.0033,0.0003,-0.0025,0.0029,0.0148,-22.8563,11.775,40.1813,,adl
0.634008,0.0023,-0.0033,0.0003,-0.0015,-0.0067,0.0233,-22.8563,11.775,40.1813,,adl
0.653004,0.0023,-0.0033,0.0003,-0.0015,-0.0067,0.0233,-22.8563,11.775,40.1813,,adl
0.653749,0.0179,0.0058,0.0006,-0.0015,-0.0067,0.0233,-22.8563,11.775,40.1813,,adl
0.694197,0.0179,0.0058,0.0006,-0.0036,-0.006,0.0348,-22.8563,11.775,40.1813,,adl
0.695519,0.0179,0.0058,0.0006,-0.0036,-0.006,0.0348,-22.8563,11.775,40.1813,,adl
0.716885,0.0179,0.0058,0.0006,-0.0036,-0.006,0.0348,-22.8563,11.775,40.1813,,adl
0.734874,0.0131,0.0023,0.007,-0.0036,-0.006,0.0348,-22.8563,11.775,40.1813,,adl
0.754601,0.0131,0.0023,0.007,-0.0036,-0.006,0.0348,-23.0625,11.5875,40.3125,,adl
0.756478,0.0131,0.0023,0.007,-0.004,-0.0156,0.0411,-23.0625,11.5875,40.3125,,adl
0.776083,0.0131,0.0023,0.007,-0.004,-0.0156,0.0411,-23.0625,11.5875,40.3125,,adl
0.794526,0.0048,0.0017,0.0087,-0.004,-0.0156,0.0411,-23.0625,11.5875,40.3125,,adl
0.816482,0.0048,0.0017,0.0087,-0.004,-0.0156,0.0411,-23.1938,11.6813,40.3313,,adl
0.81786,0.0048,0.0017,0.0087,-0.0079,-0.0013,0.0542,-23.1938,11.6813,40.3313,,adl
0.836062,0.0048,0.0017,0.0087,-0.0079,-0.0013,0.0542,-23.1938,11.6813,40.3313,,adl
0.857168,0.0312,0.0043,0.0118,-0.0079,-0.0013,0.0542,-23.1938,11.6813,40.3313,,adl
0.873445,0.0312,0.0043,0.0118,-0.0079,-0.0013,0.0542,-23.1,11.5688,40.5,,adl
0.874949,0.0312,0.0043,0.0118,0.0013,-0.0244,0.0606,-23.1,11.5688,40.5,,adl
0.897823,0.0312,0.0043,0.0118,0.0013,-0.0244,0.0606,-23.1,11.5688,40.5,,adl
0.917379,0.0214,-0.0014,-0.0027,0.0013,-0.0244,0.0606,-23.1,11.5688,40.5,,adl
0.933593,0.0214,-0.0014,-0.0027,0.0013,-0.0244,0.0606,-22.8188,11.7,40.5375,,adl
0.935643,0.0214,-0.0014,-0.0027,0.0028,-0.022,0.0691,-22.8188,11.7,40.5375,,adl
0.95618,0.0214,-0.0014,-0.0027,0.0028,-0.022,0.0691,-22.8188,11.7,40.5375,,adl
0.993153,0.0214,-0.0014,-0.0027,0.0028,-0.022,0.0691,-22.7063,11.8688,40.5,,adl
0.998641,0.0214,-0.0014,-0.0027,0.0071,-0.0297,0.0755,-22.7063,11.8688,40.5,,adl
0.999768,0.0106,-0.0003,0.0093,0.0071,-0.0297,0.0755,-22.7063,11.8688,40.5,,adl
1.017248,0.0106,-0.0003,0.0093,0.0071,-0.0297,0.0755,-22.7063,11.8688,40.5,,adl
1.053947,0.0106,-0.0003,0.0093,0.0071,-0.0297,0.0755,-22.65,11.9062,40.4438,,adl
1.05864,0.0106,-0.0003,0.0093,0.0181,-0.0314,0.083,-22.65,11.9062,40.4438,,adl
1.059624,0.0326,0.0108,-0.0044,0.0181,-0.0314,0.083,-22.65,11.9062,40.4438,,adl
1.07922,0.0326,0.0108,-0.0044,0.0181,-0.0314,0.083,-22.65,11.9062,40.4438,,adl
1.114449,0.0326,0.0108,-0.0044,0.0181,-0.0314,0.083,-22.65,11.9813,40.4438,,adl
1.118859,0.0326,0.0108,-0.0044,0.0262,-0.0393,0.0987,-22.65,11.9813,40.4438,,adl
1.119542,0.0267,-0.0063,-0.0361,0.0262,-0.0393,0.0987,-22.65,11.9813,40.4438,,adl
1.141753,0.0267,-0.0063,-0.0361,0.0262,-0.0393,0.0987,-22.65,11.9813,40.4438,,adl
1.173607,0.0267,-0.0063,-0.0361,0.0262,-0.0393,0.0987,-22.5188,12.0938,40.6688,,adl
1.18093,0.0558,0.0021,-0.0427,0.0262,-0.0393,0.0987,-22.5188,12.0938,40.6688,,adl
1.181989,0.0558,0.0021,-0.0427,0.0266,-0.0666,0.127,-22.5188,12.0938,40.6688,,adl
1.201156,0.0558,0.0021,-0.0427,0.0266,-0.0666,0.127,-22.5188,12.0938,40.6688,,adl
1.234152,0.0558,0.0021,-0.0427,0.0266,-0.0666,0.127,-22.1438,12.5438,40.725,,adl
1.240382,0.0558,0.0021,-0.0427,0.012,-0.0092,0.1213,-22.1438,12.5438,40.725,,adl
1.261928,0.0558,0.0021,-0.0427,0.012,-0.0092,0.1213,-22.1438,12.5438,40.725,,adl
1.26368,0.0606,0.0314,0.0493,0.012,-0.0092,0.1213,-22.1438,12.5438,40.725,,adl
1.293953,0.0606,0.0314,0.0493,0.012,-0.0092,0.1213,-21.9563,12.7125,40.6875,,adl
1.302081,0.0606,0.0314,0.0493,0.0032,0.1248,0.0955,-21.9563,12.7125,40.6875,,adl
1.322759,0.0606,0.0314,0.0493,0.0032,0.1248,0.0955,-21.9563,12.7125,40.6875,,adl
1.324257,0.1098,0.0079,-0.0448,0.0032,0.1248,0.0955,-21.9563,12.7125,40.6875,,adl
1.353087,0.1098,0.0079,-0.0448,0.0032,0.1248,0.0955,-22.05,12.7688,40.5938,,adl
1.36205,0.1098,0.0079,-0.0448,0.0181,0.047,0.0422,-22.05,12.7688,40.5938,,adl
1.382854,0.1098,0.0079,-0.0448,0.0181,0.047,0.0422,-22.05,12.7688,40.5938,,adl
1.383342,-0.068,-0.0297,0.0317,0.0181,0.047,0.0422,-22.05,12.7688,40.5938,,adl
1.414291,-0.068,-0.0297,0.0317,0.0181,0.047,0.0422,-21.975,12.9,40.5375,,adl
1.424698,-0.068,-0.0297,0.0317,0.0435,-0.0254,-0.01,-21.975,12.9,40.5375,,adl
1.444454,-0.068,-0.0297,0.0317,0.0435,-0.0254,-0.01,-21.975,12.9,40.5375,,adl
1.464468,-0.1122,-0.0379,-0.0107,0.0435,-0.0254,-0.01,-21.975,12.9,40.5375,,adl
1.475016,-0.1122,-0.0379,-0.0107,0.0435,-0.0254,-0.01,-21.825,13.0688,40.575,,adl
1.484667,-0.1122,-0.0379,-0.0107,0.0561,-0.1217,-0.0313,-21.825,13.0688,40.575,,adl
1.505572,-0.1122,-0.0379,-0.0107,0.0561,-0.1217,-0.0313,-21.825,13.0688,40.575,,adl
1.525473,-0.0386,-0.0226,-0.0182,0.0561,-0.1217,-0.0313,-21.825,13.0688,40.575,,adl
1.534043,-0.0386,-0.0226,-0.0182,0.0561,-0.1217,-0.0313,-21.7125,13.1625,40.5563,,adl
1.547132,-0.0386,-0.0226,-0.0182,0.0213,-0.1824,-0.0594,-21.7125,13.1625,40.5563,,adl
1.564352,-0.0386,-0.0226,-0.0182,0.0213,-0.1824,-0.0594,-21.7125,13.1625,40.5563,,adl
1.587692,-0.1427,0.0236,0.1068,0.0213,-0.1824,-0.0594,-21.7125,13.1625,40.5563,,adl
1.593395,-0.1427,0.0236,0.1068,0.0213,-0.1824,-0.0594,-21.4875,13.2375,40.5563,,adl
1.606977,-0.1427,0.0236,0.1068,-0.0511,-0.2775,-0.0775,-21.4875,13.2375,40.5563,,adl
1.629077,-0.1427,0.0236,0.1068,-0.0511,-0.2775,-0.0775,-21.4875,13.2375,40.5563,,adl
1.648161,-0.1068,0.0276,0.1869,-0.0511,-0.2775,-0.0775,-21.4875,13.2375,40.5563,,adl
1.65456,-0.1068,0.0276,0.1869,-0.0511,-0.2775,-0.0775,-21.3563,13.2563,40.5375,,adl
1.668229,-0.1068,0.0276,0.1869,-0.119,-0.2338,-0.0991,-21.3563,13.2563,40.5375,,adl
1.687889,-0.1068,0.0276,0.1869,-0.119,-0.2338,-0.0991,-21.3563,13.2563,40.5375,,adl
1.714594,-0.1068,0.0276,0.1869,-0.119,-0.2338,-0.0991,-21.2625,13.2188,40.425,,adl
1.72852,-0.1068,0.0276,0.1869,-0.1459,-0.3077,-0.141,-21.2625,13.2188,40.425,,adl
1.729126,-0.0377,0.0171,0.0633,-0.1459,-0.3077,-0.141,-21.2625,13.2188,40.425,,adl
1.74885,-0.0377,0.0171,0.0633,-0.1459,-0.3077,-0.141,-21.2625,13.2188,40.425,,adl
1.773303,-0.0377,0.0171,0.0633,-0.1459,-0.3077,-0.141,-21.0,12.9375,40.875,,adl
1.789387,-0.0377,0.0171,0.0633,-0.1956,-0.3738,-0.1698,-21.0,12.9375,40.875,,adl
1.790316,-0.1003,-0.011,0.0554,-0.1956,-0.3738,-0.1698,-21.0,12.9375,40.875,,adl
1.80952,-0.1003,-0.011,0.0554,-0.1956,-0.3738,-0.1698,-21.0,12.9375,40.875,,adl
1.833774,-0.1003,-0.011,0.0554,-0.1956,-0.3738,-0.1698,-20.4,12.7688,41.025,,adl
1.850489,-0.1003,-0.011,0.0554,-0.2936,-0.5008,-0.2117,-20.4,12.7688,41.025,,adl
1.851951,-0.1098,0.0101,0.1633,-0.2936,-0.5008,-0.2117,-20.4,12.7688,41.025,,adl
1.871165,-0.1098,0.0101,0.1633,-0.2936,-0.5008,-0.2117,-20.4,12.7688,41.025,,adl
1.894801,-0.1098,0.0101,0.1633,-0.2936,-0.5008,-0.2117,-19.7438,12.4875,41.4188,,adl
1.912031,-0.1098,0.0101,0.1633,-0.441,-0.6623,-0.3036,-19.7438,12.4875,41.4188,,adl
1.931975,-0.1098,0.0101,0.1633,-0.441,-0.6623,-0.3036,-19.7438,12.4875,41.4188,,adl
1.932912,-0.4721,0.0054,0.5156,-0.441,-0.6623,-0.3036,-19.7438,12.4875,41.4188,,adl
1.954849,-0.4721,0.0054,0.5156,-0.441,-0.6623,-0.3036,-19.05,11.8125,41.8313,,adl
1.971677,-0.4721,0.0054,0.5156,-0.6593,-0.6364,-0.228,-19.05,11.8125,41.8313,,adl
1.992719,-0.4721,0.0054,0.5156,-0.6593,-0.6364,-0.228,-19.05,11.8125,41.8313,,adl
1.994962,-0.3942,0.0247,0.5402,-0.6593,-0.6364,-0.228,-19.05,11.8125,41.8313,,adl
2.013462,-0.3942,0.0247,0.5402,-0.6593,-0.6364,-0.228,-18.0938,10.95,42.375,,adl
2.034092,-0.3942,0.0247,0.5402,-1.1219,-0.253,-0.0459,-18.0938,10.95,42.375,,adl
2.054747,0.1375,0.2194,0.7866,-1.1219,-0.253,-0.0459,-18.0938,10.95,42.375,,adl
2.055987,0.1375,0.2194,0.7866,-1.1219,-0.253,-0.0459,-18.0938,10.95,42.375,,adl
2.073785,0.1375,0.2194,0.7866,-1.1219,-0.253,-0.0459,-17.2125,9.75,42.9375,,adl
2.094492,0.1375,0.2194,0.7866,-1.2,-0.651,0.0233,-17.2125,9.75,42.9375,,adl
2.114159,0.1375,0.2194,0.7866,-1.2,-0.651,0.0233,-17.2125,9.75,42.9375,,adl
2.115096,0.1027,-0.3913,1.7018,-1.2,-0.651,0.0233,-17.2125,9.75,42.9375,,adl
2.134803,0.1027,-0.3913,1.7018,-1.2,-0.651,0.0233,-15.9375,8.25,43.4813,,adl
2.155713,0.1027,-0.3913,1.7018,-0.5418,-0.957,-0.0846,-15.9375,8.25,43.4813,,adl
2.175422,0.1027,-0.3913,1.7018,-0.5418,-0.957,-0.0846,-15.9375,8.25,43.4813,,adl
2.194714,-0.1564,-1.3231,1.1282,-0.5418,-0.957,-0.0846,-15.9375,8.25,43.4813,,adl
2.195526,-0.1564,-1.3231,1.1282,-0.5418,-0.957,-0.0846,-14.25,6.5813,44.1,,adl
2.2156,-0.1564,-1.3231,1.1282,0.0539,-3.475,-0.0033,-14.25,6.5813,44.1,,adl
2.236659,-0.1564,-1.3231,1.1282,0.0539,-3.475,-0.0033,-14.25,6.5813,44.1,,adl
2.254723,-0.1564,-1.3231,1.1282,0.0539,-3.475,-0.0033,-11.475,5.2313,44.475,,adl
2.255793,-1.5099,-0.2858,1.6683,0.0539,-3.475,-0.0033,-11.475,5.2313,44.475,,adl
2.27683,-1.5099,-0.2858,1.6683,0.3177,-3.9873,-0.261,-11.475,5.2313,44.475,,adl
2.297221,-1.5099,-0.2858,1.6683,0.3177,-3.9873,-0.261,-11.475,5.2313,44.475,,adl
2.311963,-1.5099,-0.2858,1.6683,0.3177,-3.9873,-0.261,-7.5,4.05,44.3813,,adl
2.317064,-0.8397,-0.1997,1.3218,0.3177,-3.9873,-0.261,-7.5,4.05,44.3813,,adl
2.33663,-0.8397,-0.1997,1.3218,0.5438,-3.0146,-0.1246,-7.5,4.05,44.3813,,adl
2.358989,-0.8397,-0.1997,1.3218,0.5438,-3.0146,-0.1246,-7.5,4.05,44.3813,,adl
2.373562,-0.8397,-0.1997,1.3218,0.5438,-3.0146,-0.1246,-2.9625,3.2063,44.175,,adl
2.3988,-0.8397,-0.1997,1.3218,0.8409,-1.4071,-0.3298,-2.9625,3.2063,44.175,,adl
2.39976,-0.0759,-0.5604,1.6695,0.8409,-1.4071,-0.3298,-2.9625,3.2063,44.175,,adl
2.41804,-0.0759,-0.5604,1.6695,0.8409,-1.4071,-0.3298,-2.9625,3.2063,44.175,,adl
2.433067,-0.0759,-0.5604,1.6695,0.8409,-1.4071,-0.3298,1.6313,2.9062,43.4813,,adl
2.460556,0.6027,-0.4135,1.2097,0.8409,-1.4071,-0.3298,1.6313,2.9062,43.4813,,adl
2.461623,0.6027,-0.4135,1.2097,1.3518,-0.3971,-0.5414,1.6313,2.9062,43.4813,,adl
2.4799,0.6027,-0.4135,1.2097,1.3518,-0.3971,-0.5414,1.6313,2.9062,43.4813,,adl
2.493445,0.6027,-0.4135,1.2097,1.3518,-0.3971,-0.5414,5.9625,3.225,42.45,,adl
2.520088,-0.4331,-0.4241,0.2435,1.3518,-0.3971,-0.5414,5.9625,3.225,42.45,,adl
2.521085,-0.4331,-0.4241,0.2435,1.8221,-0.6843,-0.6341,5.9625,3.225,42.45,,adl
2.541332,-0.4331,-0.4241,0.2435,1.8221,-0.6843,-0.6341,5.9625,3.225,42.45,,adl
2.553708,-0.4331,-0.4241,0.2435,1.8221,-0.6843,-0.6341,10.5188,4.575,41.4,,adl
2.581416,-0.4331,-0.4241,0.2435,2.1147,-1.6386,-0.8099,10.5188,4.575,41.4,,adl
2.58309,-1.1442,-0.8753,-1.5712,2.1147,-1.6386,-0.8099,10.5188,4.575,41.4,,adl
2.601203,-1.1442,-0.8753,-1.5712,2.1147,-1.6386,-0.8099,10.5188,4.575,41.4,,adl
2.61407,-1.1442,-0.8753,-1.5712,2.1147,-1.6386,-0.8099,15.0375,6.9,39.4875,,adl
2.642666,-1.1442,-0.8753,-1.5712,1.9975,-3.2144,-0.9537,15.0375,6.9,39.4875,,adl
2.664277,-1.1442,-0.8753,-1.5712,1.9975,-3.2144,-0.9537,15.0375,6.9,39.4875,,adl
2.665285,-2.3947,-1.0688,-3.8881,1.9975,-3.2144,-0.9537,15.0375,6.9,39.4875,,adl
2.672604,-2.3947,-1.0688,-3.8881,1.9975,-3.2144,-0.9537,19.575,9.9563,36.675,,adl
2.702118,-2.3947,-1.0688,-3.8881,0.8888,-3.0024,0.038,19.575,9.9563,36.675,,adl
2.72356,-2.3947,-1.0688,-3.8881,0.8888,-3.0024,0.038,19.575,9.9563,36.675,,adl
2.724278,-4.7588,-0.4497,-6.7323,0.8888,-3.0024,0.038,19.575,9.9563,36.675,,adl
2.734648,-4.7588,-0.4497,-6.7323,0.8888,-3.0024,0.038,23.5125,12.9938,33.1875,,adl
2.764247,-4.7588,-0.4497,-6.7323,0.2449,-1.9532,-0.1442,23.5125,12.9938,33.1875,,adl
2.784369,-4.7588,-0.4497,-6.7323,0.2449,-1.9532,-0.1442,23.5125,12.9938,33.1875,,adl
2.785667,-5.6118,0.2363,-6.5217,0.2449,-1.9532,-0.1442,23.5125,12.9938,33.1875,,adl
2.793412,-5.6118,0.2363,-6.5217,0.2449,-1.9532,-0.1442,26.25,15.9938,29.8125,,adl
2.825498,-5.6118,0.2363,-6.5217,0.1221,-0.3286,-1.0675,26.25,15.9938,29.8125,,adl
2.844846,-5.6118,0.2363,-6.5217,0.1221,-0.3286,-1.0675,26.25,15.9938,29.8125,,adl
2.853838,-5.6118,0.2363,-6.5217,0.1221,-0.3286,-1.0675,28.1813,18.9563,26.3063,,adl
2.865833,4.1609,-0.3385,-0.6946,0.1221,-0.3286,-1.0675,28.1813,18.9563,26.3063,,adl
2.88527,4.1609,-0.3385,-0.6946,-0.1609,-0.2577,0.8679,28.1813,18.9563,26.3063,,adl
2.90582,4.1609,-0.3385,-0.6946,-0.1609,-0.2577,0.8679,28.1813,18.9563,26.3063,,adl
2.912209,4.1609,-0.3385,-0.6946,-0.1609,-0.2577,0.8679,30.0,21.3375,23.3625,,adl
2.926744,-1.935,-3.342,0.9006,-0.1609,-0.2577,0.8679,30.0,21.3375,23.3625,,adl
2.947202,-1.935,-3.342,0.9006,-0.2454,-0.022,0.8211,30.0,21.3375,23.3625,,adl
2.967383,-1.935,-3.342,0.9006,-0.2454,-0.022,0.8211,30.0,21.3375,23.3625,,adl
2.976437,-1.935,-3.342,0.9006,-0.2454,-0.022,0.8211,32.025,23.2688,20.6063,,adl
2.987345,1.7306,1.0547,0.3639,-0.2454,-0.022,0.8211,32.025,23.2688,20.6063,,adl
3.008327,1.7306,1.0547,0.3639,-0.2546,-0.1675,0.4639,32.025,23.2688,20.6063,,adl
3.028233,1.7306,1.0547,0.3639,-0.2546,-0.1675,0.4639,32.025,23.2688,20.6063,,adl
3.033937,1.7306,1.0547,0.3639,-0.2546,-0.1675,0.4639,33.8813,24.3,17.8875,,adl
3.047904,0.4562,0.4613,0.7263,-0.2546,-0.1675,0.4639,33.8813,24.3,17.8875,,adl
3.067751,0.4562,0.4613,0.7263,-0.3675,-0.0474,0.3748,33.8813,24.3,17.8875,,adl
3.089013,0.4562,0.4613,0.7263,-0.3675,-0.0474,0.3748,33.8813,24.3,17.8875,,adl
3.093692,0.4562,0.4613,0.7263,-0.3675,-0.0474,0.3748,35.1375,24.4125,15.825,,adl
3.131617,0.4562,0.4613,0.7263,-0.3891,-0.1409,0.3723,35.1375,24.4125,15.825,,adl
3.133126,0.4997,0.2938,0.8069,-0.3891,-0.1409,0.3723,35.1375,24.4125,15.825,,adl
3.155884,0.4997,0.2938,0.8069,-0.3891,-0.1409,0.3723,35.1375,24.4125,15.825,,adl
3.156983,0.4997,0.2938,0.8069,-0.3891,-0.1409,0.3723,36.0,23.925,14.6438,,adl
3.189222,0.4997,0.2938,0.8069,-0.3718,-0.0826,0.2924,36.0,23.925,14.6438,,adl
3.190489,0.8955,0.1762,0.5116,-0.3718,-0.0826,0.2924,36.0,23.925,14.6438,,adl
3.214242,0.8955,0.1762,0.5116,-0.3718,-0.0826,0.2924,36.0,23.925,14.6438,,adl
3.215347,0.8955,0.1762,0.5116,-0.3718,-0.0826,0.2924,36.3375,23.3063,14.0813,,adl
3.255685,0.8955,0.1762,0.5116,-0.4577,-0.0124,0.2666,36.3375,23.3063,14.0813,,adl
3.257019,0.3487,0.083,0.5254,-0.4577,-0.0124,0.2666,36.3375,23.3063,14.0813,,adl
3.272414,0.3487,0.083,0.5254,-0.4577,-0.0124,0.2666,36.3375,23.3063,14.0813,,adl
3.27358,0.3487,0.083,0.5254,-0.4577,-0.0124,0.2666,36.825,22.5,13.9688,,adl
3.314048,0.3487,0.083,0.5254,-0.5985,0.0214,0.2619,36.825,22.5,13.9688,,adl
3.339037,0.3487,0.083,0.5254,-0.5985,0.0214,0.2619,36.825,22.5,13.9688,,adl
3.339972,0.3487,0.083,0.5254,-0.5985,0.0214,0.2619,37.1625,21.1688,14.0438,,adl
3.340938,0.3657,0.1605,0.8363,-0.5985,0.0214,0.2619,37.1625,21.1688,14.0438,,adl
3.373019,0.3657,0.1605,0.8363,-0.7249,0.0129,0.2921,37.1625,21.1688,14.0438,,adl
3.393989,0.3657,0.1605,0.8363,-0.7249,0.0129,0.2921,37.425,20.1,14.025,,adl
3.394915,0.3657,0.1605,0.8363,-0.7249,0.0129,0.2921,37.425,20.1,14.025,,adl
3.395196,0.3741,0.1115,0.6992,-0.7249,0.0129,0.2921,37.425,20.1,14.025,,adl
3.43399,0.3741,0.1115,0.6992,-0.7619,-0.0035,0.2221,37.425,20.1,14.025,,adl
3.455764,0.3741,0.1115,0.6992,-0.7619,-0.0035,0.2221,37.5563,18.9,14.0625,,adl
3.45659,0.4506,-0.0557,0.3194,-0.7619,-0.0035,0.2221,37.5563,18.9,14.0625,,adl
3.456928,0.4506,-0.0557,0.3194,-0.7619,-0.0035,0.2221,37.5563,18.9,14.0625,,adl
3.495178,0.4506,-0.0557,0.3194,-0.8059,-0.0368,0.0443,37.5563,18.9,14.0625,,adl
3.51384,0.4506,-0.0557,0.3194,-0.8059,-0.0368,0.0443,37.725,17.9438,14.1563,,adl
3.514745,0.4506,-0.0557,0.3194,-0.8059,-0.0368,0.0443,37.725,17.9438,14.1563,,adl
3.515029,0.444,-0.4407,0.1511,-0.8059,-0.0368,0.0443,37.725,17.9438,14.1563,,adl
3.5553,0.444,-0.4407,0.1511,-0.8666,-0.3165,-0.1414,37.725,17.9438,14.1563,,adl
3.574536,0.444,-0.4407,0.1511,-0.8666,-0.3165,-0.1414,38.1375,17.1375,14.2313,,adl
3.575868,0.444,-0.4407,0.1511,-0.8666,-0.3165,-0.1414,38.1375,17.1375,14.2313,,adl
3.595621,0.4812,-0.6065,0.3716,-0.8666,-0.3165,-0.1414,38.1375,17.1375,14.2313,,adl
3.617227,0.4812,-0.6065,0.3716,-1.1464,-0.2406,-0.1244,38.1375,17.1375,14.2313,,adl
3.63398,0.4812,-0.6065,0.3716,-1.1464,-0.2406,-0.1244,38.5125,15.9938,14.5875,,adl
3.636001,0.4812,-0.6065,0.3716,-1.1464,-0.2406,-0.1244,38.5125,15.9938,14.5875,,adl
3.658127,0.5074,-1.267,1.4039,-1.1464,-0.2406,-0.1244,38.5125,15.9938,14.5875,,adl
3.677952,0.5074,-1.267,1.4039,-1.3946,0.1009,0.1483,38.5125,15.9938,14.5875,,adl
3.694669,0.5074,-1.267,1.4039,-1.3946,0.1009,0.1483,39.0,14.85,15.1875,,adl
3.698683,0.5074,-1.267,1.4039,-1.3946,0.1009,0.1483,39.0,14.85,15.1875,,adl
3.718276,0.1424,-0.8349,2.1461,-1.3946,0.1009,0.1483,39.0,14.85,15.1875,,adl
3.738797,0.1424,-0.8349,2.1461,-1.5589,-0.1411,0.3478,39.0,14.85,15.1875,,adl
3.75514,0.1424,-0.8349,2.1461,-1.5589,-0.1411,0.3478,39.225,13.2563,15.8438,,adl
3.757785,0.1424,-0.8349,2.1461,-1.5589,-0.1411,0.3478,39.225,13.2563,15.8438,,adl
3.800238,0.1424,-0.8349,2.1461,-0.8461,-1.8324,1.191,39.225,13.2563,15.8438,,adl
3.804782,-0.2492,-1.4542,4.105,-0.8461,-1.8324,1.191,39.225,13.2563,15.8438,,adl
3.81391,-0.2492,-1.4542,4.105,-0.8461,-1.8324,1.191,39.8063,11.6438,15.975,,adl
3.820287,-0.2492,-1.4542,4.105,-0.8461,-1.8324,1.191,39.8063,11.6438,15.975,,adl
3.861148,-0.2492,-1.4542,4.105,0.6954,-4.8567,0.2736,39.8063,11.6438,15.975,,adl
3.865164,-0.8839,-1.6922,3.2348,0.6954,-4.8567,0.2736,39.8063,11.6438,15.975,,adl
3.874229,-0.8839,-1.6922,3.2348,0.6954,-4.8567,0.2736,40.8188,9.9,14.5688,,adl
3.880653,-0.8839,-1.6922,3.2348,0.6954,-4.8567,0.2736,40.8188,9.9,14.5688,,adl
3.921612,-0.8839,-1.6922,3.2348,1.2116,-0.4447,-1.2533,40.8188,9.9,14.5688,,adl
3.923551,1.4272,0.3061,3.6683,1.2116,-0.4447,-1.2533,40.8188,9.9,14.5688,,adl
3.934207,1.4272,0.3061,3.6683,1.2116,-0.4447,-1.2533,41.7375,8.9062,12.9563,,adl
3.940672,1.4272,0.3061,3.6683,1.2116,-0.4447,-1.2533,41.7375,8.9062,12.9563,,adl
3.982197,1.4272,0.3061,3.6683,1.8221,1.6317,-0.9241,41.7375,8.9062,12.9563,,adl
3.984032,3.8881,2.1933,1.1094,1.8221,1.6317,-0.9241,41.7375,8.9062,12.9563,,adl
3.994626,3.8881,2.1933,1.1094,1.8221,1.6317,-0.9241,42.525,8.3813,11.6625,,adl
4.001592,3.8881,2.1933,1.1094,1.8221,1.6317,-0.9241,42.525,8.3813,11.6625,,adl
4.043841,3.8881,2.1933,1.1094,3.0058,-0.2398,-1.5024,42.525,8.3813,11.6625,,adl
4.054281,3.8881,2.1933,1.1094,3.0058,-0.2398,-1.5024,43.3313,8.7563,10.3313,,adl
4.063771,3.8881,2.1933,1.1094,3.0058,-0.2398,-1.5024,43.3313,8.7563,10.3313,,adl
4.06458,-1.4234,-1.7127,-0.7048,3.0058,-0.2398,-1.5024,43.3313,8.7563,10.3313,,adl
4.105191,-1.4234,-1.7127,-0.7048,2.3798,1.1642,-1.4832,43.3313,8.7563,10.3313,,adl
4.11394,-1.4234,-1.7127,-0.7048,2.3798,1.1642,-1.4832,43.7812,10.4438,8.4563,,adl
4.125099,-1.4234,-1.7127,-0.7048,2.3798,1.1642,-1.4832,43.7812,10.4438,8.4563,,adl
4.126533,-1.4662,-2.3281,-4.5653,2.3798,1.1642,-1.4832,43.7812,10.4438,8.4563,,adl
4.164841,-1.4662,-2.3281,-4.5653,1.7554,1.9686,-1.1758,43.7812,10.4438,8.4563,,adl
4.173898,-1.4662,-2.3281,-4.5653,1.7554,1.9686,-1.1758,44.0438,12.7125,6.4313,,adl
4.185103,-1.4662,-2.3281,-4.5653,1.7554,1.9686,-1.1758,44.0438,12.7125,6.4313,,adl
4.186045,0.9222,-1.6654,-5.9088,1.7554,1.9686,-1.1758,44.0438,12.7125,6.4313,,adl
4.226181,0.9222,-1.6654,-5.9088,1.0685,1.5703,-0.7988,44.0438,12.7125,6.4313,,adl
4.232734,0.9222,-1.6654,-5.9088,1.0685,1.5703,-0.7988,44.4938,15.0563,4.6875,,adl
4.246177,0.9222,-1.6654,-5.9088,1.0685,1.5703,-0.7988,44.4938,15.0563,4.6875,,adl
4.266498,-0.9953,-1.1149,-6.4635,1.0685,1.5703,-0.7988,44.4938,15.0563,4.6875,,adl
4.287165,-0.9953,-1.1149,-6.4635,0.5108,0.1024,-0.3021,44.4938,15.0563,4.6875,,adl
4.293857,-0.9953,-1.1149,-6.4635,0.5108,0.1024,-0.3021,44.1188,18.375,2.8125,,adl
4.307351,-0.9953,-1.1149,-6.4635,0.5108,0.1024,-0.3021,44.1188,18.375,2.8125,,adl
4.328288,-2.1151,-0.6496,-6.2486,0.5108,0.1024,-0.3021,44.1188,18.375,2.8125,,adl
4.348394,-2.1151,-0.6496,-6.2486,-0.1158,-0.7894,0.1117,44.1188,18.375,2.8125,,adl
4.354924,-2.1151,-0.6496,-6.2486,-0.1158,-0.7894,0.1117,43.35,21.6562,2.325,,adl
4.36794,-2.1151,-0.6496,-6.2486,-0.1158,-0.7894,0.1117,43.35,21.6562,2.325,,adl
4.388381,-2.0455,0.2267,-5.0203,-0.1158,-0.7894,0.1117,43.35,21.6562,2.325,,adl
4.407682,-2.0455,0.2267,-5.0203,-0.0415,-0.2498,-0.1491,43.35,21.6562,2.325,,adl
4.413711,-2.0455,0.2267,-5.0203,-0.0415,-0.2498,-0.1491,42.6375,24.6563,1.9125,,adl
4.428855,-2.0455,0.2267,-5.0203,-0.0415,-0.2498,-0.1491,42.6375,24.6563,1.9125,,adl
4.449672,2.5222,-1.1772,1.8781,-0.0415,-0.2498,-0.1491,42.6375,24.6563,1.9125,,adl
4.469183,2.5222,-1.1772,1.8781,-0.1602,-1.0039,0.5196,42.6375,24.6563,1.9125,,adl
4.47405,2.5222,-1.1772,1.8781,-0.1602,-1.0039,0.5196,41.925,26.925,0.75,,adl
4.490086,2.5222,-1.1772,1.8781,-0.1602,-1.0039,0.5196,41.925,26.925,0.75,,adl
4.530638,-1.2808,-1.3199,-0.199,-0.1602,-1.0039,0.5196,41.925,26.925,0.75,,adl
4.532568,-1.2808,-1.3199,-0.199,-0.3739,0.0449,0.6904,41.925,26.925,0.75,,adl
4.533612,-1.2808,-1.3199,-0.199,-0.3739,0.0449,0.6904,41.3063,28.3313,-0.2438,,adl
4.553377,-1.2808,-1.3199,-0.199,-0.3739,0.0449,0.6904,41.3063,28.3313,-0.2438,,adl
4.591585,-1.2808,-1.3199,-0.199,-0.2898,-0.1348,0.3495,41.3063,28.3313,-0.2438,,adl
4.593911,1.0494,0.9132,1.983,-0.2898,-0.1348,0.3495,41.3063,28.3313,-0.2438,,adl
4.595411,1.0494,0.9132,1.983,-0.2898,-0.1348,0.3495,41.0625,28.5375,-0.9188,,adl
4.611906,1.0494,0.9132,1.983,-0.2898,-0.1348,0.3495,41.0625,28.5375,-0.9188,,adl
4.652808,1.0494,0.9132,1.983,-0.4136,0.1726,0.2342,41.0625,28.5375,-0.9188,,adl
4.655128,0.2444,-0.1599,0.3217,-0.4136,0.1726,0.2342,41.0625,28.5375,-0.9188,,adl
4.656128,0.2444,-0.1599,0.3217,-0.4136,0.1726,0.2342,40.9313,28.275,-1.5188,,adl
4.672878,0.2444,-0.1599,0.3217,-0.4136,0.1726,0.2342,40.9313,28.275,-1.5188,,adl
4.713079,0.2444,-0.1599,0.3217,-0.5216,0.2593,0.22,40.9313,28.275,-1.5188,,adl
4.715401,0.2444,-0.1599,0.3217,-0.5216,0.2593,0.22,41.1375,27.7313,-1.95,,adl
4.734791,0.1937,0.4284,1.4636,-0.5216,0.2593,0.22,41.1375,27.7313,-1.95,,adl
4.736361,0.1937,0.4284,1.4636,-0.5216,0.2593,0.22,41.1375,27.7313,-1.95,,adl
4.776236,0.1937,0.4284,1.4636,-0.5216,0.2593,0.22,41.3625,26.8875,-2.1375,,adl
4.778678,0.1937,0.4284,1.4636,-0.485,0.2618,0.2029,41.3625,26.8875,-2.1375,,adl
4.795534,0.1937,0.4284,1.4636,-0.485,0.2618,0.2029,41.3625,26.8875,-2.1375,,adl
4.796816,0.2276,0.2976,1.0898,-0.485,0.2618,0.2029,41.3625,26.8875,-2.1375,,adl
4.8375,0.2276,0.2976,1.0898,-0.4519,0.2013,0.1959,41.3625,26.8875,-2.1375,,adl
4.840503,0.2276,0.2976,1.0898,-0.4519,0.2013,0.1959,41.7,26.2313,-2.0625,,adl
4.8562,0.2276,0.2976,1.0898,-0.4519,0.2013,0.1959,41.7,26.2313,-2.0625,,adl
4.857113,0.3824,0.0922,0.7703,-0.4519,0.2013,0.1959,41.7,26.2313,-2.0625,,adl
4.8968,0.3824,0.0922,0.7703,-0.4519,0.2013,0.1959,42.0188,25.4438,-1.5938,,adl
4.899127,0.3824,0.0922,0.7703,-0.4555,0.3991,0.083,42.0188,25.4438,-1.5938,,adl
4.916163,0.3824,0.0922,0.7703,-0.4555,0.3991,0.083,42.0188,25.4438,-1.5938,,adl
4.91757,-0.0047,-0.0014,0.6287,-0.4555,0.3991,0.083,42.0188,25.4438,-1.5938,,adl
4.954864,-0.0047,-0.0014,0.6287,-0.4555,0.3991,0.083,42.3938,24.825,-0.525,,adl
4.956641,-0.0047,-0.0014,0.6287,-0.5915,0.8542,0.1916,42.3938,24.825,-0.525,,adl
4.977376,-0.0047,-0.0014,0.6287,-0.5915,0.8542,0.1916,42.3938,24.825,-0.525,,adl
4.99778,0.5308,0.1738,0.5304,-0.5915,0.8542,0.1916,42.3938,24.825,-0.525,,adl
5.013928,0.5308,0.1738,0.5304,-0.5915,0.8542,0.1916,42.7313,24.1875,0.9563,,adl
5.017153,0.5308,0.1738,0.5304,-0.606,1.1105,0.1763,42.7313,24.1875,0.9563,,adl
5.038585,0.5308,0.1738,0.5304,-0.606,1.1105,0.1763,42.7313,24.1875,0.9563,,adl
5.058017,0.1517,-0.0037,0.5373,-0.606,1.1105,0.1763,42.7313,24.1875,0.9563,,adl
5.075009,0.1517,-0.0037,0.5373,-0.606,1.1105,0.1763,42.825,23.4938,2.7188,,adl
5.077315,0.1517,-0.0037,0.5373,-0.3696,0.5099,0.0599,42.825,23.4938,2.7188,,adl
5.100392,0.1517,-0.0037,0.5373,-0.3696,0.5099,0.0599,42.825,23.4938,2.7188,,adl
5.119073,-1.2136,-0.0151,1.7316,-0.3696,0.5099,0.0599,42.825,23.4938,2.7188,,adl
5.135361,-1.2136,-0.0151,1.7316,-0.3696,0.5099,0.0599,42.8625,22.9313,4.4625,,adl
5.138257,-1.2136,-0.0151,1.7316,-0.4796,0.2539,-0.0334,42.8625,22.9313,4.4625,,adl
5.160408,-1.2136,-0.0151,1.7316,-0.4796,0.2539,-0.0334,42.8625,22.9313,4.4625,,adl
5.194798,-1.2136,-0.0151,1.7316,-0.4796,0.2539,-0.0334,43.0875,22.4813,6.3375,,adl
5.200854,-1.2136,-0.0151,1.7316,-0.8048,0.3462,0.1735,43.0875,22.4813,6.3375,,adl
5.203022,0.5551,-0.0066,0.181,-0.8048,0.3462,0.1735,43.0875,22.4813,6.3375,,adl
5.220635,0.5551,-0.0066,0.181,-0.8048,0.3462,0.1735,43.0875,22.4813,6.3375,,adl
5.254897,0.5551,-0.0066,0.181,-0.8048,0.3462,0.1735,43.2375,21.9375,8.325,,adl
5.261462,0.5529,-0.0163,0.6157,-0.8048,0.3462,0.1735,43.2375,21.9375,8.325,,adl
5.263283,0.5529,-0.0163,0.6157,-1.1255,0.6104,0.1842,43.2375,21.9375,8.325,,adl
5.283172,0.5529,-0.0163,0.6157,-1.1255,0.6104,0.1842,43.2375,21.9375,8.325,,adl
5.314212,0.5529,-0.0163,0.6157,-1.1255,0.6104,0.1842,43.0875,21.1313,10.3875,,adl
5.322932,0.5529,-0.0163,0.6157,-1.1928,0.6051,0.4678,43.0875,21.1313,10.3875,,adl
5.324196,0.778,-0.7219,0.79,-1.1928,0.6051,0.4678,43.0875,21.1313,10.3875,,adl
5.342266,0.778,-0.7219,0.79,-1.1928,0.6051,0.4678,43.0875,21.1313,10.3875,,adl
5.374759,0.778,-0.7219,0.79,-1.1928,0.6051,0.4678,43.0125,19.9875,12.4313,,adl
5.38267,0.1792,-1.5285,2.3146,-1.1928,0.6051,0.4678,43.0125,19.9875,12.4313,,adl
5.383955,0.1792,-1.5285,2.3146,-1.0004,-0.0929,0.7237,43.0125,19.9875,12.4313,,adl
5.40381,0.1792,-1.5285,2.3146,-1.0004,-0.0929,0.7237,43.0125,19.9875,12.4313,,adl
5.434565,0.1792,-1.5285,2.3146,-1.0004,-0.0929,0.7237,42.9563,18.375,14.55,,adl
5.443962,0.1792,-1.5285,2.3146,-1.189,0.593,0.9619,42.9563,18.375,14.55,,adl
5.46408,0.1792,-1.5285,2.3146,-1.189,0.593,0.9619,42.9563,18.375,14.55,,adl
5.465293,0.784,-1.4486,1.9682,-1.189,0.593,0.9619,42.9563,18.375,14.55,,adl
5.4946,0.784,-1.4486,1.9682,-1.189,0.593,0.9619,42.7875,16.4062,16.2188,,adl
5.50444,0.784,-1.4486,1.9682,-0.7313,0.2397,0.3791,42.7875,16.4062,16.2188,,adl
5.525285,0.784,-1.4486,1.9682,-0.7313,0.2397,0.3791,42.7875,16.4062,16.2188,,adl
5.52689,1.1842,-0.0973,2.4791,-0.7313,0.2397,0.3791,42.7875,16.4062,16.2188,,adl
5.554499,1.1842,-0.0973,2.4791,-0.7313,0.2397,0.3791,43.1625,14.325,18.075,,adl
5.566035,1.1842,-0.0973,2.4791,0.3844,-0.2153,-0.4719,43.1625,14.325,18.075,,adl
5.587198,1.1842,-0.0973,2.4791,0.3844,-0.2153,-0.4719,43.1625,14.325,18.075,,adl
5.588547,-0.0867,0.6469,3.418,0.3844,-0.2153,-0.4719,43.1625,14.325,18.075,,adl
5.613309,-0.0867,0.6469,3.418,0.3844,-0.2153,-0.4719,43.2375,12.6938,19.1813,,adl
5.625713,-0.0867,0.6469,3.418,1.0533,0.3501,-0.774,43.2375,12.6938,19.1813,,adl
5.647537,-0.0867,0.6469,3.418,1.0533,0.3501,-0.774,43.2375,12.6938,19.1813,,adl
5.667066,0.8355,0.4136,2.2424,1.0533,0.3501,-0.774,43.2375,12.6938,19.1813,,adl
5.673524,0.8355,0.4136,2.2424,1.0533,0.3501,-0.774,43.0312,11.2688,19.95,,adl
5.687256,0.8355,0.4136,2.2424,1.6847,0.9771,-0.8187,43.0312,11.2688,19.95,,adl
5.707783,0.8355,0.4136,2.2424,1.6847,0.9771,-0.8187,43.0312,11.2688,19.95,,adl
5.727892,0.1036,0.1067,-0.2079,1.6847,0.9771,-0.8187,43.0312,11.2688,19.95,,adl
5.733807,0.1036,0.1067,-0.2079,1.6847,0.9771,-0.8187,42.9563,10.5188,20.8125,,adl
5.748781,0.1036,0.1067,-0.2079,1.6954,1.19,-0.6469,42.9563,10.5188,20.8125,,adl
5.768988,0.1036,0.1067,-0.2079,1.6954,1.19,-0.6469,42.9563,10.5188,20.8125,,adl
5.788884,-0.6862,-0.844,-3.1634,1.6954,1.19,-0.6469,42.9563,10.5188,20.8125,,adl
5.794256,-0.6862,-0.844,-3.1634,1.6954,1.19,-0.6469,42.6375,10.2188,21.75,,adl
5.809016,-0.6862,-0.844,-3.1634,1.2609,1.4673,-0.2589,42.6375,10.2188,21.75,,adl
5.829615,-0.6862,-0.844,-3.1634,1.2609,1.4673,-0.2589,42.6375,10.2188,21.75,,adl
5.85003,-0.4185,-0.4227,-4.3192,1.2609,1.4673,-0.2589,42.6375,10.2188,21.75,,adl
5.852977,-0.4185,-0.4227,-4.3192,1.2609,1.4673,-0.2589,42.1688,10.6313,23.1938,,adl
5.870079,-0.4185,-0.4227,-4.3192,1.1189,0.6245,-0.216,42.1688,10.6313,23.1938,,adl
5.890309,-0.4185,-0.4227,-4.3192,1.1189,0.6245,-0.216,42.1688,10.6313,23.1938,,adl
5.914142,-0.4185,-0.4227,-4.3192,1.1189,0.6245,-0.216,41.3813,11.925,24.2813,,adl
5.931208,-0.4185,-0.4227,-4.3192,1.0003,0.0391,-0.4123,41.3813,11.925,24.2813,,adl
5.933089,-1.0736,-0.285,-4.2387,1.0003,0.0391,-0.4123,41.3813,11.925,24.2813,,adl
5.951889,-1.0736,-0.285,-4.2387,1.0003,0.0391,-0.4123,41.3813,11.925,24.2813,,adl
5.975889,-1.0736,-0.285,-4.2387,1.0003,0.0391,-0.4123,40.65,13.9688,25.2938,,adl
5.992248,-1.0736,-0.285,-4.2387,0.8946,-0.7444,-0.5621,40.65,13.9688,25.2938,,adl
5.993607,-0.1756,0.7633,-3.5814,0.8946,-0.7444,-0.5621,40.65,13.9688,25.2938,,adl
6.013083,-0.1756,0.7633,-3.5814,0.8946,-0.7444,-0.5621,40.65,13.9688,25.2938,,adl
6.033976,-0.1756,0.7633,-3.5814,0.8946,-0.7444,-0.5621,40.1813,16.7438,26.0063,,adl
6.05488,-1.0384,0.0522,-2.753,0.8946,-0.7444,-0.5621,40.1813,16.7438,26.0063,,adl
6.056398,-1.0384,0.0522,-2.753,0.6485,-1.1196,-0.5237,40.1813,16.7438,26.0063,,adl
6.073217,-1.0384,0.0522,-2.753,0.6485,-1.1196,-0.5237,40.1813,16.7438,26.0063,,adl
6.096304,-1.0384,0.0522,-2.753,0.6485,-1.1196,-0.5237,39.6562,19.2563,26.2313,,adl
6.114643,-1.0384,0.0522,-2.753,0.1398,-0.761,-0.1289,39.6562,19.2563,26.2313,,adl
6.134833,-1.0384,0.0522,-2.753,0.1398,-0.761,-0.1289,39.6562,19.2563,26.2313,,adl
6.136997,-0.8106,-0.3537,-2.184,0.1398,-0.761,-0.1289,39.6562,19.2563,26.2313,,adl
6.154526,-0.8106,-0.3537,-2.184,0.1398,-0.761,-0.1289,39.4313,21.6,26.3438,,adl
6.175609,-0.8106,-0.3537,-2.184,0.1519,-1.0968,0.0489,39.4313,21.6,26.3438,,adl
6.195644,-0.8106,-0.3537,-2.184,0.1519,-1.0968,0.0489,39.4313,21.6,26.3438,,adl
6.197258,-0.7848,-0.4063,-1.8601,0.1519,-1.0968,0.0489,39.4313,21.6,26.3438,,adl
6.214427,-0.7848,-0.4063,-1.8601,0.1519,-1.0968,0.0489,39.4125,23.8875,25.8375,,adl
6.234991,-0.7848,-0.4063,-1.8601,0.1479,0.0537,-0.1489,39.4125,23.8875,25.8375,,adl
6.255582,-0.7848,-0.4063,-1.8601,0.1479,0.0537,-0.1489,39.4125,23.8875,25.8375,,adl
6.257028,3.7003,-1.0188,4.2657,0.1479,0.0537,-0.1489,39.4125,23.8875,25.8375,,adl
6.274917,3.7003,-1.0188,4.2657,0.1479,0.0537,-0.1489,39.6938,25.8563,24.8063,,adl
6.296452,3.7003,-1.0188,4.2657,-0.1176,-0.4341,0.2296,39.6938,25.8563,24.8063,,adl
6.317246,3.7003,-1.0188,4.2657,-0.1176,-0.4341,0.2296,39.6938,25.8563,24.8063,,adl
6.318901,-0.9928,-1.149,-1.0668,-0.1176,-0.4341,0.2296,39.6938,25.8563,24.8063,,adl
6.334595,-0.9928,-1.149,-1.0668,-0.1176,-0.4341,0.2296,40.1063,27.3563,23.2875,,adl
6.357308,-0.9928,-1.149,-1.0668,-0.3217,-0.2121,0.6148,40.1063,27.3563,23.2875,,adl
6.379749,-0.9928,-1.149,-1.0668,-0.3217,-0.2121,0.6148,40.1063,27.3563,23.2875,,adl
6.394802,-0.9928,-1.149,-1.0668,-0.3217,-0.2121,0.6148,40.95,28.3313,21.6938,,adl
6.398823,0.95,0.8018,0.8297,-0.3217,-0.2121,0.6148,40.95,28.3313,21.6938,,adl
6.418051,0.95,0.8018,0.8297,-0.2063,-0.1458,0.3595,40.95,28.3313,21.6938,,adl
6.438599,0.95,0.8018,0.8297,-0.2063,-0.1458,0.3595,40.95,28.3313,21.6938,,adl
6.454624,0.95,0.8018,0.8297,-0.2063,-0.1458,0.3595,41.85,28.5938,20.025,,adl
6.458907,-0.0795,0.3764,0.8321,-0.2063,-0.1458,0.3595,41.85,28.5938,20.025,,adl
6.478468,-0.0795,0.3764,0.8321,-0.2475,-0.0787,0.22,41.85,28.5938,20.025,,adl
6.500419,-0.0795,0.3764,0.8321,-0.2475,-0.0787,0.22,41.85,28.5938,20.025,,adl
6.514038,-0.0795,0.3764,0.8321,-0.2475,-0.0787,0.22,42.4875,28.3125,18.825,,adl
6.519903,0.2796,-0.1407,0.2874,-0.2475,-0.0787,0.22,42.4875,28.3125,18.825,,adl
6.540717,0.2796,-0.1407,0.2874,-0.2915,0.0174,0.0503,42.4875,28.3125,18.825,,adl
6.560421,0.2796,-0.1407,0.2874,-0.2915,0.0174,0.0503,42.4875,28.3125,18.825,,adl
6.573765,0.2796,-0.1407,0.2874,-0.2915,0.0174,0.0503,43.1063,28.0125,18.2625,,adl
6.599894,0.2796,-0.1407,0.2874,-0.2755,-0.0052,0.0887,43.1063,28.0125,18.2625,,adl
6.601346,0.1928,0.1301,0.6333,-0.2755,-0.0052,0.0887,43.1063,28.0125,18.2625,,adl
6.620721,0.1928,0.1301,0.6333,-0.2755,-0.0052,0.0887,43.1063,28.0125,18.2625,,adl
6.633288,0.1928,0.1301,0.6333,-0.2755,-0.0052,0.0887,43.5188,27.5063,18.0,,adl
6.661326,0.1928,0.1301,0.6333,-0.3533,0.0977,0.0443,43.5188,27.5063,18.0,,adl
6.663371,0.0333,0.1549,0.6475,-0.3533,0.0977,0.0443,43.5188,27.5063,18.0,,adl
6.68211,0.0333,0.1549,0.6475,-0.3533,0.0977,0.0443,43.5188,27.5063,18.0,,adl
6.695518,0.0333,0.1549,0.6475,-0.3533,0.0977,0.0443,43.7063,26.4938,18.3,,adl
6.723633,0.0333,0.1549,0.6475,-0.2968,0.0055,-0.1325,43.7063,26.4938,18.3,,adl
6.725622,0.2378,0.1146,0.5215,-0.2968,0.0055,-0.1325,43.7063,26.4938,18.3,,adl
6.743929,0.2378,0.1146,0.5215,-0.2968,0.0055,-0.1325,43.7063,26.4938,18.3,,adl
6.753961,0.2378,0.1146,0.5215,-0.2968,0.0055,-0.1325,44.0625,25.7063,18.6188,,adl
6.784157,0.2378,0.1146,0.5215,-0.3933,0.1218,-0.2173,44.0625,25.7063,18.6188,,adl
6.78611,-0.0689,-0.0922,0.3081,-0.3933,0.1218,-0.2173,44.0625,25.7063,18.6188,,adl
6.803932,-0.0689,-0.0922,0.3081,-0.3933,0.1218,-0.2173,44.0625,25.7063,18.6188,,adl
6.814534,-0.0689,-0.0922,0.3081,-0.3933,0.1218,-0.2173,44.4188,24.8438,19.1813,,adl
6.844752,-0.0689,-0.0922,0.3081,-0.5024,0.0019,-0.0956,44.4188,24.8438,19.1813,,adl
6.865278,-0.0689,-0.0922,0.3081,-0.5024,0.0019,-0.0956,44.4188,24.8438,19.1813,,adl
6.866583,0.1133,0.1267,0.4715,-0.5024,0.0019,-0.0956,44.4188,24.8438,19.1813,,adl
6.874149,0.1133,0.1267,0.4715,-0.5024,0.0019,-0.0956,44.4563,24.3188,19.6875,,adl
6.905702,0.1133,0.1267,0.4715,-0.7388,0.0079,-0.1161,44.4563,24.3188,19.6875,,adl
6.927325,0.1266,0.1807,0.7538,-0.7388,0.0079,-0.1161,44.4563,24.3188,19.6875,,adl
6.929103,0.1266,0.1807,0.7538,-0.7388,0.0079,-0.1161,44.4563,24.3188,19.6875,,adl
6.934734,0.1266,0.1807,0.7538,-0.7388,0.0079,-0.1161,44.55,24.075,20.5312,,adl
6.967381,0.1266,0.1807,0.7538,-1.0409,-0.0297,-0.1161,44.55,24.075,20.5312,,adl
6.987608,0.1266,0.1807,0.7538,-1.0409,-0.0297,-0.1161,44.55,24.075,20.5312,,adl
6.989542,0.1788,0.0957,0.5818,-1.0409,-0.0297,-0.1161,44.55,24.075,20.5312,,adl
6.994208,0.1788,0.0957,0.5818,-1.0409,-0.0297,-0.1161,44.6063,23.5688,21.3563,,adl
7.026483,0.1788,0.0957,0.5818,-1.436,0.0679,-0.0115,44.6063,23.5688,21.3563,,adl
7.047218,0.1788,0.0957,0.5818,-1.436,0.0679,-0.0115,44.6063,23.5688,21.3563,,adl
7.053369,0.1788,0.0957,0.5818,-1.436,0.0679,-0.0115,44.5312,22.8563,22.275,,adl
7.067932,0.1822,0.0865,1.339,-1.436,0.0679,-0.0115,44.5312,22.8563,22.275,,adl
7.089143,0.1822,0.0865,1.339,-1.4112,-0.1294,0.2719,44.5312,22.8563,22.275,,adl
7.108553,0.1822,0.0865,1.339,-1.4112,-0.1294,0.2719,44.5312,22.8563,22.275,,adl
7.113699,0.1822,0.0865,1.339,-1.4112,-0.1294,0.2719,44.5125,21.8063,23.2688,,adl
7.128891,1.6925,-1.571,0.7893,-1.4112,-0.1294,0.2719,44.5125,21.8063,23.2688,,adl
7.151457,1.6925,-1.571,0.7893,-1.2976,-1.0007,0.4511,44.5125,21.8063,23.2688,,adl
7.169458,1.6925,-1.571,0.7893,-1.2976,-1.0007,0.4511,44.5125,21.8063,23.2688,,adl
7.172619,1.6925,-1.571,0.7893,-1.2976,-1.0007,0.4511,44.6063,20.5125,23.7,,adl
7.189971,0.9107,-2.0562,0.626,-1.2976,-1.0007,0.4511,44.6063,20.5125,23.7,,adl
7.209784,0.9107,-2.0562,0.626,-1.5603,-1.5914,0.7085,44.6063,20.5125,23.7,,adl
7.230132,0.9107,-2.0562,0.626,-1.5603,-1.5914,0.7085,44.6063,20.5125,23.7,,adl
7.23482,0.9107,-2.0562,0.626,-1.5603,-1.5914,0.7085,45.0563,18.6188,23.9438,,adl
7.250824,-2.4401,-1.924,1.3037,-1.5603,-1.5914,0.7085,45.0563,18.6188,23.9438,,adl
7.271524,-2.4401,-1.924,1.3037,-1.5858,-0.4471,0.9744,45.0563,18.6188,23.9438,,adl
7.292123,-2.4401,-1.924,1.3037,-1.5858,-0.4471,0.9744,45.0563,18.6188,23.9438,,adl
7.293633,-2.4401,-1.924,1.3037,-1.5858,-0.4471,0.9744,45.0938,16.3875,23.6813,,adl
7.332493,-2.4401,-1.924,1.3037,-1.1265,-0.2388,1.2826,45.0938,16.3875,23.6813,,adl
7.334566,-0.7666,-1.9369,2.6566,-1.1265,-0.2388,1.2826,45.0938,16.3875,23.6813,,adl
7.35268,-0.7666,-1.9369,2.6566,-1.1265,-0.2388,1.2826,45.0938,16.3875,23.6813,,adl
7.354009,-0.7666,-1.9369,2.6566,-1.1265,-0.2388,1.2826,45.4125,13.3125,23.475,,adl
7.394322,0.9604,-0.9238,3.1796,-1.1265,-0.2388,1.2826,45.4125,13.3125,23.475,,adl
7.397093,0.9604,-0.9238,3.1796,0.1111,-1.7706,0.6705,45.4125,13.3125,23.475,,adl
7.413156,0.9604,-0.9238,3.1796,0.1111,-1.7706,0.6705,45.4125,13.3125,23.475,,adl
7.414262,0.9604,-0.9238,3.1796,0.1111,-1.7706,0.6705,45.8063,10.1438,22.575,,adl
7.456172,0.9604,-0.9238,3.1796,0.8669,-0.3485,0.334,45.8063,10.1438,22.575,,adl
7.458202,1.8743,0.4827,2.9231,0.8669,-0.3485,0.334,45.8063,10.1438,22.575,,adl
7.47472,1.8743,0.4827,2.9231,0.8669,-0.3485,0.334,46.0875,7.1625,21.5625,,adl
7.476215,1.8743,0.4827,2.9231,0.8669,-0.3485,0.334,46.0875,7.1625,21.5625,,adl
7.515021,1.8743,0.4827,2.9231,1.8505,0.5915,-0.043,46.0875,7.1625,21.5625,,adl
7.534756,1.8743,0.4827,2.9231,1.8505,0.5915,-0.043,46.4438,4.7063,20.5312,,adl
7.536136,1.8743,0.4827,2.9231,1.8505,0.5915,-0.043,46.4438,4.7063,20.5312,,adl
7.536748,3.7395,2.3631,2.1873,1.8505,0.5915,-0.043,46.4438,4.7063,20.5312,,adl
7.57482,3.7395,2.3631,2.1873,2.6263,0.555,-0.6991,46.4438,4.7063,20.5312,,adl
7.593438,3.7395,2.3631,2.1873,2.6263,0.555,-0.6991,46.8375,3.3188,19.5938,,adl
7.595964,1.9435,1.9117,-0.0538,2.6263,0.555,-0.6991,46.8375,3.3188,19.5938,,adl
7.597124,1.9435,1.9117,-0.0538,2.6263,0.555,-0.6991,46.8375,3.3188,19.5938,,adl
7.63617,1.9435,1.9117,-0.0538,2.9265,1.228,-1.1854,46.8375,3.3188,19.5938,,adl
7.653508,1.9435,1.9117,-0.0538,2.9265,1.228,-1.1854,46.9875,3.3375,19.4438,,adl
7.65594,1.9435,1.9117,-0.0538,2.9265,1.228,-1.1854,46.9875,3.3375,19.4438,,adl
7.656272,1.9892,1.2902,-2.7474,2.9265,1.228,-1.1854,46.9875,3.3375,19.4438,,adl
7.696489,1.9892,1.2902,-2.7474,2.8506,1.851,-1.8663,46.9875,3.3375,19.4438,,adl
7.714574,1.9892,1.2902,-2.7474,2.8506,1.851,-1.8663,46.4062,4.9125,19.8563,,adl
7.717271,1.9892,1.2902,-2.7474,2.8506,1.851,-1.8663,46.4062,4.9125,19.8563,,adl
7.718062,0.6551,-0.7785,-4.523,2.8506,1.851,-1.8663,46.4062,4.9125,19.8563,,adl
7.757877,0.6551,-0.7785,-4.523,2.1196,2.4329,-2.0012,46.4062,4.9125,19.8563,,adl
7.773659,0.6551,-0.7785,-4.523,2.1196,2.4329,-2.0012,45.4313,8.1562,21.0375,,adl
7.778613,0.6551,-0.7785,-4.523,2.1196,2.4329,-2.0012,45.4313,8.1562,21.0375,,adl
7.798838,0.744,-3.9412,-6.3934,2.1196,2.4329,-2.0012,45.4313,8.1562,21.0375,,adl
7.818524,0.744,-3.9412,-6.3934,1.197,1.6522,-1.288,45.4313,8.1562,21.0375,,adl
7.834157,0.744,-3.9412,-6.3934,1.197,1.6522,-1.288,43.7625,12.9563,22.425,,adl
7.839567,0.744,-3.9412,-6.3934,1.197,1.6522,-1.288,43.7625,12.9563,22.425,,adl
7.859609,-0.5161,-3.2156,-5.8841,1.197,1.6522,-1.288,43.7625,12.9563,22.425,,adl
7.879954,-0.5161,-3.2156,-5.8841,0.1234,0.4101,-0.5436,43.7625,12.9563,22.425,,adl
7.895541,-0.5161,-3.2156,-5.8841,0.1234,0.4101,-0.5436,41.7563,18.0375,24.4875,,adl
7.900287,-0.5161,-3.2156,-5.8841,0.1234,0.4101,-0.5436,41.7563,18.0375,24.4875,,adl
7.921636,-3.2254,-1.3269,-5.644,0.1234,0.4101,-0.5436,41.7563,18.0375,24.4875,,adl
7.941804,-3.2254,-1.3269,-5.644,0.028,-0.2083,-0.0515,41.7563,18.0375,24.4875,,adl
7.954207,-3.2254,-1.3269,-5.644,0.028,-0.2083,-0.0515,39.7313,23.3063,26.475,,adl
7.9617,-3.2254,-1.3269,-5.644,0.028,-0.2083,-0.0515,39.7313,23.3063,26.475,,adl
7.982046,-2.0424,-1.1342,1.6358,0.028,-0.2083,-0.0515,39.7313,23.3063,26.475,,adl
8.002537,-2.0424,-1.1342,1.6358,-0.2561,0.0377,0.4898,39.7313,23.3063,26.475,,adl
8.014896,-2.0424,-1.1342,1.6358,-0.2561,0.0377,0.4898,37.8563,28.1063,28.3688,,adl
8.021076,-2.0424,-1.1342,1.6358,-0.2561,0.0377,0.4898,37.8563,28.1063,28.3688,,adl
8.063103,-2.0424,-1.1342,1.6358,-0.1364,-1.2251,0.3929,37.8563,28.1063,28.3688,,adl
8.065195,0.5126,-0.9208,-0.4906,-0.1364,-1.2251,0.3929,37.8563,28.1063,28.3688,,adl
8.073166,0.5126,-0.9208,-0.4906,-0.1364,-1.2251,0.3929,36.2812,32.175,29.7375,,adl
8.084162,0.5126,-0.9208,-0.4906,-0.1364,-1.2251,0.3929,36.2812,32.175,29.7375,,adl
8.123914,0.5126,-0.9208,-0.4906,-0.6007,0.5883,0.6939,36.2812,32.175,29.7375,,adl
8.126857,-0.2047,0.1216,1.0647,-0.6007,0.5883,0.6939,36.2812,32.175,29.7375,,adl
8.134,-0.2047,0.1216,1.0647,-0.6007,0.5883,0.6939,34.8188,34.9688,30.8813,,adl
8.145618,-0.2047,0.1216,1.0647,-0.6007,0.5883,0.6939,34.8188,34.9688,30.8813,,adl
8.184488,-0.2047,0.1216,1.0647,-0.2425,-0.4788,0.4358,34.8188,34.9688,30.8813,,adl
8.186204,0.3923,0.1187,0.7148,-0.2425,-0.4788,0.4358,34.8188,34.9688,30.8813,,adl
8.194515,0.3923,0.1187,0.7148,-0.2425,-0.4788,0.4358,33.9,36.5063,31.7438,,adl
8.205066,0.3923,0.1187,0.7148,-0.2425,-0.4788,0.4358,33.9,36.5063,31.7438,,adl
8.245365,0.3923,0.1187,0.7148,-0.5968,0.5269,0.3812,33.9,36.5063,31.7438,,adl
8.254163,0.3923,0.1187,0.7148,-0.5968,0.5269,0.3812,33.7125,36.7313,32.3063,,adl
8.266537,0.3923,0.1187,0.7148,-0.5968,0.5269,0.3812,33.7125,36.7313,32.3063,,adl
8.267495,0.0889,0.0276,0.7635,-0.5968,0.5269,0.3812,33.7125,36.7313,32.3063,,adl
8.307056,0.0889,0.0276,0.7635,-0.5542,0.2671,0.3932,33.7125,36.7313,32.3063,,adl
8.314607,0.0889,0.0276,0.7635,-0.5542,0.2671,0.3932,34.1063,35.7563,32.85,,adl
8.327038,0.0889,0.0276,0.7635,-0.5542,0.2671,0.3932,34.1063,35.7563,32.85,,adl
8.328225,0.0973,0.3651,1.181,-0.5542,0.2671,0.3932,34.1063,35.7563,32.85,,adl
8.368773,0.0973,0.3651,1.181,-0.5514,0.2906,0.4164,34.1063,35.7563,32.85,,adl
8.373808,0.0973,0.3651,1.181,-0.5514,0.2906,0.4164,34.6875,34.5188,33.525,,adl
8.388717,0.0973,0.3651,1.181,-0.5514,0.2906,0.4164,34.6875,34.5188,33.525,,adl
8.390901,0.198,0.2738,0.912,-0.5514,0.2906,0.4164,34.6875,34.5188,33.525,,adl
8.429054,0.198,0.2738,0.912,-0.5045,0.3172,0.3489,34.6875,34.5188,33.525,,adl
8.440722,0.198,0.2738,0.912,-0.5045,0.3172,0.3489,35.4375,32.8875,34.3313,,adl
8.449201,0.198,0.2738,0.912,-0.5045,0.3172,0.3489,35.4375,32.8875,34.3313,,adl
8.449834,-0.0029,0.1234,0.7855,-0.5045,0.3172,0.3489,35.4375,32.8875,34.3313,,adl
8.489271,-0.0029,0.1234,0.7855,-0.4381,0.1031,0.2913,35.4375,32.8875,34.3313,,adl
8.493583,-0.0029,0.1234,0.7855,-0.4381,0.1031,0.2913,36.1125,31.2563,35.325,,adl
8.50972,-0.0029,0.1234,0.7855,-0.4381,0.1031,0.2913,36.1125,31.2563,35.325,,adl
8.530162,0.0906,-0.1561,0.4775,-0.4381,0.1031,0.2913,36.1125,31.2563,35.325,,adl
8.550601,0.0906,-0.1561,0.4775,-0.6675,0.2075,0.3989,36.1125,31.2563,35.325,,adl
8.554774,0.0906,-0.1561,0.4775,-0.6675,0.2075,0.3989,36.3563,29.25,36.7875,,adl
8.569999,0.0906,-0.1561,0.4775,-0.6675,0.2075,0.3989,36.3563,29.25,36.7875,,adl
8.592215,0.3138,0.2207,0.9484,-0.6675,0.2075,0.3989,36.3563,29.25,36.7875,,adl
8.611009,0.3138,0.2207,0.9484,-1.0967,0.3236,0.6485,36.3563,29.25,36.7875,,adl
8.612674,0.3138,0.2207,0.9484,-1.0967,0.3236,0.6485,36.5438,27.2438,38.0063,,adl
8.631541,0.3138,0.2207,0.9484,-1.0967,0.3236,0.6485,36.5438,27.2438,38.0063,,adl
8.652111,0.6544,0.1064,1.0849,-1.0967,0.3236,0.6485,36.5438,27.2438,38.0063,,adl
8.67084,0.6544,0.1064,1.0849,-1.4858,0.687,0.9709,36.5438,27.2438,38.0063,,adl
8.673114,0.6544,0.1064,1.0849,-1.4858,0.687,0.9709,36.3938,24.7875,39.6188,,adl
8.691527,0.6544,0.1064,1.0849,-1.4858,0.687,0.9709,36.3938,24.7875,39.6188,,adl
8.73222,0.6544,0.1064,1.0849,-1.6501,1.6512,1.2996,36.3938,24.7875,39.6188,,adl
8.735277,0.7473,-0.2925,1.5353,-1.6501,1.6512,1.2996,36.3938,24.7875,39.6188,,adl
8.736745,0.7473,-0.2925,1.5353,-1.6501,1.6512,1.2996,35.8688,21.6938,41.3438,,adl
8.752049,0.7473,-0.2925,1.5353,-1.6501,1.6512,1.2996,35.8688,21.6938,41.3438,,adl
8.794668,0.7473,-0.2925,1.5353,-1.6324,1.2582,1.4544,35.8688,21.6938,41.3438,,adl
8.799117,1.4003,-3.1258,2.1272,-1.6324,1.2582,1.4544,35.8688,21.6938,41.3438,,adl
8.801537,1.4003,-3.1258,2.1272,-1.6324,1.2582,1.4544,34.7812,18.1688,43.2938,,adl
8.815616,1.4003,-3.1258,2.1272,-1.6324,1.2582,1.4544,34.7812,18.1688,43.2938,,adl
8.854698,1.4003,-3.1258,2.1272,-1.6324,1.2582,1.4544,33.4125,14.1,44.9813,,adl
8.856264,1.4003,-3.1258,2.1272,-1.3963,0.3268,1.4486,33.4125,14.1,44.9813,,adl
8.857171,2.8502,-3.3559,0.9648,-1.3963,0.3268,1.4486,33.4125,14.1,44.9813,,adl
8.874524,2.8502,-3.3559,0.9648,-1.3963,0.3268,1.4486,33.4125,14.1,44.9813,,adl
8.91459,2.8502,-3.3559,0.9648,-1.3963,0.3268,1.4486,31.5563,9.975,46.6125,,adl
8.915696,2.3432,-0.5863,3.8936,-1.3963,0.3268,1.4486,31.5563,9.975,46.6125,,adl
8.916063,2.3432,-0.5863,3.8936,-0.4434,1.3438,0.3787,31.5563,9.975,46.6125,,adl
8.936636,2.3432,-0.5863,3.8936,-0.4434,1.3438,0.3787,31.5563,9.975,46.6125,,adl
8.973853,2.3432,-0.5863,3.8936,-0.4434,1.3438,0.3787,29.3063,6.4688,48.2625,,adl
8.975939,2.3432,-0.5863,3.8936,1.1224,0.6206,-0.7061,29.3063,6.4688,48.2625,,adl
8.995878,2.3432,-0.5863,3.8936,1.1224,0.6206,-0.7061,29.3063,6.4688,48.2625,,adl
8.997554,2.042,2.672,4.6184,1.1224,0.6206,-0.7061,29.3063,6.4688,48.2625,,adl
9.033754,2.042,2.672,4.6184,1.1224,0.6206,-0.7061,27.0,4.6875,50.0625,,adl
9.03593,2.042,2.672,4.6184,2.218,0.5361,-1.6669,27.0,4.6875,50.0625,,adl
9.056738,2.042,2.672,4.6184,2.218,0.5361,-1.6669,27.0,4.6875,50.0625,,adl
9.057981,1.0358,1.3497,2.2588,2.218,0.5361,-1.6669,27.0,4.6875,50.0625,,adl
9.094826,1.0358,1.3497,2.2588,2.218,0.5361,-1.6669,24.0,4.4813,51.7125,,adl
9.099839,1.0358,1.3497,2.2588,2.2858,2.4269,-1.4928,24.0,4.4813,51.7125,,adl
9.118783,1.0358,1.3497,2.2588,2.2858,2.4269,-1.4928,24.0,4.4813,51.7125,,adl
9.120164,0.5544,-0.2015,-2.1601,2.2858,2.4269,-1.4928,24.0,4.4813,51.7125,,adl
9.154217,0.5544,-0.2015,-2.1601,2.2858,2.4269,-1.4928,19.65,6.15,52.7813,,adl
9.158749,0.5544,-0.2015,-2.1601,2.6958,2.0651,-2.0534,19.65,6.15,52.7813,,adl
9.180115,0.5544,-0.2015,-2.1601,2.6958,2.0651,-2.0534,19.65,6.15,52.7813,,adl
9.199665,-1.1885,-2.1479,-4.2197,2.6958,2.0651,-2.0534,19.65,6.15,52.7813,,adl
9.214266,-1.1885,-2.1479,-4.2197,2.6958,2.0651,-2.0534,21.2063,-14.9813,42.4313,,adl
9.219423,-1.1885,-2.1479,-4.2197,2.754,0.6111,-1.6498,21.2063,-14.9813,42.4313,,adl
9.23888,-1.1885,-2.1479,-4.2197,2.754,0.6111,-1.6498,21.2063,-14.9813,42.4313,,adl
9.261759,-1.1386,-3.6464,-4.8528,2.754,0.6111,-1.6498,21.2063,-14.9813,42.4313,,adl
9.273317,-1.1386,-3.6464,-4.8528,2.754,0.6111,-1.6498,18.1313,0.2812,45.0,,adl
9.279698,-1.1386,-3.6464,-4.8528,1.7597,0.0633,-1.4779,18.1313,0.2812,45.0,,adl
9.3012,-1.1386,-3.6464,-4.8528,1.7597,0.0633,-1.4779,18.1313,0.2812,45.0,,adl
9.321743,-2.1421,-2.9094,-6.1835,1.7597,0.0633,-1.4779,18.1313,0.2812,45.0,,adl
9.335064,-2.1421,-2.9094,-6.1835,1.7597,0.0633,-1.4779,12.4313,5.7188,43.1063,,adl
9.34166,-2.1421,-2.9094,-6.1835,0.1266,1.7055,-0.3977,12.4313,5.7188,43.1063,,adl
9.361934,-2.1421,-2.9094,-6.1835,0.1266,1.7055,-0.3977,12.4313,5.7188,43.1063,,adl
9.382959,-2.546,-0.4059,-6.3316,0.1266,1.7055,-0.3977,12.4313,5.7188,43.1063,,adl
9.39501,-2.546,-0.4059,-6.3316,0.1266,1.7055,-0.3977,6.75,11.3438,40.9875,,adl
9.40339,-2.546,-0.4059,-6.3316,-0.8286,0.9203,0.5097,6.75,11.3438,40.9875,,adl
9.422873,-2.546,-0.4059,-6.3316,-0.8286,0.9203,0.5097,6.75,11.3438,40.9875,,adl
9.454582,-2.546,-0.4059,-6.3316,-0.8286,0.9203,0.5097,1.5563,16.6313,38.6625,,adl
9.465352,-3.6886,-0.1898,-4.7066,-0.8286,0.9203,0.5097,1.5563,16.6313,38.6625,,adl
9.467157,-3.6886,-0.1898,-4.7066,0.1466,-1.9517,0.0787,1.5563,16.6313,38.6625,,adl
9.483618,-3.6886,-0.1898,-4.7066,0.1466,-1.9517,0.0787,1.5563,16.6313,38.6625,,adl
9.513526,-3.6886,-0.1898,-4.7066,0.1466,-1.9517,0.0787,-3.3188,20.4375,36.2625,,adl
9.524141,-3.6886,-0.1898,-4.7066,-0.202,-0.0013,0.2055,-3.3188,20.4375,36.2625,,adl
9.525463,1.2761,-2.2199,4.3622,-0.202,-0.0013,0.2055,-3.3188,20.4375,36.2625,,adl
9.544787,1.2761,-2.2199,4.3622,-0.202,-0.0013,0.2055,-3.3188,20.4375,36.2625,,adl
9.574135,1.2761,-2.2199,4.3622,-0.202,-0.0013,0.2055,-7.2188,23.0063,33.8438,,adl
9.585727,1.2761,-2.2199,4.3622,-0.4634,-0.1686,0.7823,-7.2188,23.0063,33.8438,,adl
9.587676,2.0491,-0.0644,-2.497,-0.4634,-0.1686,0.7823,-7.2188,23.0063,33.8438,,adl
9.605911,2.0491,-0.0644,-2.497,-0.4634,-0.1686,0.7823,-7.2188,23.0063,33.8438,,adl
9.634709,2.0491,-0.0644,-2.497,-0.4634,-0.1686,0.7823,-25.575,23.5125,15.7875,,adl
9.644454,2.0491,-0.0644,-2.497,-0.5943,0.2607,0.4611,-25.575,23.5125,15.7875,,adl
9.666538,2.0491,-0.0644,-2.497,-0.5943,0.2607,0.4611,-25.575,23.5125,15.7875,,adl
9.667985,-0.3864,-0.3259,0.7456,-0.5943,0.2607,0.4611,-25.575,23.5125,15.7875,,adl
9.694821,-0.3864,-0.3259,0.7456,-0.5943,0.2607,0.4611,-26.8125,23.6438,14.8313,,adl
9.707253,-0.3864,-0.3259,0.7456,-0.5787,0.0044,0.5956,-26.8125,23.6438,14.8313,,adl
9.727781,-0.3864,-0.3259,0.7456,-0.5787,0.0044,0.5956,-26.8125,23.6438,14.8313,,adl
9.729388,1.1025,0.5386,1.1347,-0.5787,0.0044,0.5956,-26.8125,23.6438,14.8313,,adl
9.75475,1.1025,0.5386,1.1347,-0.5787,0.0044,0.5956,-27.0,23.1188,15.0375,,adl
9.768616,1.1025,0.5386,1.1347,-0.4815,0.0633,0.1848,-27.0,23.1188,15.0375,,adl
9.788387,1.1025,0.5386,1.1347,-0.4815,0.0633,0.1848,-27.0,23.1188,15.0375,,adl
9.789516,-0.5614,-0.1571,0.9002,-0.4815,0.0633,0.1848,-27.0,23.1188,15.0375,,adl
9.815083,-0.5614,-0.1571,0.9002,-0.4815,0.0633,0.1848,-26.475,22.5938,15.5813,,adl
9.828834,-0.5614,-0.1571,0.9002,-0.534,0.0494,0.3957,-26.475,22.5938,15.5813,,adl
9.849332,0.6363,0.5223,1.4209,-0.534,0.0494,0.3957,-26.475,22.5938,15.5813,,adl
9.851353,0.6363,0.5223,1.4209,-0.534,0.0494,0.3957,-26.475,22.5938,15.5813,,adl
9.874027,0.6363,0.5223,1.4209,-0.534,0.0494,0.3957,-25.5,22.1438,16.4438,,adl
9.889787,0.6363,0.5223,1.4209,-0.5642,0.1787,0.4,-25.5,22.1438,16.4438,,adl
9.910541,0.6363,0.5223,1.4209,-0.5642,0.1787,0.4,-25.5,22.1438,16.4438,,adl
9.931039,0.1991,0.2403,1.2177,-0.5642,0.1787,0.4,-25.5,22.1438,16.4438,,adl
9.933958,0.1991,0.2403,1.2177,-0.5642,0.1787,0.4,-24.6188,21.3375,17.5312,,adl
9.950587,0.1991,0.2403,1.2177,-0.535,0.0992,0.3653,-24.6188,21.3375,17.5312,,adl
9.972002,0.1991,0.2403,1.2177,-0.535,0.0992,0.3653,-24.6188,21.3375,17.5312,,adl
9.991763,0.0977,0.0481,1.0,-0.535,0.0992,0.3653,-24.6188,21.3375,17.5312,,adl
9.995065,0.0977,0.0481,1.0,-0.535,0.0992,0.3653,-23.8313,20.55,18.4875,,adl
10.011833,0.0977,0.0481,1.0,-0.5723,0.1248,0.4316,-23.8313,20.55,18.4875,,adl
10.032198,0.0977,0.0481,1.0,-0.5723,0.1248,0.4316,-23.8313,20.55,18.4875,,adl
10.052826,0.2338,0.1174,0.769,-0.5723,0.1248,0.4316,-23.8313,20.55,18.4875,,adl
10.055152,0.2338,0.1174,0.769,-0.5723,0.1248,0.4316,-23.1,19.5938,19.6688,,adl
10.071973,0.2338,0.1174,0.769,-0.6081,0.1932,0.4991,-23.1,19.5938,19.6688,,adl
10.096765,0.2338,0.1174,0.769,-0.6081,0.1932,0.4991,-23.1,19.5938,19.6688,,adl
10.114694,0.2338,0.1174,0.769,-0.6081,0.1932,0.4991,-22.4813,18.6562,20.5688,,adl
10.135483,0.2338,0.1174,0.769,-0.6852,0.4744,0.5328,-22.4813,18.6562,20.5688,,adl
10.137181,0.3132,-0.1141,0.6334,-0.6852,0.4744,0.5328,-22.4813,18.6562,20.5688,,adl
10.154829,0.3132,-0.1141,0.6334,-0.6852,0.4744,0.5328,-22.4813,18.6562,20.5688,,adl
10.174989,0.3132,-0.1141,0.6334,-0.6852,0.4744,0.5328,-22.1063,17.625,21.3938,,adl
10.195131,0.3132,-0.1141,0.6334,-0.8276,0.4435,0.5946,-22.1063,17.625,21.3938,,adl
10.19683,0.4602,-0.2033,0.4598,-0.8276,0.4435,0.5946,-22.1063,17.625,21.3938,,adl
10.215369,0.4602,-0.2033,0.4598,-0.8276,0.4435,0.5946,-22.1063,17.625,21.3938,,adl
10.236022,0.4602,-0.2033,0.4598,-0.8276,0.4435,0.5946,-21.8438,16.4062,22.2188,,adl
10.255245,0.4602,-0.2033,0.4598,-0.9806,0.3313,0.635,-21.8438,16.4062,22.2188,,adl
10.257266,0.6515,-0.4818,0.4805,-0.9806,0.3313,0.635,-21.8438,16.4062,22.2188,,adl
10.27561,0.6515,-0.4818,0.4805,-0.9806,0.3313,0.635,-21.8438,16.4062,22.2188,,adl
10.2949,0.6515,-0.4818,0.4805,-0.9806,0.3313,0.635,-21.7125,15.075,23.1562,,adl
10.316579,0.6515,-0.4818,0.4805,-1.2035,0.2724,0.8036,-21.7125,15.075,23.1562,,adl
10.319119,0.5899,-0.9832,1.4018,-1.2035,0.2724,0.8036,-21.7125,15.075,23.1562,,adl
10.336667,0.5899,-0.9832,1.4018,-1.2035,0.2724,0.8036,-21.7125,15.075,23.1562,,adl
10.354452,0.5899,-0.9832,1.4018,-1.2035,0.2724,0.8036,-21.5063,13.3125,24.1313,,adl
10.37694,0.5899,-0.9832,1.4018,-1.4456,0.4218,1.1377,-21.5063,13.3125,24.1313,,adl
10.397611,1.6537,-1.6377,1.3324,-1.4456,0.4218,1.1377,-21.5063,13.3125,24.1313,,adl
10.39895,1.6537,-1.6377,1.3324,-1.4456,0.4218,1.1377,-21.5063,13.3125,24.1313,,adl
10.414321,1.6537,-1.6377,1.3324,-1.4456,0.4218,1.1377,-21.5063,11.2125,24.8625,,adl
10.437816,1.6537,-1.6377,1.3324,-1.2393,0.2107,1.5839,-21.5063,11.2125,24.8625,,adl
10.458607,1.6537,-1.6377,1.3324,-1.2393,0.2107,1.5839,-21.5063,11.2125,24.8625,,adl
10.460171,3.204,-2.8104,2.7679,-1.2393,0.2107,1.5839,-21.5063,11.2125,24.8625,,adl
10.474201,3.204,-2.8104,2.7679,-1.2393,0.2107,1.5839,-21.3938,8.85,25.2938,,adl
10.499155,3.204,-2.8104,2.7679,-0.4886,2.254,0.2144,-21.3938,8.85,25.2938,,adl
10.519062,3.204,-2.8104,2.7679,-0.4886,2.254,0.2144,-21.3938,8.85,25.2938,,adl
10.520671,2.3299,-0.3585,4.0949,-0.4886,2.254,0.2144,-21.3938,8.85,25.2938,,adl
10.535125,2.3299,-0.3585,4.0949,-0.4886,2.254,0.2144,-22.2938,6.2438,25.0875,,adl
10.560264,2.3299,-0.3585,4.0949,1.214,2.3878,-0.5141,-22.2938,6.2438,25.0875,,adl
10.579969,2.3299,-0.3585,4.0949,1.214,2.3878,-0.5141,-22.2938,6.2438,25.0875,,adl
10.594507,2.3299,-0.3585,4.0949,1.214,2.3878,-0.5141,-23.8688,3.3188,24.3,,adl
10.599866,2.5547,2.5112,4.8992,1.214,2.3878,-0.5141,-23.8688,3.3188,24.3,,adl
10.620757,2.5547,2.5112,4.8992,2.798,1.4847,-1.5287,-23.8688,3.3188,24.3,,adl
10.641323,2.5547,2.5112,4.8992,2.798,1.4847,-1.5287,-23.8688,3.3188,24.3,,adl
10.65417,2.5547,2.5112,4.8992,2.798,1.4847,-1.5287,-25.1813,-0.8813,27.1125,,adl
10.661389,1.0801,0.5897,0.9467,2.798,1.4847,-1.5287,-25.1813,-0.8813,27.1125,,adl
10.681562,1.0801,0.5897,0.9467,3.0849,1.9377,-1.9821,-25.1813,-0.8813,27.1125,,adl
10.701673,1.0801,0.5897,0.9467,3.0849,1.9377,-1.9821,-25.1813,-0.8813,27.1125,,adl
10.714113,1.0801,0.5897,0.9467,3.0849,1.9377,-1.9821,-27.3375,-3.0,24.7875,,adl
10.72219,1.5359,-1.9301,-3.4946,3.0849,1.9377,-1.9821,-27.3375,-3.0,24.7875,,adl
10.743151,1.5359,-1.9301,-3.4946,2.5183,3.1252,-1.6345,-27.3375,-3.0,24.7875,,adl
10.763748,1.5359,-1.9301,-3.4946,2.5183,3.1252,-1.6345,-27.3375,-3.0,24.7875,,adl
10.773932,1.5359,-1.9301,-3.4946,2.5183,3.1252,-1.6345,-30.0563,-4.9125,21.4875,,adl
10.78293,0.1177,-4.591,-6.9647,2.5183,3.1252,-1.6345,-30.0563,-4.9125,21.4875,,adl
10.803632,0.1177,-4.591,-6.9647,1.2165,3.7152,-0.9959,-30.0563,-4.9125,21.4875,,adl
10.823374,0.1177,-4.591,-6.9647,1.2165,3.7152,-0.9959,-30.0563,-4.9125,21.4875,,adl
10.835563,0.1177,-4.591,-6.9647,1.2165,3.7152,-0.9959,-33.3563,-6.6563,16.6125,,adl
10.864096,0.1177,-4.591,-6.9647,0.0021,3.4475,-0.408,-33.3563,-6.6563,16.6125,,adl
10.865951,-0.7522,-1.6949,-9.425,0.0021,3.4475,-0.408,-33.3563,-6.6563,16.6125,,adl
10.885315,-0.7522,-1.6949,-9.425,0.0021,3.4475,-0.408,-33.3563,-6.6563,16.6125,,adl
10.894742,-0.7522,-1.6949,-9.425,0.0021,3.4475,-0.408,-37.5938,-6.0375,19.3125,,adl
10.925145,-0.7522,-1.6949,-9.425,-0.8035,1.5054,0.1654,-37.5938,-6.0375,19.3125,,adl
10.92718,-1.8532,-0.4463,-7.7476,-0.8035,1.5054,0.1654,-37.5938,-6.0375,19.3125,,adl
10.945535,-1.8532,-0.4463,-7.7476,-0.8035,1.5054,0.1654,-37.5938,-6.0375,19.3125,,adl
10.954609,-1.8532,-0.4463,-7.7476,-0.8035,1.5054,0.1654,-41.0438,-6.8625,13.35,,adl
10.986234,-1.8532,-0.4463,-7.7476,0.618,-2.0209,-0.4971,-41.0438,-6.8625,13.35,,adl
10.988285,-2.1161,0.124,-5.1769,0.618,-2.0209,-0.4971,-41.0438,-6.8625,13.35,,adl
11.006598,-2.1161,0.124,-5.1769,0.618,-2.0209,-0.4971,-41.0438,-6.8625,13.35,,adl
11.013427,-2.1161,0.124,-5.1769,0.618,-2.0209,-0.4971,-43.5938,-7.4625,8.2875,,adl
11.046995,-2.1161,0.124,-5.1769,-0.2073,-0.9485,0.778,-43.5938,-7.4625,8.2875,,adl
11.068391,-2.1161,0.124,-5.1769,-0.2073,-0.9485,0.778,-43.5938,-7.4625,8.2875,,adl
11.069474,3.1446,-1.0623,4.4241,-0.2073,-0.9485,0.778,-43.5938,-7.4625,8.2875,,adl
11.073717,3.1446,-1.0623,4.4241,-0.2073,-0.9485,0.778,-45.5625,-7.6688,4.2188,,adl
11.108072,3.1446,-1.0623,4.4241,-0.4112,-0.2502,0.1778,-45.5625,-7.6688,4.2188,,adl
11.127877,3.1446,-1.0623,4.4241,-0.4112,-0.2502,0.1778,-45.5625,-7.6688,4.2188,,adl
11.129109,-1.3721,-1.1402,0.087,-0.4112,-0.2502,0.1778,-45.5625,-7.6688,4.2188,,adl
11.136418,-1.3721,-1.1402,0.087,-0.4112,-0.2502,0.1778,-46.9688,-7.9688,0.7313,,adl
11.168861,-1.3721,-1.1402,0.087,-0.4037,0.7804,0.34,-46.9688,-7.9688,0.7313,,adl
11.189355,-1.3721,-1.1402,0.087,-0.4037,0.7804,0.34,-46.9688,-7.9688,0.7313,,adl
11.191317,1.1601,0.2908,0.2094,-0.4037,0.7804,0.34,-46.9688,-7.9688,0.7313,,adl
11.195425,1.1601,0.2908,0.2094,-0.4037,0.7804,0.34,-48.0938,-8.175,-2.0813,,adl
11.230039,1.1601,0.2908,0.2094,0.0684,-0.2718,0.084,-48.0938,-8.175,-2.0813,,adl
11.250262,1.1601,0.2908,0.2094,0.0684,-0.2718,0.084,-48.0938,-8.175,-2.0813,,adl
11.251568,-0.5463,-0.2426,0.5888,0.0684,-0.2718,0.084,-48.0938,-8.175,-2.0813,,adl
11.253886,-0.5463,-0.2426,0.5888,0.0684,-0.2718,0.084,-48.5813,-8.3813,-3.9375,,adl
11.289896,-0.5463,-0.2426,0.5888,-0.2478,0.4932,0.143,-48.5813,-8.3813,-3.9375,,adl
11.31077,-0.5463,-0.2426,0.5888,-0.2478,0.4932,0.143,-48.5813,-8.3813,-3.9375,,adl
11.313443,-0.5463,-0.2426,0.5888,-0.2478,0.4932,0.143,-48.675,-8.1375,-4.5375,,adl
11.331183,0.3321,0.2869,0.8306,-0.2478,0.4932,0.143,-48.675,-8.1375,-4.5375,,adl
11.351322,0.3321,0.2869,0.8306,-0.2482,0.3189,0.1462,-48.675,-8.1375,-4.5375,,adl
11.372025,0.3321,0.2869,0.8306,-0.2482,0.3189,0.1462,-48.675,-8.1375,-4.5375,,adl
11.374209,0.3321,0.2869,0.8306,-0.2482,0.3189,0.1462,-48.5438,-7.5563,-4.5188,,adl
11.392135,-0.1015,0.2876,0.9813,-0.2482,0.3189,0.1462,-48.5438,-7.5563,-4.5188,,adl
11.411914,-0.1015,0.2876,0.9813,-0.359,0.3871,0.1941,-48.5438,-7.5563,-4.5188,,adl
11.432668,-0.1015,0.2876,0.9813,-0.359,0.3871,0.1941,-48.5438,-7.5563,-4.5188,,adl
11.434219,-0.1015,0.2876,0.9813,-0.359,0.3871,0.1941,-48.3938,-7.2,-3.9938,,adl
11.453587,0.0305,0.2974,0.9736,-0.359,0.3871,0.1941,-48.3938,-7.2,-3.9938,,adl
11.472798,0.0305,0.2974,0.9736,-0.2627,0.3023,0.1388,-48.3938,-7.2,-3.9938,,adl
11.494564,0.0305,0.2974,0.9736,-0.2627,0.3023,0.1388,-48.0563,-6.5063,-4.0125,,adl
11.496397,0.0305,0.2974,0.9736,-0.2627,0.3023,0.1388,-48.0563,-6.5063,-4.0125,,adl
11.535869,0.0305,0.2974,0.9736,-0.3465,0.4372,0.1635,-48.0563,-6.5063,-4.0125,,adl
11.538264,-0.2253,-0.0407,0.6082,-0.3465,0.4372,0.1635,-48.0563,-6.5063,-4.0125,,adl
11.556483,-0.2253,-0.0407,0.6082,-0.3465,0.4372,0.1635,-47.9438,-6.0188,-4.575,,adl
11.558645,-0.2253,-0.0407,0.6082,-0.3465,0.4372,0.1635,-47.9438,-6.0188,-4.575,,adl
11.594982,-0.2253,-0.0407,0.6082,-0.4605,0.5646,0.361,-47.9438,-6.0188,-4.575,,adl
11.597089,0.1828,0.29,0.745,-0.4605,0.5646,0.361,-47.9438,-6.0188,-4.575,,adl
11.615161,0.1828,0.29,0.745,-0.4605,0.5646,0.361,-47.9438,-6.0188,-4.575,,adl
11.617339,0.1828,0.29,0.745,-0.4605,0.5646,0.361,-47.85,-5.3813,-5.2688,,adl
11.656829,0.1828,0.29,0.745,-0.5631,0.7804,0.4522,-47.85,-5.3813,-5.2688,,adl
11.659756,0.002,0.2432,1.0603,-0.5631,0.7804,0.4522,-47.85,-5.3813,-5.2688,,adl
11.675499,0.002,0.2432,1.0603,-0.5631,0.7804,0.4522,-47.6813,-4.7625,-6.1313,,adl
11.67754,0.002,0.2432,1.0603,-0.5631,0.7804,0.4522,-47.6813,-4.7625,-6.1313,,adl
11.719285,0.002,0.2432,1.0603,-0.6053,0.7208,0.5882,-47.6813,-4.7625,-6.1313,,adl
11.722049,0.2253,-0.017,0.6344,-0.6053,0.7208,0.5882,-47.6813,-4.7625,-6.1313,,adl
11.73433,0.2253,-0.017,0.6344,-0.6053,0.7208,0.5882,-47.4,-3.9188,-7.1625,,adl
11.736165,0.2253,-0.017,0.6344,-0.6053,0.7208,0.5882,-47.4,-3.9188,-7.1625,,adl
11.778505,0.2253,-0.017,0.6344,-0.7481,1.1073,0.7543,-47.4,-3.9188,-7.1625,,adl
11.794157,0.2253,-0.017,0.6344,-0.7481,1.1073,0.7543,-46.8375,-2.775,-8.3438,,adl
11.797596,0.2253,-0.017,0.6344,-0.7481,1.1073,0.7543,-46.8375,-2.775,-8.3438,,adl
11.798573,0.4455,-0.1633,0.6005,-0.7481,1.1073,0.7543,-46.8375,-2.775,-8.3438,,adl
11.837556,0.4455,-0.1633,0.6005,-0.8926,1.483,0.8424,-46.8375,-2.775,-8.3438,,adl
11.853633,0.4455,-0.1633,0.6005,-0.8926,1.483,0.8424,-46.3313,-1.425,-9.9188,,adl
11.858324,0.4455,-0.1633,0.6005,-0.8926,1.483,0.8424,-46.3313,-1.425,-9.9188,,adl
11.859561,0.9088,-0.5243,0.1467,-0.8926,1.483,0.8424,-46.3313,-1.425,-9.9188,,adl
11.900701,0.9088,-0.5243,0.1467,-0.7942,1.9132,1.2445,-46.3313,-1.425,-9.9188,,adl
11.914581,0.9088,-0.5243,0.1467,-0.7942,1.9132,1.2445,-45.5625,0.3938,-11.8688,,adl
11.918769,0.9088,-0.5243,0.1467,-0.7942,1.9132,1.2445,-45.5625,0.3938,-11.8688,,adl
11.919164,1.2047,-1.1007,0.7895,-0.7942,1.9132,1.2445,-45.5625,0.3938,-11.8688,,adl
11.960685,1.2047,-1.1007,0.7895,-0.6422,2.6857,1.4859,-45.5625,0.3938,-11.8688,,adl
11.974072,1.2047,-1.1007,0.7895,-0.6422,2.6857,1.4859,-43.35,2.4938,-14.8688,,adl
11.984765,1.2047,-1.1007,0.7895,-0.6422,2.6857,1.4859,-43.35,2.4938,-14.8688,,adl
12.000969,0.428,-1.4093,2.4143,-0.6422,2.6857,1.4859,-43.35,2.4938,-14.8688,,adl
12.021754,0.428,-1.4093,2.4143,-0.2961,3.4543,1.4018,-43.35,2.4938,-14.8688,,adl
12.035965,0.428,-1.4093,2.4143,-0.2961,3.4543,1.4018,-41.1188,5.025,-17.6813,,adl
12.041519,0.428,-1.4093,2.4143,-0.2961,3.4543,1.4018,-41.1188,5.025,-17.6813,,adl
12.061931,1.5873,-1.5758,2.8413,-0.2961,3.4543,1.4018,-41.1188,5.025,-17.6813,,adl
12.082191,1.5873,-1.5758,2.8413,-0.0387,4.5388,0.0674,-41.1188,5.025,-17.6813,,adl
12.094034,1.5873,-1.5758,2.8413,-0.0387,4.5388,0.0674,-38.3625,7.5938,-21.0,,adl
12.10446,1.5873,-1.5758,2.8413,-0.0387,4.5388,0.0674,-38.3625,7.5938,-21.0,,adl
12.123477,3.4008,2.0019,2.0674,-0.0387,4.5388,0.0674,-38.3625,7.5938,-21.0,,adl
12.143528,3.4008,2.0019,2.0674,1.2687,3.4738,-0.4779,-38.3625,7.5938,-21.0,,adl
12.154872,3.4008,2.0019,2.0674,1.2687,3.4738,-0.4779,-34.8938,9.6938,-24.675,,adl
12.163594,3.4008,2.0019,2.0674,1.2687,3.4738,-0.4779,-34.8938,9.6938,-24.675,,adl
12.185853,4.6715,1.4091,1.037,1.2687,3.4738,-0.4779,-34.8938,9.6938,-24.675,,adl
12.204025,4.6715,1.4091,1.037,2.1786,2.0343,-1.2802,-34.8938,9.6938,-24.675,,adl
12.216163,4.6715,1.4091,1.037,2.1786,2.0343,-1.2802,-31.3125,10.9875,-28.6688,,adl
12.224313,4.6715,1.4091,1.037,2.1786,2.0343,-1.2802,-31.3125,10.9875,-28.6688,,adl
12.265029,4.6715,1.4091,1.037,2.3699,1.9341,-1.5039,-31.3125,10.9875,-28.6688,,adl
12.267086,2.3613,-0.0829,-2.3743,2.3699,1.9341,-1.5039,-31.3125,10.9875,-28.6688,,adl
12.27386,2.3613,-0.0829,-2.3743,2.3699,1.9341,-1.5039,-29.7375,12.1688,-31.8563,,adl
12.287006,2.3613,-0.0829,-2.3743,2.3699,1.9341,-1.5039,-29.7375,12.1688,-31.8563,,adl
12.32659,2.3613,-0.0829,-2.3743,2.2777,2.3399,-1.9341,-29.7375,12.1688,-31.8563,,adl
12.328204,1.9031,-1.9343,-3.8297,2.2777,2.3399,-1.9341,-29.7375,12.1688,-31.8563,,adl
12.333027,1.9031,-1.9343,-3.8297,2.2777,2.3399,-1.9341,-25.7625,11.2313,-36.1313,,adl
12.345936,1.9031,-1.9343,-3.8297,2.2777,2.3399,-1.9341,-25.7625,11.2313,-36.1313,,adl
12.387459,1.9031,-1.9343,-3.8297,1.7341,1.903,-1.5273,-25.7625,11.2313,-36.1313,,adl
12.390082,0.8876,-2.4078,-5.1222,1.7341,1.903,-1.5273,-25.7625,11.2313,-36.1313,,adl
12.394188,0.8876,-2.4078,-5.1222,1.7341,1.903,-1.5273,-21.7688,9.1688,-40.2,,adl
12.407354,0.8876,-2.4078,-5.1222,1.7341,1.903,-1.5273,-21.7688,9.1688,-40.2,,adl
12.44831,0.8876,-2.4078,-5.1222,0.8914,0.6541,-1.1768,-21.7688,9.1688,-40.2,,adl
12.454874,0.8876,-2.4078,-5.1222,0.8914,0.6541,-1.1768,-17.9813,6.5063,-43.9875,,adl
12.46826,0.8876,-2.4078,-5.1222,0.8914,0.6541,-1.1768,-17.9813,6.5063,-43.9875,,adl
12.469855,-1.9591,-2.8977,-6.9234,0.8914,0.6541,-1.1768,-17.9813,6.5063,-43.9875,,adl
12.508527,-1.9591,-2.8977,-6.9234,-0.2273,0.4016,0.1728,-17.9813,6.5063,-43.9875,,adl
12.514216,-1.9591,-2.8977,-6.9234,-0.2273,0.4016,0.1728,-14.8313,3.15,-46.9313,,adl
12.528857,-1.9591,-2.8977,-6.9234,-0.2273,0.4016,0.1728,-14.8313,3.15,-46.9313,,adl
12.53061,-4.5103,-0.4824,-7.4912,-0.2273,0.4016,0.1728,-14.8313,3.15,-46.9313,,adl
12.569401,-4.5103,-0.4824,-7.4912,-0.228,0.2844,0.175,-14.8313,3.15,-46.9313,,adl
12.573816,-4.5103,-0.4824,-7.4912,-0.228,0.2844,0.175,-12.0938,-0.3,-49.4438,,adl
12.589934,-4.5103,-0.4824,-7.4912,-0.228,0.2844,0.175,-12.0938,-0.3,-49.4438,,adl
12.59186,-3.1507,-1.664,0.0528,-0.228,0.2844,0.175,-12.0938,-0.3,-49.4438,,adl
12.630742,-3.1507,-1.664,0.0528,-0.2716,-0.3691,0.7738,-12.0938,-0.3,-49.4438,,adl
12.632805,-3.1507,-1.664,0.0528,-0.2716,-0.3691,0.7738,-10.2938,-3.4125,-51.3188,,adl
12.651299,-3.1507,-1.664,0.0528,-0.2716,-0.3691,0.7738,-10.2938,-3.4125,-51.3188,,adl
12.652505,-1.3607,-1.2295,0.1476,-0.2716,-0.3691,0.7738,-10.2938,-3.4125,-51.3188,,adl
12.692367,-1.3607,-1.2295,0.1476,-0.6288,0.7453,0.7109,-10.2938,-3.4125,-51.3188,,adl
12.694762,-1.3607,-1.2295,0.1476,-0.6288,0.7453,0.7109,-8.4938,-5.7188,-52.725,,adl
12.71151,-1.3607,-1.2295,0.1476,-0.6288,0.7453,0.7109,-8.4938,-5.7188,-52.725,,adl
12.732014,0.9049,0.3373,0.7974,-0.6288,0.7453,0.7109,-8.4938,-5.7188,-52.725,,adl
12.752058,0.9049,0.3373,0.7974,-0.496,0.1911,0.3035,-8.4938,-5.7188,-52.725,,adl
12.753882,0.9049,0.3373,0.7974,-0.496,0.1911,0.3035,-6.45,-7.0875,-53.55,,adl
12.772471,0.9049,0.3373,0.7974,-0.496,0.1911,0.3035,-6.45,-7.0875,-53.55,,adl
12.793027,-0.5961,-0.0176,0.9449,-0.496,0.1911,0.3035,-6.45,-7.0875,-53.55,,adl
12.812995,-0.5961,-0.0176,0.9449,-0.5165,0.2071,0.2779,-6.45,-7.0875,-53.55,,adl
12.814717,-0.5961,-0.0176,0.9449,-0.5165,0.2071,0.2779,-4.9313,-7.5375,-53.775,,adl
12.833268,-0.5961,-0.0176,0.9449,-0.5165,0.2071,0.2779,-4.9313,-7.5375,-53.775,,adl
12.856236,0.2378,0.1128,0.7715,-0.5165,0.2071,0.2779,-4.9313,-7.5375,-53.775,,adl
12.875849,0.2378,0.1128,0.7715,-0.5165,0.2071,0.2779,-3.6938,-7.0688,-53.7563,,adl
12.878127,0.2378,0.1128,0.7715,-0.5993,0.2514,0.3589,-3.6938,-7.0688,-53.7563,,adl
12.895149,0.2378,0.1128,0.7715,-0.5993,0.2514,0.3589,-3.6938,-7.0688,-53.7563,,adl
12.933944,0.2378,0.1128,0.7715,-0.5993,0.2514,0.3589,-2.8125,-6.075,-53.6438,,adl
12.935727,0.2378,0.1128,0.7715,-0.6292,0.0168,0.4224,-2.8125,-6.075,-53.6438,,adl
12.936675,0.1619,0.2912,1.1154,-0.6292,0.0168,0.4224,-2.8125,-6.075,-53.6438,,adl
12.956098,0.1619,0.2912,1.1154,-0.6292,0.0168,0.4224,-2.8125,-6.075,-53.6438,,adl
12.996493,0.1619,0.2912,1.1154,-0.6292,0.0168,0.4224,-2.1,-4.7063,-53.6438,,adl
12.999701,0.1619,0.2912,1.1154,-0.6135,-0.1081,0.3463,-2.1,-4.7063,-53.6438,,adl
13.002167,0.0569,0.3322,1.2599,-0.6135,-0.1081,0.3463,-2.1,-4.7063,-53.6438,,adl
13.015631,0.0569,0.3322,1.2599,-0.6135,-0.1081,0.3463,-2.1,-4.7063,-53.6438,,adl
13.057113,0.0569,0.3322,1.2599,-0.6135,-0.1081,0.3463,-1.7063,-3.2813,-53.5313,,adl
13.059297,0.0569,0.3322,1.2599,-0.8069,-0.0676,0.4401,-1.7063,-3.2813,-53.5313,,adl
13.062695,0.1801,-0.0781,0.6325,-0.8069,-0.0676,0.4401,-1.7063,-3.2813,-53.5313,,adl
13.077927,0.1801,-0.0781,0.6325,-0.8069,-0.0676,0.4401,-1.7063,-3.2813,-53.5313,,adl
13.11409,0.1801,-0.0781,0.6325,-0.8069,-0.0676,0.4401,-0.9563,-1.6313,-53.2688,,adl
13.116729,0.1801,-0.0781,0.6325,-1.0342,-0.0365,0.6826,-0.9563,-1.6313,-53.2688,,adl
13.117759,0.456,0.263,1.1484,-1.0342,-0.0365,0.6826,-0.9563,-1.6313,-53.2688,,adl
13.137725,0.456,0.263,1.1484,-1.0342,-0.0365,0.6826,-0.9563,-1.6313,-53.2688,,adl
13.174646,0.456,0.263,1.1484,-1.0342,-0.0365,0.6826,-0.3563,-0.0375,-52.7813,,adl
13.177511,0.456,0.263,1.1484,-1.3196,0.1634,0.8675,-0.3563,-0.0375,-52.7813,,adl
13.199924,0.456,0.263,1.1484,-1.3196,0.1634,0.8675,-0.3563,-0.0375,-52.7813,,adl
13.201245,0.7039,-0.1946,0.6406,-1.3196,0.1634,0.8675,-0.3563,-0.0375,-52.7813,,adl
13.233926,0.7039,-0.1946,0.6406,-1.3196,0.1634,0.8675,0.4125,1.7813,-52.0125,,adl
13.237839,0.7039,-0.1946,0.6406,-1.6686,0.5064,0.9123,0.4125,1.7813,-52.0125,,adl
13.260539,0.7039,-0.1946,0.6406,-1.6686,0.5064,0.9123,0.4125,1.7813,-52.0125,,adl
13.262247,0.9338,-1.1447,1.052,-1.6686,0.5064,0.9123,0.4125,1.7813,-52.0125,,adl
13.294479,0.9338,-1.1447,1.052,-1.6686,0.5064,0.9123,1.2938,4.0312,-51.15,,adl
13.300047,0.9338,-1.1447,1.052,-2.1223,-0.0145,1.345,1.2938,4.0312,-51.15,,adl
13.320976,0.9338,-1.1447,1.052,-2.1223,-0.0145,1.345,1.2938,4.0312,-51.15,,adl
13.322601,2.54,-3.9701,1.8267,-2.1223,-0.0145,1.345,1.2938,4.0312,-51.15,,adl
13.35556,2.54,-3.9701,1.8267,-2.1223,-0.0145,1.345,2.2125,6.4875,-49.9875,,adl
13.36194,2.54,-3.9701,1.8267,-1.692,-1.257,1.3433,2.2125,6.4875,-49.9875,,adl
13.381507,2.54,-3.9701,1.8267,-1.692,-1.257,1.3433,2.2125,6.4875,-49.9875,,adl
13.382983,2.9158,-3.9303,4.2689,-1.692,-1.257,1.3433,2.2125,6.4875,-49.9875,,adl
13.415004,2.9158,-3.9303,4.2689,-1.692,-1.257,1.3433,2.925,9.0563,-48.5625,,adl
13.422267,2.9158,-3.9303,4.2689,-0.4477,-0.6719,-0.9398,2.925,9.0563,-48.5625,,adl
13.442717,2.9158,-3.9303,4.2689,-0.4477,-0.6719,-0.9398,2.925,9.0563,-48.5625,,adl
13.462467,1.7471,0.941,5.3024,-0.4477,-0.6719,-0.9398,2.925,9.0563,-48.5625,,adl
13.474216,1.7471,0.941,5.3024,-0.4477,-0.6719,-0.9398,2.9438,11.5688,-47.4,,adl
13.482168,1.7471,0.941,5.3024,0.8984,-2.5771,-1.3366,2.9438,11.5688,-47.4,,adl
13.504016,1.7471,0.941,5.3024,0.8984,-2.5771,-1.3366,2.9438,11.5688,-47.4,,adl
13.52482,0.6457,2.3063,3.8842,0.8984,-2.5771,-1.3366,2.9438,11.5688,-47.4,,adl
13.533936,0.6457,2.3063,3.8842,0.8984,-2.5771,-1.3366,1.575,13.5938,-46.65,,adl
13.545362,0.6457,2.3063,3.8842,1.1228,-2.6269,-2.2391,1.575,13.5938,-46.65,,adl
13.564286,0.6457,2.3063,3.8842,1.1228,-2.6269,-2.2391,1.575,13.5938,-46.65,,adl
13.584437,-3.4126,0.6934,-0.3657,1.1228,-2.6269,-2.2391,1.575,13.5938,-46.65,,adl
13.594653,-3.4126,0.6934,-0.3657,1.1228,-2.6269,-2.2391,-0.8813,14.9625,-46.1625,,adl
13.605142,-3.4126,0.6934,-0.3657,0.5818,-1.1356,-1.1368,-0.8813,14.9625,-46.1625,,adl
13.624916,-3.4126,0.6934,-0.3657,0.5818,-1.1356,-1.1368,-0.8813,14.9625,-46.1625,,adl
13.655568,-3.4126,0.6934,-0.3657,0.5818,-1.1356,-1.1368,-4.1813,16.0688,-45.9563,,adl
13.665913,-3.4126,0.6934,-0.3657,0.673,-1.5537,-1.233,-4.1813,16.0688,-45.9563,,adl
13.667212,-5.9734,-1.1436,-1.9027,0.673,-1.5537,-1.233,-4.1813,16.0688,-45.9563,,adl
13.686025,-5.9734,-1.1436,-1.9027,0.673,-1.5537,-1.233,-4.1813,16.0688,-45.9563,,adl
13.71415,-5.9734,-1.1436,-1.9027,0.673,-1.5537,-1.233,-8.5688,16.1438,-45.8438,,adl
13.726706,-5.9734,-1.1436,-1.9027,0.7578,-0.4838,-0.8727,-8.5688,16.1438,-45.8438,,adl
13.728034,-4.0779,-0.2715,-0.6947,0.7578,-0.4838,-0.8727,-8.5688,16.1438,-45.8438,,adl
13.749606,-4.0779,-0.2715,-0.6947,0.7578,-0.4838,-0.8727,-8.5688,16.1438,-45.8438,,adl
13.774892,-4.0779,-0.2715,-0.6947,0.7578,-0.4838,-0.8727,-13.4813,15.225,-46.3313,,adl
13.787541,-4.0779,-0.2715,-0.6947,1.1125,0.0498,-1.0537,-13.4813,15.225,-46.3313,,adl
13.788988,-0.4819,1.0153,-0.1947,1.1125,0.0498,-1.0537,-13.4813,15.225,-46.3313,,adl
13.807824,-0.4819,1.0153,-0.1947,1.1125,0.0498,-1.0537,-13.4813,15.225,-46.3313,,adl
13.835367,-0.4819,1.0153,-0.1947,1.1125,0.0498,-1.0537,-18.6938,13.1813,-47.0625,,adl
13.848972,-1.1131,1.3524,-0.9813,1.1125,0.0498,-1.0537,-18.6938,13.1813,-47.0625,,adl
13.850612,-1.1131,1.3524,-0.9813,1.5187,-0.3706,-1.6136,-18.6938,13.1813,-47.0625,,adl
13.868387,-1.1131,1.3524,-0.9813,1.5187,-0.3706,-1.6136,-18.6938,13.1813,-47.0625,,adl
13.894055,-1.1131,1.3524,-0.9813,1.5187,-0.3706,-1.6136,-24.2063,9.7125,-48.0,,adl
13.909274,-1.1131,1.3524,-0.9813,1.4285,-0.5583,-1.7655,-24.2063,9.7125,-48.0,,adl
13.930889,-1.1131,1.3524,-0.9813,1.4285,-0.5583,-1.7655,-24.2063,9.7125,-48.0,,adl
13.932544,-1.2944,1.0272,-2.3597,1.4285,-0.5583,-1.7655,-24.2063,9.7125,-48.0,,adl
13.95485,-1.2944,1.0272,-2.3597,1.4285,-0.5583,-1.7655,-29.3625,5.25,-48.4125,,adl
13.970259,-1.2944,1.0272,-2.3597,1.0791,-1.0205,-1.233,-29.3625,5.25,-48.4125,,adl
13.990957,-1.2944,1.0272,-2.3597,1.0791,-1.0205,-1.233,-29.3625,5.25,-48.4125,,adl
13.99192,-3.4213,-2.2847,-3.6015,1.0791,-1.0205,-1.233,-29.3625,5.25,-48.4125,,adl
14.013793,-3.4213,-2.2847,-3.6015,1.0791,-1.0205,-1.233,-15.9563,0.2438,-44.9438,,adl
14.030505,-3.4213,-2.2847,-3.6015,0.0546,-0.5349,0.3258,-15.9563,0.2438,-44.9438,,adl
14.051688,-3.4213,-2.2847,-3.6015,0.0546,-0.5349,0.3258,-15.9563,0.2438,-44.9438,,adl
14.053158,-4.5065,-1.9585,-3.1415,0.0546,-0.5349,0.3258,-15.9563,0.2438,-44.9438,,adl
14.07462,-4.5065,-1.9585,-3.1415,0.0546,-0.5349,0.3258,-19.2938,-4.0125,-44.475,,adl
14.093847,-4.5065,-1.9585,-3.1415,0.2023,-0.1309,-0.9337,-19.2938,-4.0125,-44.475,,adl
14.111436,-4.5065,-1.9585,-3.1415,0.2023,-0.1309,-0.9337,-19.2938,-4.0125,-44.475,,adl
14.132775,0.1362,-2.2803,2.6539,0.2023,-0.1309,-0.9337,-19.2938,-4.0125,-44.475,,adl
14.135353,0.1362,-2.2803,2.6539,0.2023,-0.1309,-0.9337,-21.7875,-8.1188,-44.1,,adl
14.151931,0.1362,-2.2803,2.6539,-0.3132,-0.3357,1.5477,-21.7875,-8.1188,-44.1,,adl
14.173021,0.1362,-2.2803,2.6539,-0.3132,-0.3357,1.5477,-21.7875,-8.1188,-44.1,,adl
14.197079,0.1362,-2.2803,2.6539,-0.3132,-0.3357,1.5477,-23.6813,-11.3438,-43.5188,,adl
14.203625,1.5698,-1.0976,-2.9495,-0.3132,-0.3357,1.5477,-23.6813,-11.3438,-43.5188,,adl
14.214594,1.5698,-1.0976,-2.9495,-0.1581,-0.1784,0.6478,-23.6813,-11.3438,-43.5188,,adl
14.235539,1.5698,-1.0976,-2.9495,-0.1581,-0.1784,0.6478,-23.6813,-11.3438,-43.5188,,adl
14.256764,1.5698,-1.0976,-2.9495,-0.1581,-0.1784,0.6478,-25.125,-13.7625,-42.675,,adl
14.25859,0.7295,0.6882,0.6915,-0.1581,-0.1784,0.6478,-25.125,-13.7625,-42.675,,adl
14.276641,0.7295,0.6882,0.6915,-0.1953,0.2937,0.7848,-25.125,-13.7625,-42.675,,adl
14.29533,0.7295,0.6882,0.6915,-0.1953,0.2937,0.7848,-25.125,-13.7625,-42.675,,adl
14.315964,0.7295,0.6882,0.6915,-0.1953,0.2937,0.7848,-26.5313,-15.2063,-42.1313,,adl
14.317987,1.8501,0.2266,0.2775,-0.1953,0.2937,0.7848,-26.5313,-15.2063,-42.1313,,adl
14.335541,1.8501,0.2266,0.2775,-0.2457,-0.1494,0.6163,-26.5313,-15.2063,-42.1313,,adl
14.355888,1.8501,0.2266,0.2775,-0.2457,-0.1494,0.6163,-26.5313,-15.2063,-42.1313,,adl
14.37577,1.8501,0.2266,0.2775,-0.2457,-0.1494,0.6163,-27.4125,-15.4313,-41.4188,,adl
14.396487,1.8501,0.2266,0.2775,-0.4019,0.2951,0.5622,-27.4125,-15.4313,-41.4188,,adl
14.398197,0.2502,0.0302,0.8962,-0.4019,0.2951,0.5622,-27.4125,-15.4313,-41.4188,,adl
14.416934,0.2502,0.0302,0.8962,-0.4019,0.2951,0.5622,-27.4125,-15.4313,-41.4188,,adl
14.433357,0.2502,0.0302,0.8962,-0.4019,0.2951,0.5622,-27.8438,-14.5125,-41.0813,,adl
14.457467,0.2502,0.0302,0.8962,-0.2088,0.2322,0.28,-27.8438,-14.5125,-41.0813,,adl
14.459259,1.1664,0.1753,0.3808,-0.2088,0.2322,0.28,-27.8438,-14.5125,-41.0813,,adl
14.477489,1.1664,0.1753,0.3808,-0.2088,0.2322,0.28,-27.8438,-14.5125,-41.0813,,adl
14.494166,1.1664,0.1753,0.3808,-0.2088,0.2322,0.28,-28.0313,-13.1438,-40.9875,,adl
14.51865,1.1664,0.1753,0.3808,-0.2674,0.3522,0.2613,-28.0313,-13.1438,-40.9875,,adl
14.520299,0.5687,0.0599,0.3809,-0.2674,0.3522,0.2613,-28.0313,-13.1438,-40.9875,,adl
14.538808,0.5687,0.0599,0.3809,-0.2674,0.3522,0.2613,-28.0313,-13.1438,-40.9875,,adl
14.555007,0.5687,0.0599,0.3809,-0.2674,0.3522,0.2613,-27.7688,-11.5312,-41.1188,,adl
14.57803,0.5687,0.0599,0.3809,-0.2116,0.1407,0.1656,-27.7688,-11.5312,-41.1188,,adl
14.599897,0.5687,0.0599,0.3809,-0.2116,0.1407,0.1656,-27.7688,-11.5312,-41.1188,,adl
14.601505,0.2889,0.044,0.5597,-0.2116,0.1407,0.1656,-27.7688,-11.5312,-41.1188,,adl
14.614883,0.2889,0.044,0.5597,-0.2116,0.1407,0.1656,-27.6,-9.7688,-41.0813,,adl
14.640289,0.2889,0.044,0.5597,-0.2028,0.1836,0.0333,-27.6,-9.7688,-41.0813,,adl
14.660769,0.2889,0.044,0.5597,-0.2028,0.1836,0.0333,-27.6,-9.7688,-41.0813,,adl
14.662682,0.2541,-0.0488,0.3073,-0.2028,0.1836,0.0333,-27.6,-9.7688,-41.0813,,adl
14.675239,0.2541,-0.0488,0.3073,-0.2028,0.1836,0.0333,-27.1125,-8.4375,-41.4375,,adl
14.701077,0.2541,-0.0488,0.3073,-0.2188,0.1886,-0.0509,-27.1125,-8.4375,-41.4375,,adl
14.722271,0.2541,-0.0488,0.3073,-0.2188,0.1886,-0.0509,-27.1125,-8.4375,-41.4375,,adl
14.724079,0.3219,-0.0343,0.3586,-0.2188,0.1886,-0.0509,-27.1125,-8.4375,-41.4375,,adl
14.734717,0.3219,-0.0343,0.3586,-0.2188,0.1886,-0.0509,-26.7563,-7.275,-41.7375,,adl
14.761863,0.3219,-0.0343,0.3586,-0.2855,0.0391,-0.0545,-26.7563,-7.275,-41.7375,,adl
14.782606,0.3219,-0.0343,0.3586,-0.2855,0.0391,-0.0545,-26.7563,-7.275,-41.7375,,adl
14.784436,0.0829,0.1006,0.5305,-0.2855,0.0391,-0.0545,-26.7563,-7.275,-41.7375,,adl
14.794637,0.0829,0.1006,0.5305,-0.2855,0.0391,-0.0545,-26.2875,-6.4125,-41.8688,,adl
14.822944,0.0829,0.1006,0.5305,-0.453,0.0668,0.0603,-26.2875,-6.4125,-41.8688,,adl
14.844153,0.0829,0.1006,0.5305,-0.453,0.0668,0.0603,-26.2875,-6.4125,-41.8688,,adl
14.853302,0.0829,0.1006,0.5305,-0.453,0.0668,0.0603,-25.7438,-5.4188,-42.0938,,adl
14.862597,0.3936,0.1372,0.483,-0.453,0.0668,0.0603,-25.7438,-5.4188,-42.0938,,adl
14.882784,0.3936,0.1372,0.483,-0.7526,0.0423,0.3919,-25.7438,-5.4188,-42.0938,,adl
14.903926,0.3936,0.1372,0.483,-0.7526,0.0423,0.3919,-25.7438,-5.4188,-42.0938,,adl
14.914033,0.3936,0.1372,0.483,-0.7526,0.0423,0.3919,-25.3688,-4.425,-42.2625,,adl
14.924435,0.6639,0.2294,0.7493,-0.7526,0.0423,0.3919,-25.3688,-4.425,-42.2625,,adl
14.944864,0.6639,0.2294,0.7493,-1.0974,0.2294,0.4575,-25.3688,-4.425,-42.2625,,adl
14.96496,0.6639,0.2294,0.7493,-1.0974,0.2294,0.4575,-25.3688,-4.425,-42.2625,,adl
14.97427,0.6639,0.2294,0.7493,-1.0974,0.2294,0.4575,-24.9,-3.0188,-42.375,,adl
14.985784,0.623,-0.3156,0.8676,-1.0974,0.2294,0.4575,-24.9,-3.0188,-42.375,,adl
15.005329,0.623,-0.3156,0.8676,-1.3754,0.0477,0.6127,-24.9,-3.0188,-42.375,,adl
15.026572,0.623,-0.3156,0.8676,-1.3754,0.0477,0.6127,-24.9,-3.0188,-42.375,,adl
15.034783,0.623,-0.3156,0.8676,-1.3754,0.0477,0.6127,-24.3188,-1.2563,-42.2063,,adl
15.067662,0.623,-0.3156,0.8676,-1.4946,-0.2396,0.5438,-24.3188,-1.2563,-42.2063,,adl
15.06976,1.1478,-0.7471,0.3055,-1.4946,-0.2396,0.5438,-24.3188,-1.2563,-42.2063,,adl
15.087624,1.1478,-0.7471,0.3055,-1.4946,-0.2396,0.5438,-24.3188,-1.2563,-42.2063,,adl
15.09406,1.1478,-0.7471,0.3055,-1.4946,-0.2396,0.5438,-23.7375,0.7688,-41.8125,,adl
15.127668,1.286,-2.8664,1.4924,-1.4946,-0.2396,0.5438,-23.7375,0.7688,-41.8125,,adl
15.129649,1.286,-2.8664,1.4924,-1.4538,-0.9743,0.7546,-23.7375,0.7688,-41.8125,,adl
15.1479,1.286,-2.8664,1.4924,-1.4538,-0.9743,0.7546,-23.7375,0.7688,-41.8125,,adl
15.158073,1.286,-2.8664,1.4924,-1.4538,-0.9743,0.7546,-23.4375,3.4313,-40.6875,,adl
15.187983,1.286,-2.8664,1.4924,-1.6852,-2.1267,1.5854,-23.4375,3.4313,-40.6875,,adl
15.189484,0.609,-2.3755,-0.5147,-1.6852,-2.1267,1.5854,-23.4375,3.4313,-40.6875,,adl
15.2083,0.609,-2.3755,-0.5147,-1.6852,-2.1267,1.5854,-23.4375,3.4313,-40.6875,,adl
15.214675,0.609,-2.3755,-0.5147,-1.6852,-2.1267,1.5854,-23.0063,6.5813,-38.6625,,adl
15.249497,0.609,-2.3755,-0.5147,-2.5095,-0.396,1.9233,-23.0063,6.5813,-38.6625,,adl
15.252726,-0.9462,-3.9577,0.8462,-2.5095,-0.396,1.9233,-23.0063,6.5813,-38.6625,,adl
15.269976,-0.9462,-3.9577,0.8462,-2.5095,-0.396,1.9233,-23.0063,6.5813,-38.6625,,adl
15.272588,-0.9462,-3.9577,0.8462,-2.5095,-0.396,1.9233,-25.725,14.7188,-35.2313,,adl
15.310147,-0.9462,-3.9577,0.8462,-1.9277,-1.3425,0.5637,-25.725,14.7188,-35.2313,,adl
15.329609,-0.9462,-3.9577,0.8462,-1.9277,-1.3425,0.5637,-25.725,14.7188,-35.2313,,adl
15.330959,1.5827,-2.237,2.3256,-1.9277,-1.3425,0.5637,-25.725,14.7188,-35.2313,,adl
15.334036,1.5827,-2.237,2.3256,-1.9277,-1.3425,0.5637,-24.8063,18.6375,-31.5938,,adl
15.371535,1.5827,-2.237,2.3256,-0.7207,-1.7504,-0.9113,-24.8063,18.6375,-31.5938,,adl
15.392111,1.5827,-2.237,2.3256,-0.7207,-1.7504,-0.9113,-24.8063,18.6375,-31.5938,,adl
15.393562,4.455,1.9889,5.863,-0.7207,-1.7504,-0.9113,-24.8063,18.6375,-31.5938,,adl
15.394832,4.455,1.9889,5.863,-0.7207,-1.7504,-0.9113,-24.0938,22.0688,-27.3938,,adl
15.432449,4.455,1.9889,5.863,0.2282,-1.9872,-2.2504,-24.0938,22.0688,-27.3938,,adl
15.452604,4.455,1.9889,5.863,0.2282,-1.9872,-2.2504,-24.0938,22.0688,-27.3938,,adl
15.454422,4.9112,3.2045,5.9727,0.2282,-1.9872,-2.2504,-24.0938,22.0688,-27.3938,,adl
15.455791,4.9112,3.2045,5.9727,0.2282,-1.9872,-2.2504,-24.0938,24.375,-22.65,,adl
15.495633,4.9112,3.2045,5.9727,1.1711,-1.9619,-3.2324,-24.0938,24.375,-22.65,,adl
15.512984,4.9112,3.2045,5.9727,1.1711,-1.9619,-3.2324,-24.0938,24.375,-22.65,,adl
15.514171,4.9112,3.2045,5.9727,1.1711,-1.9619,-3.2324,-25.0875,25.125,-17.85,,adl
15.534666,1.6696,0.4547,4.644,1.1711,-1.9619,-3.2324,-25.0875,25.125,-17.85,,adl
15.554626,1.6696,0.4547,4.644,1.8385,0.3483,-3.3051,-25.0875,25.125,-17.85,,adl
15.575367,1.6696,0.4547,4.644,1.8385,0.3483,-3.3051,-29.175,25.7813,-13.95,,adl
15.576646,1.6696,0.4547,4.644,1.8385,0.3483,-3.3051,-29.175,25.7813,-13.95,,adl
15.596269,-2.4806,-2.1753,3.5873,1.8385,0.3483,-3.3051,-29.175,25.7813,-13.95,,adl
15.615405,-2.4806,-2.1753,3.5873,2.5257,0.7783,-1.5653,-29.175,25.7813,-13.95,,adl
15.634852,-2.4806,-2.1753,3.5873,2.5257,0.7783,-1.5653,-30.7875,23.2688,-10.725,,adl
15.636728,-2.4806,-2.1753,3.5873,2.5257,0.7783,-1.5653,-30.7875,23.2688,-10.725,,adl
15.65548,-6.8116,-4.6039,-0.3847,2.5257,0.7783,-1.5653,-30.7875,23.2688,-10.725,,adl
15.675938,-6.8116,-4.6039,-0.3847,2.9095,-1.0145,-1.1691,-30.7875,23.2688,-10.725,,adl
15.697203,-6.8116,-4.6039,-0.3847,2.9095,-1.0145,-1.1691,-32.475,19.875,-7.8563,,adl
15.699385,-6.8116,-4.6039,-0.3847,2.9095,-1.0145,-1.1691,-32.475,19.875,-7.8563,,adl
15.716521,-5.8951,-2.8899,-4.0936,2.9095,-1.0145,-1.1691,-32.475,19.875,-7.8563,,adl
15.736043,-5.8951,-2.8899,-4.0936,2.557,-1.0795,-1.9103,-32.475,19.875,-7.8563,,adl
15.753155,-5.8951,-2.8899,-4.0936,2.557,-1.0795,-1.9103,-35.1188,12.3375,-3.6375,,adl
15.754685,-5.8951,-2.8899,-4.0936,2.557,-1.0795,-1.9103,-35.1188,12.3375,-3.6375,,adl
15.79615,-5.8951,-2.8899,-4.0936,1.4878,-1.6329,-0.8258,-35.1188,12.3375,-3.6375,,adl
15.797774,-2.0385,-1.542,-6.0337,1.4878,-1.6329,-0.8258,-35.1188,12.3375,-3.6375,,adl
15.813421,-2.0385,-1.542,-6.0337,1.4878,-1.6329,-0.8258,-35.775,13.125,-1.275,,adl
15.817868,-2.0385,-1.542,-6.0337,1.4878,-1.6329,-0.8258,-35.775,13.125,-1.275,,adl
15.857184,-2.0385,-1.542,-6.0337,0.4213,-3.1019,0.5513,-35.775,13.125,-1.275,,adl
15.858772,-5.2299,-2.471,-8.3046,0.4213,-3.1019,0.5513,-35.775,13.125,-1.275,,adl
15.873346,-5.2299,-2.471,-8.3046,0.4213,-3.1019,0.5513,-37.6688,8.4,0.6,,adl
15.877447,-5.2299,-2.471,-8.3046,0.4213,-3.1019,0.5513,-37.6688,8.4,0.6,,adl
15.919401,-5.2299,-2.471,-8.3046,-0.1683,-0.5483,-1.076,-37.6688,8.4,0.6,,adl
15.922634,-6.103,-0.1666,-5.0057,-0.1683,-0.5483,-1.076,-37.6688,8.4,0.6,,adl
15.933416,-6.103,-0.1666,-5.0057,-0.1683,-0.5483,-1.076,-38.7563,4.1438,2.6438,,adl
15.938164,-6.103,-0.1666,-5.0057,-0.1683,-0.5483,-1.076,-38.7563,4.1438,2.6438,,adl
15.980006,-6.103,-0.1666,-5.0057,-0.3458,0.0913,1.1388,-38.7563,4.1438,2.6438,,adl
15.993384,-6.103,-0.1666,-5.0057,-0.3458,0.0913,1.1388,-39.0563,1.0125,4.275,,adl
15.999196,1.8435,-3.4286,-1.603,-0.3458,0.0913,1.1388,-39.0563,1.0125,4.275,,adl
15.999733,1.8435,-3.4286,-1.603,-0.3458,0.0913,1.1388,-39.0563,1.0125,4.275,,adl
16.040425,1.8435,-3.4286,-1.603,-0.1672,-0.0088,0.6091,-39.0563,1.0125,4.275,,adl
16.053329,1.8435,-3.4286,-1.603,-0.1672,-0.0088,0.6091,-38.7188,-0.4125,6.1688,,adl
16.060588,0.4107,0.1865,1.3241,-0.1672,-0.0088,0.6091,-38.7188,-0.4125,6.1688,,adl
16.061915,0.4107,0.1865,1.3241,-0.1672,-0.0088,0.6091,-38.7188,-0.4125,6.1688,,adl
16.101246,0.4107,0.1865,1.3241,-0.3447,0.2305,0.5931,-38.7188,-0.4125,6.1688,,adl
16.115203,0.4107,0.1865,1.3241,-0.3447,0.2305,0.5931,-38.2313,-0.7688,8.3625,,adl
16.122174,0.4107,0.1865,1.3241,-0.3447,0.2305,0.5931,-38.2313,-0.7688,8.3625,,adl
16.123707,1.1999,0.2768,0.3354,-0.3447,0.2305,0.5931,-38.2313,-0.7688,8.3625,,adl
16.161782,1.1999,0.2768,0.3354,-0.2593,-0.0336,0.2342,-38.2313,-0.7688,8.3625,,adl
16.173086,1.1999,0.2768,0.3354,-0.2593,-0.0336,0.2342,-37.9688,-0.8063,9.9938,,adl
16.182184,1.1999,0.2768,0.3354,-0.2593,-0.0336,0.2342,-37.9688,-0.8063,9.9938,,adl
16.183187,0.8672,0.2561,0.888,-0.2593,-0.0336,0.2342,-37.9688,-0.8063,9.9938,,adl
16.222042,0.8672,0.2561,0.888,-0.245,0.0792,0.3194,-37.9688,-0.8063,9.9938,,adl
16.234111,0.8672,0.2561,0.888,-0.245,0.0792,0.3194,-37.4813,-0.375,11.7375,,adl
16.244876,0.8672,0.2561,0.888,-0.245,0.0792,0.3194,-37.4813,-0.375,11.7375,,adl
16.264724,1.0536,0.1564,0.6074,-0.245,0.0792,0.3194,-37.4813,-0.375,11.7375,,adl
16.284024,1.0536,0.1564,0.6074,-0.2915,-0.1969,0.3844,-37.4813,-0.375,11.7375,,adl
16.294487,1.0536,0.1564,0.6074,-0.2915,-0.1969,0.3844,-36.9,0.4313,13.2375,,adl
16.304529,1.0536,0.1564,0.6074,-0.2915,-0.1969,0.3844,-36.9,0.4313,13.2375,,adl
16.324986,0.6477,0.3706,1.1881,-0.2915,-0.1969,0.3844,-36.9,0.4313,13.2375,,adl
16.345627,0.6477,0.3706,1.1881,-0.4615,-0.2072,0.4079,-36.9,0.4313,13.2375,,adl
16.355808,0.6477,0.3706,1.1881,-0.4615,-0.2072,0.4079,-36.5438,1.0312,14.0438,,adl
16.366551,0.6477,0.3706,1.1881,-0.4615,-0.2072,0.4079,-36.5438,1.0312,14.0438,,adl
16.385818,0.8553,0.1918,0.4722,-0.4615,-0.2072,0.4079,-36.5438,1.0312,14.0438,,adl
16.407428,0.8553,0.1918,0.4722,-0.4097,-0.1895,0.29,-36.5438,1.0312,14.0438,,adl
16.41481,0.8553,0.1918,0.4722,-0.4097,-0.1895,0.29,-36.4688,1.8375,14.0813,,adl
16.42609,0.8553,0.1918,0.4722,-0.4097,-0.1895,0.29,-36.4688,1.8375,14.0813,,adl
16.467971,0.8553,0.1918,0.4722,-0.5574,0.0846,0.2541,-36.4688,1.8375,14.0813,,adl
16.469767,0.8038,-0.1565,0.1175,-0.5574,0.0846,0.2541,-36.4688,1.8375,14.0813,,adl
16.472513,0.8038,-0.1565,0.1175,-0.5574,0.0846,0.2541,-36.3375,2.55,14.5688,,adl
16.489312,0.8038,-0.1565,0.1175,-0.5574,0.0846,0.2541,-36.3375,2.55,14.5688,,adl
16.528175,0.8038,-0.1565,0.1175,-1.0306,0.1201,0.4156,-36.3375,2.55,14.5688,,adl
16.530191,1.0457,0.1161,0.4264,-1.0306,0.1201,0.4156,-36.3375,2.55,14.5688,,adl
16.533541,1.0457,0.1161,0.4264,-1.0306,0.1201,0.4156,-36.1313,3.2063,15.0375,,adl
16.548336,1.0457,0.1161,0.4264,-1.0306,0.1201,0.4156,-36.1313,3.2063,15.0375,,adl
16.589993,1.0457,0.1161,0.4264,-1.3377,0.233,0.4526,-36.1313,3.2063,15.0375,,adl
16.592168,0.7413,0.2178,1.2899,-1.3377,0.233,0.4526,-36.1313,3.2063,15.0375,,adl
16.595118,0.7413,0.2178,1.2899,-1.3377,0.233,0.4526,-35.9813,3.4875,15.5813,,adl
16.609086,0.7413,0.2178,1.2899,-1.3377,0.233,0.4526,-35.9813,3.4875,15.5813,,adl
16.650026,0.7413,0.2178,1.2899,-1.5252,0.1333,0.4047,-35.9813,3.4875,15.5813,,adl
16.652274,0.7572,-1.5637,1.0348,-1.5252,0.1333,0.4047,-35.9813,3.4875,15.5813,,adl
16.653952,0.7572,-1.5637,1.0348,-1.5252,0.1333,0.4047,-35.6813,3.7125,16.125,,adl
16.670542,0.7572,-1.5637,1.0348,-1.5252,0.1333,0.4047,-35.6813,3.7125,16.125,,adl
16.714186,0.7572,-1.5637,1.0348,-1.8088,-0.5147,0.9485,-35.6813,3.7125,16.125,,adl
16.716307,0.7572,-1.5637,1.0348,-1.8088,-0.5147,0.9485,-36.6188,3.3188,13.3313,,adl
16.731518,0.7572,-1.5637,1.0348,-1.8088,-0.5147,0.9485,-36.6188,3.3188,13.3313,,adl
16.732946,2.1282,-3.3079,1.2997,-1.8088,-0.5147,0.9485,-36.6188,3.3188,13.3313,,adl
16.772601,2.1282,-3.3079,1.2997,-1.6337,-1.1678,1.0606,-36.6188,3.3188,13.3313,,adl
16.774869,2.1282,-3.3079,1.2997,-1.6337,-1.1678,1.0606,-36.2625,3.8438,14.2125,,adl
16.792403,2.1282,-3.3079,1.2997,-1.6337,-1.1678,1.0606,-36.2625,3.8438,14.2125,,adl
16.793408,2.0279,-2.682,4.0423,-1.6337,-1.1678,1.0606,-36.2625,3.8438,14.2125,,adl
16.83358,2.0279,-2.682,4.0423,-0.2531,-1.7589,0.0755,-36.2625,3.8438,14.2125,,adl
16.835917,2.0279,-2.682,4.0423,-0.2531,-1.7589,0.0755,-35.7563,4.95,15.6188,,adl
16.853252,2.0279,-2.682,4.0423,-0.2531,-1.7589,0.0755,-35.7563,4.95,15.6188,,adl
16.854608,1.3576,-0.4458,4.6455,-0.2531,-1.7589,0.0755,-35.7563,4.95,15.6188,,adl
16.895319,1.3576,-0.4458,4.6455,1.127,-1.0135,-1.2465,-35.7563,4.95,15.6188,,adl
16.897106,1.3576,-0.4458,4.6455,1.127,-1.0135,-1.2465,-33.825,5.4188,18.1313,,adl
16.915136,1.3576,-0.4458,4.6455,1.127,-1.0135,-1.2465,-33.825,5.4188,18.1313,,adl
16.935053,2.4992,1.8782,5.381,1.127,-1.0135,-1.2465,-33.825,5.4188,18.1313,,adl
16.955248,2.4992,1.8782,5.381,1.127,-1.0135,-1.2465,-33.7313,6.075,18.6562,,adl
16.958023,2.4992,1.8782,5.381,1.8771,0.1751,-1.5983,-33.7313,6.075,18.6562,,adl
16.975095,2.4992,1.8782,5.381,1.8771,0.1751,-1.5983,-33.7313,6.075,18.6562,,adl
16.995845,1.242,1.8852,2.0215,1.8771,0.1751,-1.5983,-33.7313,6.075,18.6562,,adl
17.016875,1.242,1.8852,2.0215,1.8771,0.1751,-1.5983,-33.9375,6.225,18.6375,,adl
17.019934,1.242,1.8852,2.0215,2.4658,0.9079,-1.5077,-33.9375,6.225,18.6375,,adl
17.035576,1.242,1.8852,2.0215,2.4658,0.9079,-1.5077,-33.9375,6.225,18.6375,,adl
17.055903,-1.7574,-2.4194,-0.796,2.4658,0.9079,-1.5077,-33.9375,6.225,18.6375,,adl
17.07374,-1.7574,-2.4194,-0.796,2.4658,0.9079,-1.5077,-34.5188,6.0375,18.075,,adl
17.075623,-1.7574,-2.4194,-0.796,2.901,0.8911,-1.7321,-34.5188,6.0375,18.075,,adl
17.095907,-1.7574,-2.4194,-0.796,2.901,0.8911,-1.7321,-34.5188,6.0375,18.075,,adl
17.116154,-2.1339,-2.9096,-4.0778,2.901,0.8911,-1.7321,-34.5188,6.0375,18.075,,adl
17.13461,-2.1339,-2.9096,-4.0778,2.901,0.8911,-1.7321,-35.2688,5.1938,16.95,,adl
17.13666,-2.1339,-2.9096,-4.0778,2.6568,0.8858,-1.741,-35.2688,5.1938,16.95,,adl
17.157388,-2.1339,-2.9096,-4.0778,2.6568,0.8858,-1.741,-35.2688,5.1938,16.95,,adl
17.194429,-2.1339,-2.9096,-4.0778,2.6568,0.8858,-1.741,-35.8313,3.6563,15.8438,,adl
17.199385,-2.1339,-2.9096,-4.0778,2.1243,0.0743,-1.4745,-35.8313,3.6563,15.8438,,adl
17.20134,0.1124,-2.2622,-6.2821,2.1243,0.0743,-1.4745,-35.8313,3.6563,15.8438,,adl
17.218522,0.1124,-2.2622,-6.2821,2.1243,0.0743,-1.4745,-35.8313,3.6563,15.8438,,adl
17.254763,0.1124,-2.2622,-6.2821,2.1243,0.0743,-1.4745,-36.2438,0.975,14.8125,,adl
17.259518,0.1124,-2.2622,-6.2821,0.7028,-0.2076,-0.5201,-36.2438,0.975,14.8125,,adl
17.260981,-3.2568,-3.5047,-6.9725,0.7028,-0.2076,-0.5201,-36.2438,0.975,14.8125,,adl
17.278983,-3.2568,-3.5047,-6.9725,0.7028,-0.2076,-0.5201,-36.2438,0.975,14.8125,,adl
17.314799,-3.2568,-3.5047,-6.9725,0.7028,-0.2076,-0.5201,-37.1063,-1.2188,13.4063,,adl
17.318806,-3.2568,-3.5047,-6.9725,-0.0093,-0.9353,0.2964,-37.1063,-1.2188,13.4063,,adl
17.319985,-3.7074,0.1451,-8.0948,-0.0093,-0.9353,0.2964,-37.1063,-1.2188,13.4063,,adl
17.340764,-3.7074,0.1451,-8.0948,-0.0093,-0.9353,0.2964,-37.1063,-1.2188,13.4063,,adl
17.37518,-3.7074,0.1451,-8.0948,-0.0093,-0.9353,0.2964,-37.8375,-3.6,11.85,,adl
17.380982,-3.7074,0.1451,-8.0948,-0.5702,0.3057,-0.0626,-37.8375,-3.6,11.85,,adl
17.400636,-3.7074,0.1451,-8.0948,-0.5702,0.3057,-0.0626,-37.8375,-3.6,11.85,,adl
17.40175,0.3076,-1.5411,0.4819,-0.5702,0.3057,-0.0626,-37.8375,-3.6,11.85,,adl
17.434743,0.3076,-1.5411,0.4819,-0.5702,0.3057,-0.0626,-38.0063,-5.4375,10.7063,,adl
17.441926,0.3076,-1.5411,0.4819,-0.6412,-0.7109,1.2854,-38.0063,-5.4375,10.7063,,adl
17.463054,0.3076,-1.5411,0.4819,-0.6412,-0.7109,1.2854,-38.0063,-5.4375,10.7063,,adl
17.465492,-0.1608,-1.7061,-0.8962,-0.6412,-0.7109,1.2854,-38.0063,-5.4375,10.7063,,adl
17.493533,-0.1608,-1.7061,-0.8962,-0.6412,-0.7109,1.2854,-38.025,-6.8625,10.2,,adl
17.50284,-0.1608,-1.7061,-0.8962,-0.4541,0.1325,0.5481,-38.025,-6.8625,10.2,,adl
17.52291,-0.1608,-1.7061,-0.8962,-0.4541,0.1325,0.5481,-38.025,-6.8625,10.2,,adl
17.524443,-0.2476,0.6941,0.9417,-0.4541,0.1325,0.5481,-38.025,-6.8625,10.2,,adl
17.55491,-0.2476,0.6941,0.9417,-0.4541,0.1325,0.5481,-37.7625,-7.7625,10.0312,,adl
17.564238,-0.2476,0.6941,0.9417,-0.2649,0.0931,0.5451,-37.7625,-7.7625,10.0312,,adl
17.583789,-0.2476,0.6941,0.9417,-0.2649,0.0931,0.5451,-37.7625,-7.7625,10.0312,,adl
17.585444,1.4737,-0.0283,0.4929,-0.2649,0.0931,0.5451,-37.7625,-7.7625,10.0312,,adl
17.616102,1.4737,-0.0283,0.4929,-0.2649,0.0931,0.5451,-37.2938,-7.9125,10.7812,,adl
17.6249,1.4737,-0.0283,0.4929,-0.2904,-0.0631,0.3101,-37.2938,-7.9125,10.7812,,adl
17.644286,1.4737,-0.0283,0.4929,-0.2904,-0.0631,0.3101,-37.2938,-7.9125,10.7812,,adl
17.666694,0.3678,-0.0645,0.8765,-0.2904,-0.0631,0.3101,-37.2938,-7.9125,10.7812,,adl
17.675103,0.3678,-0.0645,0.8765,-0.2904,-0.0631,0.3101,-36.9938,-7.4813,11.2688,,adl
17.685243,0.3678,-0.0645,0.8765,-0.2957,0.1698,0.2676,-36.9938,-7.4813,11.2688,,adl
17.705438,0.3678,-0.0645,0.8765,-0.2957,0.1698,0.2676,-36.9938,-7.4813,11.2688,,adl
17.725428,0.5152,0.5212,1.196,-0.2957,0.1698,0.2676,-36.9938,-7.4813,11.2688,,adl
17.736428,0.5152,0.5212,1.196,-0.2957,0.1698,0.2676,-36.75,-6.8438,11.6813,,adl
17.746159,0.5152,0.5212,1.196,-0.2028,-0.0158,0.1675,-36.75,-6.8438,11.6813,,adl
17.767425,0.5152,0.5212,1.196,-0.2028,-0.0158,0.1675,-36.75,-6.8438,11.6813,,adl
17.787101,0.4015,0.1424,0.7289,-0.2028,-0.0158,0.1675,-36.75,-6.8438,11.6813,,adl
17.792676,0.4015,0.1424,0.7289,-0.2028,-0.0158,0.1675,-36.6,-6.0563,11.6625,,adl
17.807283,0.4015,0.1424,0.7289,-0.2071,0.1981,0.1394,-36.6,-6.0563,11.6625,,adl
17.827636,0.4015,0.1424,0.7289,-0.2071,0.1981,0.1394,-36.6,-6.0563,11.6625,,adl
17.854161,0.4015,0.1424,0.7289,-0.2071,0.1981,0.1394,-36.4875,-5.025,11.5688,,adl
17.869182,0.5309,0.0948,0.552,-0.2071,0.1981,0.1394,-36.4875,-5.025,11.5688,,adl
17.871169,0.5309,0.0948,0.552,-0.092,0.1542,-0.1037,-36.4875,-5.025,11.5688,,adl
17.888025,0.5309,0.0948,0.552,-0.092,0.1542,-0.1037,-36.4875,-5.025,11.5688,,adl
17.915422,0.5309,0.0948,0.552,-0.092,0.1542,-0.1037,-36.5063,-4.5938,11.4,,adl
17.928357,0.5309,0.0948,0.552,-0.0664,0.1613,-0.2362,-36.5063,-4.5938,11.4,,adl
17.929369,0.2043,-0.0712,0.4065,-0.0664,0.1613,-0.2362,-36.5063,-4.5938,11.4,,adl
17.949191,0.2043,-0.0712,0.4065,-0.0664,0.1613,-0.2362,-36.5063,-4.5938,11.4,,adl
17.974567,0.2043,-0.0712,0.4065,-0.0664,0.1613,-0.2362,-36.5813,-4.4062,11.0063,,adl
17.989577,0.2043,-0.0712,0.4065,-0.1836,0.1491,-0.2393,-36.5813,-4.4062,11.0063,,adl
17.991318,0.0273,0.1137,0.6286,-0.1836,0.1491,-0.2393,-36.5813,-4.4062,11.0063,,adl
18.011045,0.0273,0.1137,0.6286,-0.1836,0.1491,-0.2393,-36.5813,-4.4062,11.0063,,adl
18.03462,0.0273,0.1137,0.6286,-0.1836,0.1491,-0.2393,-36.5625,-4.2938,10.8938,,adl
18.050261,0.0273,0.1137,0.6286,-0.3196,0.1368,-0.0775,-36.5625,-4.2938,10.8938,,adl
18.051813,0.1854,0.3119,0.727,-0.3196,0.1368,-0.0775,-36.5625,-4.2938,10.8938,,adl
18.070689,0.1854,0.3119,0.727,-0.3196,0.1368,-0.0775,-36.5625,-4.2938,10.8938,,adl
18.09422,0.1854,0.3119,0.727,-0.3196,0.1368,-0.0775,-36.5813,-4.2563,10.4813,,adl
18.112057,0.1854,0.3119,0.727,-0.202,0.0079,-0.0366,-36.5813,-4.2563,10.4813,,adl
18.131621,0.1854,0.3119,0.727,-0.202,0.0079,-0.0366,-36.5813,-4.2563,10.4813,,adl
18.133296,0.3701,0.1586,0.606,-0.202,0.0079,-0.0366,-36.5813,-4.2563,10.4813,,adl
18.15581,0.3701,0.1586,0.606,-0.202,0.0079,-0.0366,-36.675,-4.5188,10.1063,,adl
18.171773,0.3701,0.1586,0.606,-0.0778,0.021,-0.1097,-36.675,-4.5188,10.1063,,adl
18.193057,0.3701,0.1586,0.606,-0.0778,0.021,-0.1097,-36.675,-4.5188,10.1063,,adl
18.194527,0.1969,-0.0165,0.1324,-0.0778,0.021,-0.1097,-36.675,-4.5188,10.1063,,adl
18.215903,0.1969,-0.0165,0.1324,-0.0778,0.021,-0.1097,-36.8063,-5.0063,9.675,,adl
18.236292,0.1969,-0.0165,0.1324,-0.1091,0.096,-0.0867,-36.8063,-5.0063,9.675,,adl
18.255926,0.2115,0.062,0.2909,-0.1091,0.096,-0.0867,-36.8063,-5.0063,9.675,,adl
18.258195,0.2115,0.062,0.2909,-0.1091,0.096,-0.0867,-36.8063,-5.0063,9.675,,adl
18.275009,0.2115,0.062,0.2909,-0.1091,0.096,-0.0867,-36.9375,-5.5125,9.525,,adl
18.295107,0.2115,0.062,0.2909,-0.1001,0.0246,-0.0328,-36.9375,-5.5125,9.525,,adl
18.317575,0.2115,0.062,0.2909,-0.1001,0.0246,-0.0328,-36.9375,-5.5125,9.525,,adl
18.336506,0.2115,0.062,0.2909,-0.1001,0.0246,-0.0328,-37.0312,-6.0375,9.4313,,adl
18.338619,0.2209,0.0985,0.3945,-0.1001,0.0246,-0.0328,-37.0312,-6.0375,9.4313,,adl
18.355312,0.2209,0.0985,0.3945,-0.0722,0.0178,-0.0607,-37.0312,-6.0375,9.4313,,adl
18.375645,0.2209,0.0985,0.3945,-0.0722,0.0178,-0.0607,-37.0312,-6.0375,9.4313,,adl
18.395282,0.2209,0.0985,0.3945,-0.0722,0.0178,-0.0607,-37.125,-6.4313,9.3188,,adl
18.398008,0.0934,0.0234,0.2591,-0.0722,0.0178,-0.0607,-37.125,-6.4313,9.3188,,adl
18.416503,0.0934,0.0234,0.2591,-0.066,0.0534,-0.0427,-37.125,-6.4313,9.3188,,adl
18.436652,0.0934,0.0234,0.2591,-0.066,0.0534,-0.0427,-37.125,-6.4313,9.3188,,adl
18.455541,0.0934,0.0234,0.2591,-0.066,0.0534,-0.0427,-37.125,-6.6938,9.2812,,adl
18.457642,0.2074,0.0424,0.2071,-0.066,0.0534,-0.0427,-37.125,-6.6938,9.2812,,adl
18.476604,0.2074,0.0424,0.2071,-0.0541,0.0342,-0.0579,-37.125,-6.6938,9.2812,,adl
18.497196,0.2074,0.0424,0.2071,-0.0541,0.0342,-0.0579,-37.125,-6.6938,9.2812,,adl
18.51352,0.2074,0.0424,0.2071,-0.0541,0.0342,-0.0579,-37.0312,-6.975,9.4313,,adl
18.516413,0.1027,0.025,0.2505,-0.0541,0.0342,-0.0579,-37.0312,-6.975,9.4313,,adl
18.537942,0.1027,0.025,0.2505,-0.0405,0.0253,-0.0473,-37.0312,-6.975,9.4313,,adl
18.559694,0.1027,0.025,0.2505,-0.0405,0.0253,-0.0473,-37.0312,-6.975,9.4313,,adl
18.57539,0.1027,0.025,0.2505,-0.0405,0.0253,-0.0473,-36.9938,-7.2375,9.3188,,adl
18.598668,0.1027,0.025,0.2505,-0.0266,0.0221,-0.0473,-36.9938,-7.2375,9.3188,,adl
18.599826,0.1205,0.0352,0.1827,-0.0266,0.0221,-0.0473,-36.9938,-7.2375,9.3188,,adl
18.617757,0.1205,0.0352,0.1827,-0.0266,0.0221,-0.0473,-36.9938,-7.2375,9.3188,,adl
18.634617,0.1205,0.0352,0.1827,-0.0266,0.0221,-0.0473,-37.0125,-7.4063,9.3,,adl
18.661825,0.1205,0.0352,0.1827,-0.0242,0.0406,-0.0513,-37.0125,-7.4063,9.3,,adl
18.664064,0.1096,0.019,0.1533,-0.0242,0.0406,-0.0513,-37.0125,-7.4063,9.3,,adl
18.680229,0.1096,0.019,0.1533,-0.0242,0.0406,-0.0513,-37.0125,-7.4063,9.3,,adl
18.694453,0.1096,0.019,0.1533,-0.0242,0.0406,-0.0513,-36.9188,-7.3688,9.2812,,adl
18.720428,0.1096,0.019,0.1533,-0.0189,0.0274,-0.0413,-36.9188,-7.3688,9.2812,,adl
18.722013,0.0951,0.0217,0.1303,-0.0189,0.0274,-0.0413,-36.9188,-7.3688,9.2812,,adl
18.741142,0.0951,0.0217,0.1303,-0.0189,0.0274,-0.0413,-36.9188,-7.3688,9.2812,,adl
18.754242,0.0951,0.0217,0.1303,-0.0189,0.0274,-0.0413,-36.8813,-7.5,9.1688,,adl
18.781488,0.0951,0.0217,0.1303,-0.0072,0.036,-0.0455,-36.8813,-7.5,9.1688,,adl
18.78394,0.0836,0.0251,0.1474,-0.0072,0.036,-0.0455,-36.8813,-7.5,9.1688,,adl
18.80202,0.0836,0.0251,0.1474,-0.0072,0.036,-0.0455,-36.8813,-7.5,9.1688,,adl
18.815142,0.0836,0.0251,0.1474,-0.0072,0.036,-0.0455,-36.9375,-7.6125,9.0375,,adl
18.843899,0.0836,0.0251,0.1474,0.0064,0.0129,-0.0366,-36.9375,-7.6125,9.0375,,adl
18.863039,0.0836,0.0251,0.1474,0.0064,0.0129,-0.0366,-36.9375,-7.6125,9.0375,,adl
18.864214,0.0905,0.0107,0.0766,0.0064,0.0129,-0.0366,-36.9375,-7.6125,9.0375,,adl
18.874989,0.0905,0.0107,0.0766,0.0064,0.0129,-0.0366,-36.9938,-7.7063,9.0,,adl
18.903874,0.0905,0.0107,0.0766,-0.0036,0.0089,-0.0125,-36.9938,-7.7063,9.0,,adl
18.923565,0.0905,0.0107,0.0766,-0.0036,0.0089,-0.0125,-36.9938,-7.7063,9.0,,adl
18.925121,0.067,0.0401,0.1339,-0.0036,0.0089,-0.0125,-36.9938,-7.7063,9.0,,adl
18.934792,0.067,0.0401,0.1339,-0.0036,0.0089,-0.0125,-36.9938,-7.8,8.9062,,adl
18.964123,0.067,0.0401,0.1339,-0.0008,-0.0216,0.0081,-36.9938,-7.8,8.9062,,adl
18.984728,0.067,0.0401,0.1339,-0.0008,-0.0216,0.0081,-36.9938,-7.8,8.9062,,adl
18.985965,0.0806,0.0355,0.1052,-0.0008,-0.0216,0.0081,-36.9938,-7.8,8.9062,,adl
18.996053,0.0806,0.0355,0.1052,-0.0008,-0.0216,0.0081,-37.2,-7.9125,8.6813,,adl
19.027376,0.0806,0.0355,0.1052,0.0064,-0.0308,0.0177,-37.2,-7.9125,8.6813,,adl
19.04585,0.0806,0.0355,0.1052,0.0064,-0.0308,0.0177,-37.2,-7.9125,8.6813,,adl
19.056665,0.0806,0.0355,0.1052,0.0064,-0.0308,0.0177,-37.2563,-8.0625,8.85,,adl
19.065091,0.0732,0.0343,0.0877,0.0064,-0.0308,0.0177,-37.2563,-8.0625,8.85,,adl
19.087462,0.0732,0.0343,0.0877,0.016,-0.0361,0.0184,-37.2563,-8.0625,8.85,,adl
19.106509,0.0732,0.0343,0.0877,0.016,-0.0361,0.0184,-37.2563,-8.0625,8.85,,adl
19.112736,0.0732,0.0343,0.0877,0.016,-0.0361,0.0184,-37.3875,-8.2875,8.9438,,adl
19.126182,0.0625,0.0058,0.0656,0.016,-0.0361,0.0184,-37.3875,-8.2875,8.9438,,adl
19.146536,0.0625,0.0058,0.0656,0.0017,-0.0581,0.0465,-37.3875,-8.2875,8.9438,,adl
19.167247,0.0625,0.0058,0.0656,0.0017,-0.0581,0.0465,-37.3875,-8.2875,8.9438,,adl
19.173548,0.0625,0.0058,0.0656,0.0017,-0.0581,0.0465,-37.5,-8.4375,8.9625,,adl
19.186285,0.087,0.031,0.0875,0.0017,-0.0581,0.0465,-37.5,-8.4375,8.9625,,adl
19.207045,0.087,0.031,0.0875,-0.0132,0.0051,0.0561,-37.5,-8.4375,8.9625,,adl
19.228037,0.087,0.031,0.0875,-0.0132,0.0051,0.0561,-37.5,-8.4375,8.9625,,adl
19.23644,0.087,0.031,0.0875,-0.0132,0.0051,0.0561,-37.575,-8.2688,8.7563,,adl
19.247204,0.0664,0.053,0.0616,-0.0132,0.0051,0.0561,-37.575,-8.2688,8.7563,,adl
19.268818,0.0664,0.053,0.0616,0.0248,-0.0116,-0.0047,-37.575,-8.2688,8.7563,,adl
19.288973,0.0664,0.053,0.0616,0.0248,-0.0116,-0.0047,-37.575,-8.2688,8.7563,,adl
19.295192,0.0664,0.053,0.0616,0.0248,-0.0116,-0.0047,-37.5938,-8.1938,8.7938,,adl
19.330313,0.0664,0.053,0.0616,0.0316,0.0505,-0.0023,-37.5938,-8.1938,8.7938,,adl
19.333434,0.0077,-0.0896,-0.0381,0.0316,0.0505,-0.0023,-37.5938,-8.1938,8.7938,,adl
19.349692,0.0077,-0.0896,-0.0381,0.0316,0.0505,-0.0023,-37.5938,-8.1938,8.7938,,adl
19.353625,0.0077,-0.0896,-0.0381,0.0316,0.0505,-0.0023,-37.5,-8.2688,8.7563,,adl
19.390305,0.0077,-0.0896,-0.0381,0.0152,0.0366,0.0337,-37.5,-8.2688,8.7563,,adl
19.392793,0.0814,0.0219,0.0278,0.0152,0.0366,0.0337,-37.5,-8.2688,8.7563,,adl
19.4114,0.0814,0.0219,0.0278,0.0152,0.0366,0.0337,-37.5,-8.2688,8.7563,,adl
19.413725,0.0814,0.0219,0.0278,0.0152,0.0366,0.0337,-37.5188,-8.325,8.7938,,adl
19.452581,0.0814,0.0219,0.0278,0.0358,-0.0397,0.0169,-37.5188,-8.325,8.7938,,adl
19.455063,0.0221,0.0491,0.0725,0.0358,-0.0397,0.0169,-37.5188,-8.325,8.7938,,adl
19.471752,0.0221,0.0491,0.0725,0.0358,-0.0397,0.0169,-37.5188,-8.325,8.7938,,adl
19.473131,0.0221,0.0491,0.0725,0.0358,-0.0397,0.0169,-37.4062,-8.2125,8.7563,,adl
19.511192,0.0221,0.0491,0.0725,0.0422,0.0204,0.0141,-37.4062,-8.2125,8.7563,,adl
19.539758,0.0221,0.0491,0.0725,0.0422,0.0204,0.0141,-37.4062,-8.2125,8.7563,,adl
19.541453,0.0221,0.0491,0.0725,0.0422,0.0204,0.0141,-37.3875,-8.1188,8.5125,,adl
19.542166,0.0122,-0.0378,-0.0313,0.0422,0.0204,0.0141,-37.3875,-8.1188,8.5125,,adl
19.57375,0.0122,-0.0378,-0.0313,0.0593,0.1194,0.0348,-37.3875,-8.1188,8.5125,,adl
19.593431,0.0122,-0.0378,-0.0313,0.0593,0.1194,0.0348,-37.3875,-8.1188,8.5125,,adl
19.595238,0.0686,0.0115,-0.0295,0.0593,0.1194,0.0348,-37.3875,-8.1188,8.5125,,adl
19.596816,0.0686,0.0115,-0.0295,0.0593,0.1194,0.0348,-37.2188,-7.875,8.3063,,adl
19.64015,0.0686,0.0115,-0.0295,0.0923,0.0726,-0.0246,-37.2188,-7.875,8.3063,,adl
19.655695,0.0686,0.0115,-0.0295,0.0923,0.0726,-0.0246,-37.1813,-7.7063,8.1938,,adl
19.657558,0.0861,0.011,-0.0417,0.0923,0.0726,-0.0246,-37.1813,-7.7063,8.1938,,adl
19.659063,0.0861,0.011,-0.0417,0.0923,0.0726,-0.0246,-37.1813,-7.7063,8.1938,,adl
19.697988,0.0861,0.011,-0.0417,0.017,-0.0205,-0.004,-37.1813,-7.7063,8.1938,,adl
