time,ax,ay,az,wx,wy,wz,Bx,By,Bz,Unnamed: 10,label
0.072945,0.0,0.0,0.0,0.0,0.0,0.0,0.0,0.0,0.0,,adl
0.129152,0.0,0.0,0.0,0.0,0.0,0.0,10.65,2.8688,-40.1625,,adl
0.130527,0.0,0.0,0.0,0.0,0.0,0.0,10.65,2.8688,-40.1625,,adl
0.171324,0.0,0.0,0.0,0.0145,-0.0009,-0.015,10.65,2.8688,-40.1625,,adl
0.188416,0.0,0.0,0.0,0.0145,-0.0009,-0.015,11.7,2.8313,-40.0312,,adl
0.192165,0.0667,-0.084,-0.0268,0.0145,-0.0009,-0.015,11.7,2.8313,-40.0312,,adl
0.193492,0.0667,-0.084,-0.0268,0.0145,-0.0009,-0.015,11.7,2.8313,-40.0312,,adl
0.231832,0.0667,-0.084,-0.0268,0.0542,0.015,-0.0057,11.7,2.8313,-40.0312,,adl
0.24951,0.0667,-0.084,-0.0268,0.0542,0.015,-0.0057,11.7,3.0188,-40.4438,,adl
0.252508,0.0667,-0.084,-0.0268,0.0542,0.015,-0.0057,11.7,3.0188,-40.4438,,adl
0.272706,0.0717,-0.0459,-0.0224,0.0542,0.015,-0.0057,11.7,3.0188,-40.4438,,adl
0.293847,0.0717,-0.0459,-0.0224,0.084,0.0332,0.0088,11.7,3.0188,-40.4438,,adl
0.30884,0.0717,-0.0459,-0.0224,0.084,0.0332,0.0088,11.775,2.9438,-40.6125,,adl
0.313042,0.0717,-0.0459,-0.0224,0.084,0.0332,0.0088,11.775,2.9438,-40.6125,,adl
0.33453,0.0762,-0.042,-0.0214,0.084,0.0332,0.0088,11.775,2.9438,-40.6125,,adl
0.353986,0.0762,-0.042,-0.0214,0.1004,0.0441,0.0329,11.775,2.9438,-40.6125,,adl
0.37116,0.0762,-0.042,-0.0214,0.1004,0.0441,0.0329,11.5875,2.8313,-40.5188,,adl
0.374997,0.0762,-0.042,-0.0214,0.1004,0.0441,0.0329,11.5875,2.8313,-40.5188,,adl
0.395312,0.0479,0.0002,0.0112,0.1004,0.0441,0.0329,11.5875,2.8313,-40.5188,,adl
0.415797,0.0479,0.0002,0.0112,0.068,0.0001,0.0507,11.5875,2.8313,-40.5188,,adl
0.429458,0.0479,0.0002,0.0112,0.068,0.0001,0.0507,11.6063,2.625,-40.4625,,adl
0.435066,0.0479,0.0002,0.0112,0.068,0.0001,0.0507,11.6063,2.625,-40.4625,,adl
0.45798,0.0524,0.0209,0.0486,0.068,0.0001,0.0507,11.6063,2.625,-40.4625,,adl
0.476562,0.0524,0.0209,0.0486,-0.0021,-0.0802,0.0784,11.6063,2.625,-40.4625,,adl
0.489158,0.0524,0.0209,0.0486,-0.0021,-0.0802,0.0784,11.6438,2.4563,-40.35,,adl
0.498565,0.0524,0.0209,0.0486,-0.0021,-0.0802,0.0784,11.6438,2.4563,-40.35,,adl
0.537619,0.0524,0.0209,0.0486,-0.0605,-0.1497,0.1061,11.6438,2.4563,-40.35,,adl
0.538962,0.2275,-0.0029,0.1402,-0.0605,-0.1497,0.1061,11.6438,2.4563,-40.35,,adl
0.54919,0.2275,-0.0029,0.1402,-0.0605,-0.1497,0.1061,11.5688,2.4188,-40.35,,adl
0.557832,0.2275,-0.0029,0.1402,-0.0605,-0.1497,0.1061,11.5688,2.4188,-40.35,,adl
0.598494,0.2275,-0.0029,0.1402,-0.0413,-0.073,0.1763,11.5688,2.4188,-40.35,,adl
0.600037,-0.4003,-0.0912,-0.2333,-0.0413,-0.073,0.1763,11.5688,2.4188,-40.35,,adl
0.608672,-0.4003,-0.0912,-0.2333,-0.0413,-0.073,0.1763,11.7188,2.3438,-40.2375,,adl
0.617101,-0.4003,-0.0912,-0.2333,-0.0413,-0.073,0.1763,11.7188,2.3438,-40.2375,,adl
0.659768,-0.4003,-0.0912,-0.2333,-0.0125,-0.1047,-0.1133,11.7188,2.3438,-40.2375,,adl
0.66172,0.0015,0.0666,0.0818,-0.0125,-0.1047,-0.1133,11.7188,2.3438,-40.2375,,adl
0.669349,0.0015,0.0666,0.0818,-0.0125,-0.1047,-0.1133,11.5875,2.3625,-40.4062,,adl
0.678568,0.0015,0.0666,0.0818,-0.0125,-0.1047,-0.1133,11.5875,2.3625,-40.4062,,adl
0.720695,0.0015,0.0666,0.0818,-0.0451,-0.0617,-0.1033,11.5875,2.3625,-40.4062,,adl
0.728497,0.0015,0.0666,0.0818,-0.0451,-0.0617,-0.1033,11.4938,2.25,-40.1813,,adl
0.740292,0.0015,0.0666,0.0818,-0.0451,-0.0617,-0.1033,11.4938,2.25,-40.1813,,adl
0.741917,-0.1749,-0.0137,-0.0397,-0.0451,-0.0617,-0.1033,11.4938,2.25,-40.1813,,adl
0.781603,-0.1749,-0.0137,-0.0397,-0.0569,0.0558,-0.1361,11.4938,2.25,-40.1813,,adl
0.790737,-0.1749,-0.0137,-0.0397,-0.0569,0.0558,-0.1361,11.3438,2.2875,-40.2,,adl
0.801806,-0.1749,-0.0137,-0.0397,-0.0569,0.0558,-0.1361,11.3438,2.2875,-40.2,,adl
0.802818,-0.1835,0.032,0.1103,-0.0569,0.0558,-0.1361,11.3438,2.2875,-40.2,,adl
0.841697,-0.1835,0.032,0.1103,-0.0675,-0.0879,-0.287,11.3438,2.2875,-40.2,,adl
0.84888,-0.1835,0.032,0.1103,-0.0675,-0.0879,-0.287,11.4563,2.3063,-40.2563,,adl
0.862412,-0.1046,-0.0115,-0.0114,-0.0675,-0.0879,-0.287,11.4563,2.3063,-40.2563,,adl
0.863202,-0.1046,-0.0115,-0.0114,-0.0675,-0.0879,-0.287,11.4563,2.3063,-40.2563,,adl
0.902771,-0.1046,-0.0115,-0.0114,-0.0967,-0.061,-0.3746,11.4563,2.3063,-40.2563,,adl
0.90773,-0.1046,-0.0115,-0.0114,-0.0967,-0.061,-0.3746,11.175,2.4938,-40.425,,adl
0.92331,-0.1046,-0.0115,-0.0114,-0.0967,-0.061,-0.3746,11.175,2.4938,-40.425,,adl
0.924317,-0.3009,-0.0727,0.1244,-0.0967,-0.061,-0.3746,11.175,2.4938,-40.425,,adl
0.964573,-0.3009,-0.0727,0.1244,-0.0935,-0.2519,-0.5784,11.175,2.4938,-40.425,,adl
0.969918,-0.3009,-0.0727,0.1244,-0.0935,-0.2519,-0.5784,10.9875,2.8125,-40.575,,adl
0.983741,-0.3009,-0.0727,0.1244,-0.0935,-0.2519,-0.5784,10.9875,2.8125,-40.575,,adl
1.005542,-0.4721,0.1089,-0.0441,-0.0935,-0.2519,-0.5784,10.9875,2.8125,-40.575,,adl
1.025021,-0.4721,0.1089,-0.0441,-0.2031,-0.2353,-0.7846,10.9875,2.8125,-40.575,,adl
1.027594,-0.4721,0.1089,-0.0441,-0.2031,-0.2353,-0.7846,10.725,3.2438,-40.6313,,adl
1.045022,-0.4721,0.1089,-0.0441,-0.2031,-0.2353,-0.7846,10.725,3.2438,-40.6313,,adl
1.065381,-1.246,0.1467,-0.1656,-0.2031,-0.2353,-0.7846,10.725,3.2438,-40.6313,,adl
1.085543,-1.246,0.1467,-0.1656,-0.6571,-0.1454,-1.1084,10.725,3.2438,-40.6313,,adl
1.089219,-1.246,0.1467,-0.1656,-0.6571,-0.1454,-1.1084,10.1625,3.7875,-40.7438,,adl
1.105937,-1.246,0.1467,-0.1656,-0.6571,-0.1454,-1.1084,10.1625,3.7875,-40.7438,,adl
1.126225,-2.9515,-0.9413,0.7886,-0.6571,-0.1454,-1.1084,10.1625,3.7875,-40.7438,,adl
1.147208,-2.9515,-0.9413,0.7886,-1.3281,0.0726,-1.2695,10.1625,3.7875,-40.7438,,adl
1.149277,-2.9515,-0.9413,0.7886,-1.3281,0.0726,-1.2695,9.675,4.7063,-40.4438,,adl
1.166684,-2.9515,-0.9413,0.7886,-1.3281,0.0726,-1.2695,9.675,4.7063,-40.4438,,adl
1.206681,-2.9515,-0.9413,0.7886,-0.9358,2.4372,-0.9017,9.675,4.7063,-40.4438,,adl
1.209301,-2.0032,-2.3562,0.2415,-0.9358,2.4372,-0.9017,9.675,4.7063,-40.4438,,adl
1.210507,-2.0032,-2.3562,0.2415,-0.9358,2.4372,-0.9017,9.5063,6.15,-40.1438,,adl
1.228867,-2.0032,-2.3562,0.2415,-0.9358,2.4372,-0.9017,9.5063,6.15,-40.1438,,adl
1.267775,-2.0032,-2.3562,0.2415,-1.5457,-0.9321,-0.4424,9.5063,6.15,-40.1438,,adl
1.269803,-4.2747,0.0199,0.2603,-1.5457,-0.9321,-0.4424,9.5063,6.15,-40.1438,,adl
1.271374,-4.2747,0.0199,0.2603,-1.5457,-0.9321,-0.4424,9.5813,7.725,-39.45,,adl
1.290236,-4.2747,0.0199,0.2603,-1.5457,-0.9321,-0.4424,9.5813,7.725,-39.45,,adl
1.3314,-4.2747,0.0199,0.2603,-1.5457,-0.9321,-0.4424,8.7188,9.7875,-38.7188,,adl
1.332764,-4.2747,0.0199,0.2603,-1.0108,-2.9183,-0.4609,8.7188,9.7875,-38.7188,,adl
1.333601,-1.4248,0.8499,3.3072,-1.0108,-2.9183,-0.4609,8.7188,9.7875,-38.7188,,adl
1.349856,-1.4248,0.8499,3.3072,-1.0108,-2.9183,-0.4609,8.7188,9.7875,-38.7188,,adl
1.389947,-0.2589,0.9703,2.4999,-1.0108,-2.9183,-0.4609,8.7188,9.7875,-38.7188,,adl
1.390737,-0.2589,0.9703,2.4999,0.2229,-1.2524,0.5438,8.7188,9.7875,-38.7188,,adl
1.391161,-0.2589,0.9703,2.4999,0.2229,-1.2524,0.5438,15.6938,6.2438,-9.375,,adl
1.410199,-0.2589,0.9703,2.4999,0.2229,-1.2524,0.5438,15.6938,6.2438,-9.375,,adl
1.451165,-0.2589,0.9703,2.4999,0.2229,-1.2524,0.5438,14.2313,7.5938,-8.6813,,adl
1.45211,-0.2589,0.9703,2.4999,1.2251,-0.0297,1.165,14.2313,7.5938,-8.6813,,adl
1.471189,-0.2589,0.9703,2.4999,1.2251,-0.0297,1.165,14.2313,7.5938,-8.6813,,adl
1.47205,-0.58,0.3294,0.6889,1.2251,-0.0297,1.165,14.2313,7.5938,-8.6813,,adl
1.508911,-0.58,0.3294,0.6889,1.2251,-0.0297,1.165,13.05,8.1188,-8.0625,,adl
1.512816,-0.58,0.3294,0.6889,1.6486,-0.4184,1.8758,13.05,8.1188,-8.0625,,adl
1.532309,1.0852,-1.4211,-1.452,1.6486,-0.4184,1.8758,13.05,8.1188,-8.0625,,adl
1.533736,1.0852,-1.4211,-1.452,1.6486,-0.4184,1.8758,13.05,8.1188,-8.0625,,adl
1.569215,1.0852,-1.4211,-1.452,1.6486,-0.4184,1.8758,11.9625,7.9313,-7.7063,,adl
1.57262,1.0852,-1.4211,-1.452,1.6152,-1.088,2.0231,11.9625,7.9313,-7.7063,,adl
1.593387,3.2514,-2.3371,-2.3639,1.6152,-1.088,2.0231,11.9625,7.9313,-7.7063,,adl
1.594295,3.2514,-2.3371,-2.3639,1.6152,-1.088,2.0231,11.9625,7.9313,-7.7063,,adl
1.629879,3.2514,-2.3371,-2.3639,1.6152,-1.088,2.0231,5.0813,12.5813,-38.175,,adl
1.633921,3.2514,-2.3371,-2.3639,1.5183,-1.1838,1.7345,5.0813,12.5813,-38.175,,adl
1.652958,3.2514,-2.3371,-2.3639,1.5183,-1.1838,1.7345,5.0813,12.5813,-38.175,,adl
1.674495,4.0532,-2.5174,-3.9384,1.5183,-1.1838,1.7345,5.0813,12.5813,-38.175,,adl
1.6896,4.0532,-2.5174,-3.9384,1.5183,-1.1838,1.7345,4.5188,8.3438,-40.7438,,adl
1.696863,4.0532,-2.5174,-3.9384,1.273,-0.5047,1.3713,4.5188,8.3438,-40.7438,,adl
1.71476,4.0532,-2.5174,-3.9384,1.273,-0.5047,1.3713,4.5188,8.3438,-40.7438,,adl
1.735501,5.6169,-1.464,-3.6812,1.273,-0.5047,1.3713,4.5188,8.3438,-40.7438,,adl
1.749446,5.6169,-1.464,-3.6812,1.273,-0.5047,1.3713,1.7813,5.7188,-40.725,,adl
1.754485,5.6169,-1.464,-3.6812,0.8349,0.1928,0.624,1.7813,5.7188,-40.725,,adl
1.776419,5.6169,-1.464,-3.6812,0.8349,0.1928,0.624,1.7813,5.7188,-40.725,,adl
1.796249,5.4062,-0.4365,-4.8557,0.8349,0.1928,0.624,1.7813,5.7188,-40.725,,adl
1.809157,5.4062,-0.4365,-4.8557,0.8349,0.1928,0.624,0.1875,2.7188,-40.8,,adl
1.816056,5.4062,-0.4365,-4.8557,-0.0274,0.593,-0.1063,0.1875,2.7188,-40.8,,adl
1.836866,5.4062,-0.4365,-4.8557,-0.0274,0.593,-0.1063,0.1875,2.7188,-40.8,,adl
1.858156,-0.2615,-2.1963,0.881,-0.0274,0.593,-0.1063,0.1875,2.7188,-40.8,,adl
1.869319,-0.2615,-2.1963,0.881,-0.0274,0.593,-0.1063,-0.4875,-0.2063,-41.0063,,adl
1.878397,-0.2615,-2.1963,0.881,-0.1953,1.548,0.1955,-0.4875,-0.2063,-41.0063,,adl
1.898522,-0.2615,-2.1963,0.881,-0.1953,1.548,0.1955,-0.4875,-0.2063,-41.0063,,adl
1.929911,-0.2615,-2.1963,0.881,-0.1953,1.548,0.1955,-0.9,-2.3438,-41.0813,,adl
1.93802,-0.2615,-2.1963,0.881,-0.982,-0.2345,0.237,-0.9,-2.3438,-41.0813,,adl
1.938984,-1.3555,-0.4344,-0.8136,-0.982,-0.2345,0.237,-0.9,-2.3438,-41.0813,,adl
1.958307,-1.3555,-0.4344,-0.8136,-0.982,-0.2345,0.237,-0.9,-2.3438,-41.0813,,adl
1.99001,-1.3555,-0.4344,-0.8136,-0.982,-0.2345,0.237,-1.5188,-3.5813,-41.025,,adl
1.999865,-1.3555,-0.4344,-0.8136,-0.8041,0.3147,-0.0871,-1.5188,-3.5813,-41.025,,adl
2.000908,-1.6057,0.8566,-0.1306,-0.8041,0.3147,-0.0871,-1.5188,-3.5813,-41.025,,adl
2.019979,-1.6057,0.8566,-0.1306,-0.8041,0.3147,-0.0871,-1.5188,-3.5813,-41.025,,adl
2.049324,-1.6057,0.8566,-0.1306,-0.8041,0.3147,-0.0871,-1.9688,-3.8813,-40.9125,,adl
2.060411,-1.6057,0.8566,-0.1306,-0.6017,0.0089,-0.3121,-1.9688,-3.8813,-40.9125,,adl
2.062002,0.1128,-0.6233,0.4326,-0.6017,0.0089,-0.3121,-1.9688,-3.8813,-40.9125,,adl
2.079954,0.1128,-0.6233,0.4326,-0.6017,0.0089,-0.3121,-1.9688,-3.8813,-40.9125,,adl
2.10858,0.1128,-0.6233,0.4326,-0.6017,0.0089,-0.3121,-1.6875,-3.2625,-40.5188,,adl
2.120842,0.1128,-0.6233,0.4326,-0.3324,0.1623,-0.2802,-1.6875,-3.2625,-40.5188,,adl
2.142962,0.1128,-0.6233,0.4326,-0.3324,0.1623,-0.2802,-1.6875,-3.2625,-40.5188,,adl
2.143835,-1.049,0.4052,0.2698,-0.3324,0.1623,-0.2802,-1.6875,-3.2625,-40.5188,,adl
2.168726,-1.049,0.4052,0.2698,-0.3324,0.1623,-0.2802,-1.0312,-2.3438,-40.4625,,adl
2.181809,-1.049,0.4052,0.2698,-0.3284,0.2866,-0.3565,-1.0312,-2.3438,-40.4625,,adl
2.202364,-0.7179,0.3442,0.7071,-0.3284,0.2866,-0.3565,-1.0312,-2.3438,-40.4625,,adl
2.203618,-0.7179,0.3442,0.7071,-0.3284,0.2866,-0.3565,-1.0312,-2.3438,-40.4625,,adl
2.229961,-0.7179,0.3442,0.7071,-0.3284,0.2866,-0.3565,-0.0563,-1.0688,-40.3875,,adl
2.24344,-0.7179,0.3442,0.7071,-0.4123,0.1574,-0.3807,-0.0563,-1.0688,-40.3875,,adl
2.263865,-0.7179,0.3442,0.7071,-0.4123,0.1574,-0.3807,-0.0563,-1.0688,-40.3875,,adl
2.265396,-0.342,0.1054,0.3166,-0.4123,0.1574,-0.3807,-0.0563,-1.0688,-40.3875,,adl
2.290539,-0.342,0.1054,0.3166,-0.4123,0.1574,-0.3807,0.5438,0.1688,-40.2188,,adl
2.304102,-0.342,0.1054,0.3166,-0.3657,0.1921,-0.3356,0.5438,0.1688,-40.2188,,adl
2.326924,-0.342,0.1054,0.3166,-0.3657,0.1921,-0.3356,0.5438,0.1688,-40.2188,,adl
2.328658,-0.4788,0.1307,0.1892,-0.3657,0.1921,-0.3356,0.5438,0.1688,-40.2188,,adl
2.352046,-0.4788,0.1307,0.1892,-0.3657,0.1921,-0.3356,0.7688,1.5563,-39.9,,adl
2.366472,-0.4788,0.1307,0.1892,-0.42,0.1478,-0.4289,0.7688,1.5563,-39.9,,adl
2.387171,-0.4788,0.1307,0.1892,-0.42,0.1478,-0.4289,0.7688,1.5563,-39.9,,adl
2.406384,-0.7173,0.3206,0.5959,-0.42,0.1478,-0.4289,0.7688,1.5563,-39.9,,adl
2.410329,-0.7173,0.3206,0.5959,-0.42,0.1478,-0.4289,0.9375,2.8313,-39.5625,,adl
2.426115,-0.7173,0.3206,0.5959,-0.7172,0.1864,-0.7424,0.9375,2.8313,-39.5625,,adl
2.451646,-0.7173,0.3206,0.5959,-0.7172,0.1864,-0.7424,0.9375,2.8313,-39.5625,,adl
2.469041,-0.7173,0.3206,0.5959,-0.7172,0.1864,-0.7424,1.1063,4.0875,-39.15,,adl
2.471064,-1.0984,-0.0318,1.0647,-0.7172,0.1864,-0.7424,1.1063,4.0875,-39.15,,adl
2.488113,-1.0984,-0.0318,1.0647,-1.1144,0.381,-1.3498,1.1063,4.0875,-39.15,,adl
2.50758,-1.0984,-0.0318,1.0647,-1.1144,0.381,-1.3498,1.1063,4.0875,-39.15,,adl
2.530043,-2.4043,-1.1288,0.8353,-1.1144,0.381,-1.3498,1.1063,4.0875,-39.15,,adl
2.531861,-2.4043,-1.1288,0.8353,-1.1144,0.381,-1.3498,1.1813,5.2313,-38.4938,,adl
2.550634,-2.4043,-1.1288,0.8353,-1.2987,1.0473,-1.5018,1.1813,5.2313,-38.4938,,adl
2.569626,-2.4043,-1.1288,0.8353,-1.2987,1.0473,-1.5018,1.1813,5.2313,-38.4938,,adl
2.590841,-2.4043,-1.1288,0.8353,-1.2987,1.0473,-1.5018,1.4625,6.675,-37.7812,,adl
2.608594,-2.4043,-1.1288,0.8353,-1.2819,1.9043,-1.0449,1.4625,6.675,-37.7812,,adl
2.609698,-0.4669,-4.678,1.4079,-1.2819,1.9043,-1.0449,1.4625,6.675,-37.7812,,adl
2.629995,-0.4669,-4.678,1.4079,-1.2819,1.9043,-1.0449,1.4625,6.675,-37.7812,,adl
2.652782,-0.4669,-4.678,1.4079,-1.2819,1.9043,-1.0449,2.3813,8.8125,-36.8438,,adl
2.671695,-0.4669,-4.678,1.4079,-1.2876,1.7428,-0.6888,2.3813,8.8125,-36.8438,,adl
2.674546,-2.5203,-1.0537,2.6171,-1.2876,1.7428,-0.6888,2.3813,8.8125,-36.8438,,adl
2.693237,-2.5203,-1.0537,2.6171,-1.2876,1.7428,-0.6888,2.3813,8.8125,-36.8438,,adl
2.710131,-2.5203,-1.0537,2.6171,-1.2876,1.7428,-0.6888,3.3,11.2313,-35.85,,adl
2.731995,-2.5203,-1.0537,2.6171,-0.124,1.6185,-0.2013,3.3,11.2313,-35.85,,adl
2.734299,-2.8396,2.4737,4.2323,-0.124,1.6185,-0.2013,3.3,11.2313,-35.85,,adl
2.75262,-2.8396,2.4737,4.2323,-0.124,1.6185,-0.2013,3.3,11.2313,-35.85,,adl
2.770802,-2.8396,2.4737,4.2323,-0.124,1.6185,-0.2013,4.7625,13.2938,-34.8188,,adl
2.792982,-2.8396,2.4737,4.2323,1.1232,1.4112,1.0468,4.7625,13.2938,-34.8188,,adl
2.796499,-1.7096,2.1115,3.9389,1.1232,1.4112,1.0468,4.7625,13.2938,-34.8188,,adl
2.81155,-1.7096,2.1115,3.9389,1.1232,1.4112,1.0468,4.7625,13.2938,-34.8188,,adl
2.829613,-1.7096,2.1115,3.9389,1.1232,1.4112,1.0468,7.8188,15.4313,-35.6438,,adl
2.852481,-1.7096,2.1115,3.9389,1.6574,0.1077,1.5165,7.8188,15.4313,-35.6438,,adl
2.873228,-1.7096,2.1115,3.9389,1.6574,0.1077,1.5165,7.8188,15.4313,-35.6438,,adl
2.874763,0.7142,-0.7457,1.0875,1.6574,0.1077,1.5165,7.8188,15.4313,-35.6438,,adl
2.891818,0.7142,-0.7457,1.0875,1.6574,0.1077,1.5165,9.975,16.5375,-35.5875,,adl
2.913446,0.7142,-0.7457,1.0875,2.1633,0.5467,1.8513,9.975,16.5375,-35.5875,,adl
2.934215,0.7142,-0.7457,1.0875,2.1633,0.5467,1.8513,9.975,16.5375,-35.5875,,adl
2.936158,3.0207,-2.0416,-0.5831,2.1633,0.5467,1.8513,9.975,16.5375,-35.5875,,adl
2.950717,3.0207,-2.0416,-0.5831,2.1633,0.5467,1.8513,12.2813,18.9188,-37.0875,,adl
2.975398,3.0207,-2.0416,-0.5831,2.3823,0.6792,1.9928,12.2813,18.9188,-37.0875,,adl
2.995288,3.0207,-2.0416,-0.5831,2.3823,0.6792,1.9928,12.2813,18.9188,-37.0875,,adl
2.996868,2.157,-2.0337,-1.0582,2.3823,0.6792,1.9928,12.2813,18.9188,-37.0875,,adl
3.009518,2.157,-2.0337,-1.0582,2.3823,0.6792,1.9928,15.2625,17.175,-37.3313,,adl
3.035405,2.157,-2.0337,-1.0582,2.0522,-0.7674,1.6911,15.2625,17.175,-37.3313,,adl
3.055633,2.157,-2.0337,-1.0582,2.0522,-0.7674,1.6911,15.2625,17.175,-37.3313,,adl
3.069918,2.157,-2.0337,-1.0582,2.0522,-0.7674,1.6911,17.5125,13.9875,-37.8938,,adl
3.075431,2.4683,-2.3206,-3.0447,2.0522,-0.7674,1.6911,17.5125,13.9875,-37.8938,,adl
3.096228,2.4683,-2.3206,-3.0447,1.7331,-0.8501,1.2008,17.5125,13.9875,-37.8938,,adl
3.11712,2.4683,-2.3206,-3.0447,1.7331,-0.8501,1.2008,17.5125,13.9875,-37.8938,,adl
3.130482,2.4683,-2.3206,-3.0447,1.7331,-0.8501,1.2008,19.0312,9.6375,-38.7188,,adl
3.13655,3.8352,-1.7766,-4.9914,1.7331,-0.8501,1.2008,19.0312,9.6375,-38.7188,,adl
3.157336,3.8352,-1.7766,-4.9914,1.2659,0.3029,0.712,19.0312,9.6375,-38.7188,,adl
3.177331,3.8352,-1.7766,-4.9914,1.2659,0.3029,0.712,19.0312,9.6375,-38.7188,,adl
3.190126,3.8352,-1.7766,-4.9914,1.2659,0.3029,0.712,20.4375,4.275,-39.5438,,adl
3.196229,3.3663,-0.0131,-6.0966,1.2659,0.3029,0.712,20.4375,4.275,-39.5438,,adl
3.217959,3.3663,-0.0131,-6.0966,0.1728,0.7758,0.0369,20.4375,4.275,-39.5438,,adl
3.237966,3.3663,-0.0131,-6.0966,0.1728,0.7758,0.0369,20.4375,4.275,-39.5438,,adl
3.249321,3.3663,-0.0131,-6.0966,0.1728,0.7758,0.0369,21.4875,-0.6562,-40.4062,,adl
3.258383,-1.4695,-0.8173,0.5834,0.1728,0.7758,0.0369,21.4875,-0.6562,-40.4062,,adl
3.277677,-1.4695,-0.8173,0.5834,-0.1403,2.1212,-0.0537,21.4875,-0.6562,-40.4062,,adl
3.299666,-1.4695,-0.8173,0.5834,-0.1403,2.1212,-0.0537,21.4875,-0.6562,-40.4062,,adl
3.309434,-1.4695,-0.8173,0.5834,-0.1403,2.1212,-0.0537,22.5375,-5.3063,-40.7063,,adl
3.341698,-1.4695,-0.8173,0.5834,-0.9493,-0.3408,-0.2659,22.5375,-5.3063,-40.7063,,adl
3.344139,0.9464,-1.4147,-1.1883,-0.9493,-0.3408,-0.2659,22.5375,-5.3063,-40.7063,,adl
3.362427,0.9464,-1.4147,-1.1883,-0.9493,-0.3408,-0.2659,22.5375,-5.3063,-40.7063,,adl
3.369883,0.9464,-1.4147,-1.1883,-0.9493,-0.3408,-0.2659,23.2875,-9.0,-40.9313,,adl
3.400311,0.9464,-1.4147,-1.1883,-0.8645,0.141,0.4273,23.2875,-9.0,-40.9313,,adl
3.402351,-1.4542,-0.3602,-0.9128,-0.8645,0.141,0.4273,23.2875,-9.0,-40.9313,,adl
3.421418,-1.4542,-0.3602,-0.9128,-0.8645,0.141,0.4273,23.2875,-9.0,-40.9313,,adl
3.432535,-1.4542,-0.3602,-0.9128,-0.8645,0.141,0.4273,23.6625,-11.775,-40.725,,adl
3.463135,-1.4542,-0.3602,-0.9128,-0.4847,0.8223,0.078,23.6625,-11.775,-40.725,,adl
3.467412,-1.1096,0.6999,0.7116,-0.4847,0.8223,0.078,23.6625,-11.775,-40.725,,adl
3.483168,-1.1096,0.6999,0.7116,-0.4847,0.8223,0.078,23.6625,-11.775,-40.725,,adl
3.490663,-1.1096,0.6999,0.7116,-0.4847,0.8223,0.078,24.2063,-13.1813,-40.2938,,adl
3.524624,-1.1096,0.6999,0.7116,-0.473,-0.0911,-0.3181,24.2063,-13.1813,-40.2938,,adl
3.546681,-1.1096,0.6999,0.7116,-0.473,-0.0911,-0.3181,24.2063,-13.1813,-40.2938,,adl
3.549179,-0.5041,0.0417,-0.008,-0.473,-0.0911,-0.3181,24.2063,-13.1813,-40.2938,,adl
3.550278,-0.5041,0.0417,-0.008,-0.473,-0.0911,-0.3181,25.0875,-13.65,-39.7875,,adl
3.586891,-0.5041,0.0417,-0.008,-0.2024,0.4357,-0.2774,25.0875,-13.65,-39.7875,,adl
3.6034,-0.5041,0.0417,-0.008,-0.2024,0.4357,-0.2774,25.0875,-13.65,-39.7875,,adl
3.604113,-0.8301,0.3097,0.8336,-0.2024,0.4357,-0.2774,25.0875,-13.65,-39.7875,,adl
3.60859,-0.8301,0.3097,0.8336,-0.2024,0.4357,-0.2774,26.2313,-13.2563,-39.2438,,adl
3.643815,-0.8301,0.3097,0.8336,-0.3614,-0.0158,-0.3469,26.2313,-13.2563,-39.2438,,adl
3.663665,-0.8301,0.3097,0.8336,-0.3614,-0.0158,-0.3469,26.2313,-13.2563,-39.2438,,adl
3.664306,-0.204,0.169,0.5543,-0.3614,-0.0158,-0.3469,26.2313,-13.2563,-39.2438,,adl
3.669382,-0.204,0.169,0.5543,-0.3614,-0.0158,-0.3469,27.2625,-12.0375,-39.0,,adl
3.70468,-0.204,0.169,0.5543,-0.3944,0.0377,-0.2712,27.2625,-12.0375,-39.0,,adl
3.724448,-0.204,0.169,0.5543,-0.3944,0.0377,-0.2712,27.2625,-12.0375,-39.0,,adl
3.725561,-0.6073,0.1124,0.3051,-0.3944,0.0377,-0.2712,27.2625,-12.0375,-39.0,,adl
3.728555,-0.6073,0.1124,0.3051,-0.3944,0.0377,-0.2712,28.2188,-10.9313,-38.775,,adl
3.765944,-0.6073,0.1124,0.3051,-0.3053,-0.0482,-0.4268,28.2188,-10.9313,-38.775,,adl
3.785928,-0.6073,0.1124,0.3051,-0.3053,-0.0482,-0.4268,28.2188,-10.9313,-38.775,,adl
3.788857,-0.6073,0.1124,0.3051,-0.3053,-0.0482,-0.4268,28.725,-9.4875,-38.85,,adl
3.806251,-0.6298,0.3029,0.3345,-0.3053,-0.0482,-0.4268,28.725,-9.4875,-38.85,,adl
3.826504,-0.6298,0.3029,0.3345,-0.321,0.2177,-0.5699,28.725,-9.4875,-38.85,,adl
3.846726,-0.6298,0.3029,0.3345,-0.321,0.2177,-0.5699,28.725,-9.4875,-38.85,,adl
3.849487,-0.6298,0.3029,0.3345,-0.321,0.2177,-0.5699,29.1375,-8.1375,-39.0,,adl
3.867669,-1.0286,0.4512,0.8016,-0.321,0.2177,-0.5699,29.1375,-8.1375,-39.0,,adl
3.887567,-1.0286,0.4512,0.8016,-0.7292,-0.1149,-0.9589,29.1375,-8.1375,-39.0,,adl
3.907104,-1.0286,0.4512,0.8016,-0.7292,-0.1149,-0.9589,29.1375,-8.1375,-39.0,,adl
3.908774,-1.0286,0.4512,0.8016,-0.7292,-0.1149,-0.9589,29.6063,-6.375,-39.15,,adl
3.927381,-0.4742,-0.1663,0.4111,-0.7292,-0.1149,-0.9589,29.6063,-6.375,-39.15,,adl
3.947908,-0.4742,-0.1663,0.4111,-0.8013,0.3065,-1.2316,29.6063,-6.375,-39.15,,adl
3.968888,-0.4742,-0.1663,0.4111,-0.8013,0.3065,-1.2316,29.85,-4.5,-39.2625,,adl
3.969738,-0.4742,-0.1663,0.4111,-0.8013,0.3065,-1.2316,29.85,-4.5,-39.2625,,adl
4.009875,-0.4742,-0.1663,0.4111,-0.6085,0.4491,-1.3746,29.85,-4.5,-39.2625,,adl
4.010871,-0.3086,-1.1018,0.406,-0.6085,0.4491,-1.3746,29.85,-4.5,-39.2625,,adl
4.029729,-0.3086,-1.1018,0.406,-0.6085,0.4491,-1.3746,30.0938,-2.1375,-39.2812,,adl
4.031864,-0.3086,-1.1018,0.406,-0.6085,0.4491,-1.3746,30.0938,-2.1375,-39.2812,,adl
4.078214,-0.3086,-1.1018,0.406,-0.453,0.359,-1.5231,30.0938,-2.1375,-39.2812,,adl
4.082525,-1.2436,-2.6862,1.3964,-0.453,0.359,-1.5231,30.0938,-2.1375,-39.2812,,adl
4.091138,-1.2436,-2.6862,1.3964,-0.453,0.359,-1.5231,30.225,0.5813,-39.1688,,adl
4.092697,-1.2436,-2.6862,1.3964,-0.453,0.359,-1.5231,30.225,0.5813,-39.1688,,adl
4.131888,-1.2436,-2.6862,1.3964,-0.573,0.1932,-1.9671,30.225,0.5813,-39.1688,,adl
4.135435,-3.1753,-1.7703,1.5508,-0.573,0.1932,-1.9671,30.225,0.5813,-39.1688,,adl
4.150859,-3.1753,-1.7703,1.5508,-0.573,0.1932,-1.9671,30.3,3.3,-38.7375,,adl
4.153507,-3.1753,-1.7703,1.5508,-0.573,0.1932,-1.9671,30.3,3.3,-38.7375,,adl
4.193374,-3.1753,-1.7703,1.5508,-1.0437,0.0672,-1.9028,30.3,3.3,-38.7375,,adl
4.196243,-6.3453,-0.9946,1.72,-1.0437,0.0672,-1.9028,30.3,3.3,-38.7375,,adl
4.209536,-6.3453,-0.9946,1.72,-1.0437,0.0672,-1.9028,30.2063,6.4125,-38.025,,adl
4.211248,-6.3453,-0.9946,1.72,-1.0437,0.0672,-1.9028,30.2063,6.4125,-38.025,,adl
4.253941,-6.3453,-0.9946,1.72,-1.1464,-2.8004,-2.2248,30.2063,6.4125,-38.025,,adl
4.271645,-6.3453,-0.9946,1.72,-1.1464,-2.8004,-2.2248,28.9313,10.0875,-37.5563,,adl
4.274737,-6.3453,-0.9946,1.72,-1.1464,-2.8004,-2.2248,28.9313,10.0875,-37.5563,,adl
4.275972,-5.068,0.4471,2.6918,-1.1464,-2.8004,-2.2248,28.9313,10.0875,-37.5563,,adl
4.314917,-5.068,0.4471,2.6918,0.4117,-2.2818,-0.6991,28.9313,10.0875,-37.5563,,adl
4.329697,-5.068,0.4471,2.6918,0.4117,-2.2818,-0.6991,25.0313,14.5875,-38.625,,adl
4.334237,-4.1419,3.2332,2.852,0.4117,-2.2818,-0.6991,25.0313,14.5875,-38.625,,adl
4.335794,-4.1419,3.2332,2.852,0.4117,-2.2818,-0.6991,25.0313,14.5875,-38.625,,adl
4.375185,-4.1419,3.2332,2.852,1.8221,-1.8445,0.3674,25.0313,14.5875,-38.625,,adl
4.390477,-4.1419,3.2332,2.852,1.8221,-1.8445,0.3674,22.7438,16.575,-39.3,,adl
4.394929,-4.1419,3.2332,2.852,1.8221,-1.8445,0.3674,22.7438,16.575,-39.3,,adl
4.395864,-4.287,1.2162,-0.8286,1.8221,-1.8445,0.3674,22.7438,16.575,-39.3,,adl
4.43719,-4.287,1.2162,-0.8286,2.3944,-2.158,1.1526,22.7438,16.575,-39.3,,adl
4.448863,-4.287,1.2162,-0.8286,2.3944,-2.158,1.1526,20.4938,16.7812,-39.3,,adl
4.456577,-4.287,1.2162,-0.8286,2.3944,-2.158,1.1526,20.4938,16.7812,-39.3,,adl
4.476507,-2.1129,-1.1746,-5.5665,2.3944,-2.158,1.1526,20.4938,16.7812,-39.3,,adl
4.497089,-2.1129,-1.1746,-5.5665,2.0625,-2.3273,1.7727,20.4938,16.7812,-39.3,,adl
4.509409,-2.1129,-1.1746,-5.5665,2.0625,-2.3273,1.7727,18.0563,15.45,-39.3938,,adl
4.517608,-2.1129,-1.1746,-5.5665,2.0625,-2.3273,1.7727,18.0563,15.45,-39.3938,,adl
4.537684,-0.23,-2.1202,-6.1508,2.0625,-2.3273,1.7727,18.0563,15.45,-39.3938,,adl
4.55815,-0.23,-2.1202,-6.1508,1.5221,-2.8307,1.8108,18.0563,15.45,-39.3938,,adl
4.570553,-0.23,-2.1202,-6.1508,1.5221,-2.8307,1.8108,15.7875,14.1938,-41.1,,adl
4.578947,-0.23,-2.1202,-6.1508,1.5221,-2.8307,1.8108,15.7875,14.1938,-41.1,,adl
4.598304,-0.1528,-2.223,-5.9392,1.5221,-2.8307,1.8108,15.7875,14.1938,-41.1,,adl
4.617934,-0.1528,-2.223,-5.9392,0.8452,-4.0504,1.5765,15.7875,14.1938,-41.1,,adl
4.628645,-0.1528,-2.223,-5.9392,0.8452,-4.0504,1.5765,11.5125,10.0875,-41.8313,,adl
4.639853,-0.1528,-2.223,-5.9392,0.8452,-4.0504,1.5765,11.5125,10.0875,-41.8313,,adl
4.659706,1.057,-1.705,-7.3526,0.8452,-4.0504,1.5765,11.5125,10.0875,-41.8313,,adl
4.679074,1.057,-1.705,-7.3526,0.0593,-4.7218,1.2012,11.5125,10.0875,-41.8313,,adl
4.690362,1.057,-1.705,-7.3526,0.0593,-4.7218,1.2012,0.5438,0.825,-11.85,,adl
4.698428,1.057,-1.705,-7.3526,0.0593,-4.7218,1.2012,0.5438,0.825,-11.85,,adl
4.747042,1.057,-1.705,-7.3526,-0.632,-5.0632,0.7437,0.5438,0.825,-11.85,,adl
4.748419,1.8736,-0.8366,-7.319,-0.632,-5.0632,0.7437,0.5438,0.825,-11.85,,adl
4.749007,1.8736,-0.8366,-7.319,-0.632,-5.0632,0.7437,-6.0938,-4.6313,-11.3813,,adl
4.759155,1.8736,-0.8366,-7.319,-0.632,-5.0632,0.7437,-6.0938,-4.6313,-11.3813,,adl
4.799932,1.9491,0.389,-9.7178,-0.632,-5.0632,0.7437,-6.0938,-4.6313,-11.3813,,adl
4.800808,1.9491,0.389,-9.7178,-1.502,-3.9489,0.2072,-6.0938,-4.6313,-11.3813,,adl
4.810149,1.9491,0.389,-9.7178,-1.502,-3.9489,0.2072,-6.7313,-7.1063,-31.3688,,adl
4.822156,1.9491,0.389,-9.7178,-1.502,-3.9489,0.2072,-6.7313,-7.1063,-31.3688,,adl
4.8613,1.9491,0.389,-9.7178,-1.5042,-1.5065,-0.0714,-6.7313,-7.1063,-31.3688,,adl
4.862294,3.8079,-3.7681,-2.0455,-1.5042,-1.5065,-0.0714,-6.7313,-7.1063,-31.3688,,adl
4.867888,3.8079,-3.7681,-2.0455,-1.5042,-1.5065,-0.0714,-13.0125,-11.8125,-28.7813,,adl
4.881597,3.8079,-3.7681,-2.0455,-1.5042,-1.5065,-0.0714,-13.0125,-11.8125,-28.7813,,adl
4.923418,3.8079,-3.7681,-2.0455,-0.8726,0.3956,0.383,-13.0125,-11.8125,-28.7813,,adl
4.925545,1.2135,-0.1197,0.0805,-0.8726,0.3956,0.383,-13.0125,-11.8125,-28.7813,,adl
4.929825,1.2135,-0.1197,0.0805,-0.8726,0.3956,0.383,-19.875,-15.15,-26.2125,,adl
4.943423,1.2135,-0.1197,0.0805,-0.8726,0.3956,0.383,-19.875,-15.15,-26.2125,,adl
4.984227,1.2135,-0.1197,0.0805,-0.5233,0.0068,0.5111,-19.875,-15.15,-26.2125,,adl
4.989949,1.2135,-0.1197,0.0805,-0.5233,0.0068,0.5111,-26.5313,-17.3438,-23.5688,,adl
5.004542,1.2135,-0.1197,0.0805,-0.5233,0.0068,0.5111,-26.5313,-17.3438,-23.5688,,adl
5.006402,-0.5406,-0.4549,0.5129,-0.5233,0.0068,0.5111,-26.5313,-17.3438,-23.5688,,adl
5.045059,-0.5406,-0.4549,0.5129,-0.573,-0.3748,0.2641,-26.5313,-17.3438,-23.5688,,adl
5.053349,-0.5406,-0.4549,0.5129,-0.573,-0.3748,0.2641,-32.775,-12.3563,-29.5313,,adl
5.065488,-0.5406,-0.4549,0.5129,-0.573,-0.3748,0.2641,-32.775,-12.3563,-29.5313,,adl
5.066076,0.6347,-0.2191,1.1865,-0.573,-0.3748,0.2641,-32.775,-12.3563,-29.5313,,adl
5.105324,0.6347,-0.2191,1.1865,-0.5144,-0.3197,0.2438,-32.775,-12.3563,-29.5313,,adl
5.109581,0.6347,-0.2191,1.1865,-0.5144,-0.3197,0.2438,-37.7625,-12.1313,-26.5875,,adl
5.124866,0.6347,-0.2191,1.1865,-0.5144,-0.3197,0.2438,-37.7625,-12.1313,-26.5875,,adl
5.125997,0.0994,0.0615,0.7891,-0.5144,-0.3197,0.2438,-37.7625,-12.1313,-26.5875,,adl
5.166526,0.0994,0.0615,0.7891,-0.5105,-0.6393,-0.0142,-37.7625,-12.1313,-26.5875,,adl
5.169721,0.0994,0.0615,0.7891,-0.5105,-0.6393,-0.0142,-41.2688,-11.4563,-24.075,,adl
5.186199,0.0994,0.0615,0.7891,-0.5105,-0.6393,-0.0142,-41.2688,-11.4563,-24.075,,adl
5.20609,1.0579,-0.6945,0.6493,-0.5105,-0.6393,-0.0142,-41.2688,-11.4563,-24.075,,adl
5.226053,1.0579,-0.6945,0.6493,-0.1956,-0.1281,0.12,-41.2688,-11.4563,-24.075,,adl
5.229059,1.0579,-0.6945,0.6493,-0.1956,-0.1281,0.12,-41.1938,-16.8563,-13.1063,,adl
5.247828,1.0579,-0.6945,0.6493,-0.1956,-0.1281,0.12,-41.1938,-16.8563,-13.1063,,adl
5.267256,0.162,-0.1683,0.7031,-0.1956,-0.1281,0.12,-41.1938,-16.8563,-13.1063,,adl
5.287325,0.162,-0.1683,0.7031,-0.185,-0.4373,-0.0324,-41.1938,-16.8563,-13.1063,,adl
5.288244,0.162,-0.1683,0.7031,-0.185,-0.4373,-0.0324,-41.9438,-15.8625,-12.9,,adl
5.308559,0.162,-0.1683,0.7031,-0.185,-0.4373,-0.0324,-41.9438,-15.8625,-12.9,,adl
5.329765,0.7215,-0.2951,0.6793,-0.185,-0.4373,-0.0324,-41.9438,-15.8625,-12.9,,adl
5.349932,0.7215,-0.2951,0.6793,-0.185,-0.4373,-0.0324,-42.375,-14.9063,-12.6375,,adl
5.351258,0.7215,-0.2951,0.6793,-0.1165,-0.3567,-0.0004,-42.375,-14.9063,-12.6375,,adl
5.369521,0.7215,-0.2951,0.6793,-0.1165,-0.3567,-0.0004,-42.375,-14.9063,-12.6375,,adl
5.409872,0.7215,-0.2951,0.6793,-0.1498,-0.3653,-0.1403,-42.375,-14.9063,-12.6375,,adl
5.410751,0.7215,-0.2951,0.6793,-0.1498,-0.3653,-0.1403,-39.1875,-19.7625,1.9313,,adl
5.411122,0.1448,-0.0156,0.6101,-0.1498,-0.3653,-0.1403,-39.1875,-19.7625,1.9313,,adl
5.43073,0.1448,-0.0156,0.6101,-0.1498,-0.3653,-0.1403,-39.1875,-19.7625,1.9313,,adl
5.470828,0.1448,-0.0156,0.6101,-0.1498,-0.3653,-0.1403,-39.825,-19.1438,2.5688,,adl
5.471718,0.1448,-0.0156,0.6101,-0.3735,-0.6325,-0.4732,-39.825,-19.1438,2.5688,,adl
5.472069,-0.0767,-0.0361,0.7391,-0.3735,-0.6325,-0.4732,-39.825,-19.1438,2.5688,,adl
5.49119,-0.0767,-0.0361,0.7391,-0.3735,-0.6325,-0.4732,-39.825,-19.1438,2.5688,,adl
5.528977,-0.0767,-0.0361,0.7391,-0.3735,-0.6325,-0.4732,-40.4062,-18.975,3.1313,,adl
5.530963,-0.0872,-0.1659,0.2239,-0.3735,-0.6325,-0.4732,-40.4062,-18.975,3.1313,,adl
5.532122,-0.0872,-0.1659,0.2239,-0.3369,-0.6687,-0.7573,-40.4062,-18.975,3.1313,,adl
5.551534,-0.0872,-0.1659,0.2239,-0.3369,-0.6687,-0.7573,-40.4062,-18.975,3.1313,,adl
5.589448,-0.0872,-0.1659,0.2239,-0.3369,-0.6687,-0.7573,-40.725,-19.3688,4.1625,,adl
5.592695,0.9145,-1.1219,1.6891,-0.3369,-0.6687,-0.7573,-40.725,-19.3688,4.1625,,adl
5.593901,0.9145,-1.1219,1.6891,-0.3665,-0.8963,-1.1116,-40.725,-19.3688,4.1625,,adl
5.612697,0.9145,-1.1219,1.6891,-0.3665,-0.8963,-1.1116,-40.725,-19.3688,4.1625,,adl
5.649331,0.9145,-1.1219,1.6891,-0.3665,-0.8963,-1.1116,-40.6688,-20.5125,6.0563,,adl
5.652582,0.9145,-1.1219,1.6891,-0.5137,-1.592,-1.2469,-40.6688,-20.5125,6.0563,,adl
5.673305,0.9145,-1.1219,1.6891,-0.5137,-1.592,-1.2469,-40.6688,-20.5125,6.0563,,adl
5.674209,-0.5738,-0.9289,1.0524,-0.5137,-1.592,-1.2469,-40.6688,-20.5125,6.0563,,adl
5.70903,-0.5738,-0.9289,1.0524,-0.5137,-1.592,-1.2469,-40.4062,-21.9188,8.4375,,adl
5.712995,-0.5738,-0.9289,1.0524,-0.2348,-1.1298,-1.2972,-40.4062,-21.9188,8.4375,,adl
5.735742,-0.5738,-0.9289,1.0524,-0.2348,-1.1298,-1.2972,-40.4062,-21.9188,8.4375,,adl
5.737663,-2.5304,-0.04,-0.8471,-0.2348,-1.1298,-1.2972,-40.4062,-21.9188,8.4375,,adl
5.768826,-2.5304,-0.04,-0.8471,-0.2348,-1.1298,-1.2972,-40.0125,-24.225,11.5688,,adl
5.777691,-2.5304,-0.04,-0.8471,-0.6324,-2.2967,-1.6189,-40.0125,-24.225,11.5688,,adl
5.795813,-2.5304,-0.04,-0.8471,-0.6324,-2.2967,-1.6189,-40.0125,-24.225,11.5688,,adl
5.798921,-3.9596,0.2376,-0.7867,-0.6324,-2.2967,-1.6189,-40.0125,-24.225,11.5688,,adl
5.829572,-3.9596,0.2376,-0.7867,-0.6324,-2.2967,-1.6189,-39.4688,-20.1562,0.3188,,adl
5.835812,-3.9596,0.2376,-0.7867,-1.0012,-4.2332,-1.0686,-39.4688,-20.1562,0.3188,,adl
5.857694,-4.0235,1.7205,0.9449,-1.0012,-4.2332,-1.0686,-39.4688,-20.1562,0.3188,,adl
5.861369,-4.0235,1.7205,0.9449,-1.0012,-4.2332,-1.0686,-39.4688,-20.1562,0.3188,,adl
5.891271,-4.0235,1.7205,0.9449,-1.0012,-4.2332,-1.0686,-37.7812,-21.6938,3.75,,adl
5.899121,-4.0235,1.7205,0.9449,-0.6803,-4.3167,-0.7498,-37.7812,-21.6938,3.75,,adl
5.916906,-4.0235,1.7205,0.9449,-0.6803,-4.3167,-0.7498,-37.7812,-21.6938,3.75,,adl
5.938338,-3.0632,1.338,0.1679,-0.6803,-4.3167,-0.7498,-37.7812,-21.6938,3.75,,adl
5.949223,-3.0632,1.338,0.1679,-0.6803,-4.3167,-0.7498,-39.5813,-20.775,-0.2812,,adl
5.957681,-3.0632,1.338,0.1679,0.1409,-3.0256,-0.0381,-39.5813,-20.775,-0.2812,,adl
5.978439,-3.0632,1.338,0.1679,0.1409,-3.0256,-0.0381,-39.5813,-20.775,-0.2812,,adl
5.998862,-2.7077,0.8891,-0.9847,0.1409,-3.0256,-0.0381,-39.5813,-20.775,-0.2812,,adl
6.010134,-2.7077,0.8891,-0.9847,0.1409,-3.0256,-0.0381,-36.1313,-22.4625,5.7375,,adl
6.01854,-2.7077,0.8891,-0.9847,0.8153,-2.2549,0.6581,-36.1313,-22.4625,5.7375,,adl
6.040434,-2.7077,0.8891,-0.9847,0.8153,-2.2549,0.6581,-36.1313,-22.4625,5.7375,,adl
6.060713,-1.9992,-0.1811,-2.3215,0.8153,-2.2549,0.6581,-36.1313,-22.4625,5.7375,,adl
6.068046,-1.9992,-0.1811,-2.3215,0.8153,-2.2549,0.6581,-32.3063,-22.7812,11.7563,,adl
6.080284,-1.9992,-0.1811,-2.3215,0.8736,-2.6915,1.1388,-32.3063,-22.7812,11.7563,,adl
6.100509,-1.9992,-0.1811,-2.3215,0.8736,-2.6915,1.1388,-32.3063,-22.7812,11.7563,,adl
6.129674,-1.9992,-0.1811,-2.3215,0.8736,-2.6915,1.1388,-27.75,-21.525,17.25,,adl
6.1416,0.5992,-1.2563,-2.9871,0.8736,-2.6915,1.1388,-27.75,-21.525,17.25,,adl
6.142735,0.5992,-1.2563,-2.9871,1.1995,-1.947,1.6528,-27.75,-21.525,17.25,,adl
6.161199,0.5992,-1.2563,-2.9871,1.1995,-1.947,1.6528,-27.75,-21.525,17.25,,adl
6.191542,0.5992,-1.2563,-2.9871,1.1995,-1.947,1.6528,-22.6313,-19.0688,22.6125,,adl
6.202309,3.5608,-2.3979,-2.4345,1.1995,-1.947,1.6528,-22.6313,-19.0688,22.6125,,adl
6.204207,3.5608,-2.3979,-2.4345,1.6414,-0.6159,1.9737,-22.6313,-19.0688,22.6125,,adl
6.22207,3.5608,-2.3979,-2.4345,1.6414,-0.6159,1.9737,-22.6313,-19.0688,22.6125,,adl
6.250704,3.5608,-2.3979,-2.4345,1.6414,-0.6159,1.9737,-18.5813,-15.0563,28.3313,,adl
6.265112,3.5608,-2.3979,-2.4345,1.4381,-0.7258,1.5498,-18.5813,-15.0563,28.3313,,adl
6.26785,5.574,-3.9703,-4.6592,1.4381,-0.7258,1.5498,-18.5813,-15.0563,28.3313,,adl
6.282473,5.574,-3.9703,-4.6592,1.4381,-0.7258,1.5498,-18.5813,-15.0563,28.3313,,adl
6.30983,5.574,-3.9703,-4.6592,1.4381,-0.7258,1.5498,-13.3125,-10.2375,31.8188,,adl
6.324178,5.574,-3.9703,-4.6592,0.28,-1.0834,0.324,-13.3125,-10.2375,31.8188,,adl
6.325563,7.4564,-1.7435,-7.7369,0.28,-1.0834,0.324,-13.3125,-10.2375,31.8188,,adl
6.3425,7.4564,-1.7435,-7.7369,0.28,-1.0834,0.324,-13.3125,-10.2375,31.8188,,adl
6.368811,7.4564,-1.7435,-7.7369,0.28,-1.0834,0.324,-8.475,-5.3625,34.0125,,adl
6.386031,7.4564,-1.7435,-7.7369,-0.3008,0.7598,-0.1399,-8.475,-5.3625,34.0125,,adl
6.404069,7.4564,-1.7435,-7.7369,-0.3008,0.7598,-0.1399,-8.475,-5.3625,34.0125,,adl
6.40494,0.3122,-1.8535,-0.1459,-0.3008,0.7598,-0.1399,-8.475,-5.3625,34.0125,,adl
6.430185,0.3122,-1.8535,-0.1459,-0.3008,0.7598,-0.1399,-5.1562,-0.3375,35.0813,,adl
6.445161,0.3122,-1.8535,-0.1459,-0.5017,0.5625,-0.1694,-5.1562,-0.3375,35.0813,,adl
6.465919,0.3122,-1.8535,-0.1459,-0.5017,0.5625,-0.1694,-5.1562,-0.3375,35.0813,,adl
6.466675,-0.105,-1.285,-1.2759,-0.5017,0.5625,-0.1694,-5.1562,-0.3375,35.0813,,adl
6.489922,-0.105,-1.285,-1.2759,-0.5017,0.5625,-0.1694,-2.4188,3.9375,35.7,,adl
6.507472,-0.105,-1.285,-1.2759,-0.932,-0.4397,-0.2475,-2.4188,3.9375,35.7,,adl
6.526185,-0.105,-1.285,-1.2759,-0.932,-0.4397,-0.2475,-2.4188,3.9375,35.7,,adl
6.528093,-0.2835,0.5033,0.5463,-0.932,-0.4397,-0.2475,-2.4188,3.9375,35.7,,adl
6.549814,-0.2835,0.5033,0.5463,-0.932,-0.4397,-0.2475,-0.225,7.1063,35.9625,,adl
6.566001,-0.2835,0.5033,0.5463,-0.5144,0.704,-0.026,-0.225,7.1063,35.9625,,adl
6.588429,-0.2835,0.5033,0.5463,-0.5144,0.704,-0.026,-0.225,7.1063,35.9625,,adl
6.607792,-0.4447,-0.2034,1.1075,-0.5144,0.704,-0.026,-0.225,7.1063,35.9625,,adl
6.608817,-0.4447,-0.2034,1.1075,-0.5144,0.704,-0.026,0.6188,9.5438,36.3188,,adl
6.628165,-0.4447,-0.2034,1.1075,-0.5762,0.0445,-0.2688,0.6188,9.5438,36.3188,,adl
6.64789,-0.4447,-0.2034,1.1075,-0.5762,0.0445,-0.2688,0.6188,9.5438,36.3188,,adl
6.669036,-0.4447,-0.2034,1.1075,-0.5762,0.0445,-0.2688,0.9,10.4062,36.0563,,adl
6.670036,-0.245,0.008,0.2921,-0.5762,0.0445,-0.2688,0.9,10.4062,36.0563,,adl
6.689499,-0.245,0.008,0.2921,-0.2625,0.5043,-0.1702,0.9,10.4062,36.0563,,adl
6.712019,-0.245,0.008,0.2921,-0.2625,0.5043,-0.1702,0.9,10.4062,36.0563,,adl
6.730574,-0.245,0.008,0.2921,-0.2625,0.5043,-0.1702,0.4313,10.2188,36.1688,,adl
6.732594,-0.8749,0.4207,0.7629,-0.2625,0.5043,-0.1702,0.4313,10.2188,36.1688,,adl
6.750702,-0.8749,0.4207,0.7629,-0.3543,0.2198,-0.3669,0.4313,10.2188,36.1688,,adl
6.771096,-0.8749,0.4207,0.7629,-0.3543,0.2198,-0.3669,0.4313,10.2188,36.1688,,adl
6.790319,-0.8749,0.4207,0.7629,-0.3543,0.2198,-0.3669,-0.4875,9.45,36.3188,,adl
6.791971,-0.8747,0.4462,0.5602,-0.3543,0.2198,-0.3669,-0.4875,9.45,36.3188,,adl
6.811859,-0.8747,0.4462,0.5602,-0.4641,0.1399,-0.4573,-0.4875,9.45,36.3188,,adl
6.832665,-0.8747,0.4462,0.5602,-0.4641,0.1399,-0.4573,-0.4875,9.45,36.3188,,adl
6.849784,-0.8747,0.4462,0.5602,-0.4641,0.1399,-0.4573,-1.7438,8.4375,36.525,,adl
6.871622,-0.1934,-0.1472,0.623,-0.4641,0.1399,-0.4573,-1.7438,8.4375,36.525,,adl
6.873234,-0.1934,-0.1472,0.623,-0.4988,0.0242,-0.5312,-1.7438,8.4375,36.525,,adl
6.895342,-0.1934,-0.1472,0.623,-0.4988,0.0242,-0.5312,-1.7438,8.4375,36.525,,adl
6.911183,-0.1934,-0.1472,0.623,-0.4988,0.0242,-0.5312,-2.2688,7.2,36.9563,,adl
6.933928,-0.4601,0.0068,0.6601,-0.4988,0.0242,-0.5312,-2.2688,7.2,36.9563,,adl
6.939373,-0.4601,0.0068,0.6601,-0.441,0.2639,-0.5429,-2.2688,7.2,36.9563,,adl
6.952851,-0.4601,0.0068,0.6601,-0.441,0.2639,-0.5429,-2.2688,7.2,36.9563,,adl
6.969501,-0.4601,0.0068,0.6601,-0.441,0.2639,-0.5429,-4.0125,9.2438,38.25,,adl
6.994423,-0.4601,0.0068,0.6601,-0.3895,0.7641,-0.6377,-4.0125,9.2438,38.25,,adl
6.996503,0.0023,-0.0057,0.1094,-0.3895,0.7641,-0.6377,-4.0125,9.2438,38.25,,adl
7.013603,0.0023,-0.0057,0.1094,-0.3895,0.7641,-0.6377,-4.0125,9.2438,38.25,,adl
7.030221,0.0023,-0.0057,0.1094,-0.3895,0.7641,-0.6377,-5.175,8.1562,38.4,,adl
7.054183,0.0023,-0.0057,0.1094,-0.0824,3.5757,-1.2674,-5.175,8.1562,38.4,,adl
7.07444,0.0023,-0.0057,0.1094,-0.0824,3.5757,-1.2674,-5.175,8.1562,38.4,,adl
7.076046,-1.2767,-0.4328,0.538,-0.0824,3.5757,-1.2674,-5.175,8.1562,38.4,,adl
7.089301,-1.2767,-0.4328,0.538,-0.0824,3.5757,-1.2674,-7.3313,6.9563,38.025,,adl
7.115275,-1.2767,-0.4328,0.538,0.0149,3.0641,-0.7055,-7.3313,6.9563,38.025,,adl
7.135119,-1.2767,-0.4328,0.538,0.0149,3.0641,-0.7055,-7.3313,6.9563,38.025,,adl
7.136464,-1.3832,-1.7881,0.3345,0.0149,3.0641,-0.7055,-7.3313,6.9563,38.025,,adl
7.149247,-1.3832,-1.7881,0.3345,0.0149,3.0641,-0.7055,-10.1625,6.0375,36.975,,adl
7.176091,-1.3832,-1.7881,0.3345,0.3131,1.8934,-0.0618,-10.1625,6.0375,36.975,,adl
7.197129,-1.3832,-1.7881,0.3345,0.3131,1.8934,-0.0618,-10.1625,6.0375,36.975,,adl
7.199219,-3.9359,-2.7658,0.445,0.3131,1.8934,-0.0618,-10.1625,6.0375,36.975,,adl
7.210282,-3.9359,-2.7658,0.445,0.3131,1.8934,-0.0618,-13.275,5.1,35.8125,,adl
7.236891,-3.9359,-2.7658,0.445,-0.48,0.9356,-1.2071,-13.275,5.1,35.8125,,adl
7.259255,-4.8295,-0.1218,2.9722,-0.48,0.9356,-1.2071,-13.275,5.1,35.8125,,adl
7.263575,-4.8295,-0.1218,2.9722,-0.48,0.9356,-1.2071,-13.275,5.1,35.8125,,adl
7.269363,-4.8295,-0.1218,2.9722,-0.48,0.9356,-1.2071,-14.3438,3.6188,34.7625,,adl
7.297676,-4.8295,-0.1218,2.9722,-0.5851,-0.5754,-2.053,-14.3438,3.6188,34.7625,,adl
7.318225,-4.8295,-0.1218,2.9722,-0.5851,-0.5754,-2.053,-14.3438,3.6188,34.7625,,adl
7.328961,-4.8295,-0.1218,2.9722,-0.5851,-0.5754,-2.053,-16.7063,2.1375,34.1813,,adl
7.33808,-5.2025,3.9468,2.3851,-0.5851,-0.5754,-2.053,-16.7063,2.1375,34.1813,,adl
7.358243,-5.2025,3.9468,2.3851,0.6894,0.3178,0.729,-16.7063,2.1375,34.1813,,adl
7.380116,-5.2025,3.9468,2.3851,0.6894,0.3178,0.729,-16.7063,2.1375,34.1813,,adl
7.389899,-5.2025,3.9468,2.3851,0.6894,0.3178,0.729,-18.8438,1.4625,33.675,,adl
7.399366,-3.5084,2.6346,1.8513,0.6894,0.3178,0.729,-18.8438,1.4625,33.675,,adl
7.41992,-3.5084,2.6346,1.8513,0.8907,-0.6246,1.3819,-18.8438,1.4625,33.675,,adl
7.442983,-3.5084,2.6346,1.8513,0.8907,-0.6246,1.3819,-18.8438,1.4625,33.675,,adl
7.450225,-3.5084,2.6346,1.8513,0.8907,-0.6246,1.3819,-20.4188,1.6313,33.2625,,adl
7.459928,-0.2893,-0.941,-0.4717,0.8907,-0.6246,1.3819,-20.4188,1.6313,33.2625,,adl
7.480205,-0.2893,-0.941,-0.4717,1.2073,-0.5973,2.2023,-20.4188,1.6313,33.2625,,adl
7.501942,-0.2893,-0.941,-0.4717,1.2073,-0.5973,2.2023,-20.4188,1.6313,33.2625,,adl
7.509779,-0.2893,-0.941,-0.4717,1.2073,-0.5973,2.2023,-22.0875,2.7,33.3938,,adl
7.543975,-0.2893,-0.941,-0.4717,1.4117,-0.1682,2.7735,-22.0875,2.7,33.3938,,adl
7.546342,1.3294,-2.167,-0.7551,1.4117,-0.1682,2.7735,-22.0875,2.7,33.3938,,adl
7.562495,1.3294,-2.167,-0.7551,1.4117,-0.1682,2.7735,-22.0875,2.7,33.3938,,adl
7.570268,1.3294,-2.167,-0.7551,1.4117,-0.1682,2.7735,-21.5063,4.6688,33.5438,,adl
7.602795,1.3294,-2.167,-0.7551,1.394,-0.2225,2.7714,-21.5063,4.6688,33.5438,,adl
7.604869,2.4031,-3.3517,-1.4859,1.394,-0.2225,2.7714,-21.5063,4.6688,33.5438,,adl
7.62362,2.4031,-3.3517,-1.4859,1.394,-0.2225,2.7714,-21.5063,4.6688,33.5438,,adl
7.629592,2.4031,-3.3517,-1.4859,1.394,-0.2225,2.7714,-20.1562,7.3688,34.5,,adl
7.663193,2.4031,-3.3517,-1.4859,1.0305,-0.1079,2.3873,-20.1562,7.3688,34.5,,adl
7.665492,3.8549,-3.7565,-1.9598,1.0305,-0.1079,2.3873,-20.1562,7.3688,34.5,,adl
7.68492,3.8549,-3.7565,-1.9598,1.0305,-0.1079,2.3873,-20.1562,7.3688,34.5,,adl
7.689563,3.8549,-3.7565,-1.9598,1.0305,-0.1079,2.3873,-17.3625,10.4625,34.9688,,adl
7.726893,5.8195,-3.871,-1.7183,1.0305,-0.1079,2.3873,-17.3625,10.4625,34.9688,,adl
7.729963,5.8195,-3.871,-1.7183,0.5679,-0.526,1.7831,-17.3625,10.4625,34.9688,,adl
7.744291,5.8195,-3.871,-1.7183,0.5679,-0.526,1.7831,-17.3625,10.4625,34.9688,,adl
7.749334,5.8195,-3.871,-1.7183,0.5679,-0.526,1.7831,-14.175,14.3063,35.0438,,adl
7.787825,5.8195,-3.871,-1.7183,-0.2099,-1.2963,0.3851,-14.175,14.3063,35.0438,,adl
7.807054,5.8195,-3.871,-1.7183,-0.2099,-1.2963,0.3851,-14.175,14.3063,35.0438,,adl
7.812092,7.3353,-2.7458,-3.5145,-0.2099,-1.2963,0.3851,-14.175,14.3063,35.0438,,adl
7.814587,7.3353,-2.7458,-3.5145,-0.2099,-1.2963,0.3851,-12.45,18.1688,35.3438,,adl
7.846784,7.3353,-2.7458,-3.5145,-0.5591,-0.2878,-1.0243,-12.45,18.1688,35.3438,,adl
7.871636,-0.0527,-1.1019,-0.7177,-0.5591,-0.2878,-1.0243,-12.45,18.1688,35.3438,,adl
7.87416,-0.0527,-1.1019,-0.7177,-0.5591,-0.2878,-1.0243,-10.2563,21.4125,35.0063,,adl
7.876618,-0.0527,-1.1019,-0.7177,-0.5591,-0.2878,-1.0243,-10.2563,21.4125,35.0063,,adl
7.908049,-0.0527,-1.1019,-0.7177,0.4888,2.668,0.5728,-10.2563,21.4125,35.0063,,adl
7.927362,-1.7077,-1.7175,-0.5216,0.4888,2.668,0.5728,-10.2563,21.4125,35.0063,,adl
7.928588,-1.7077,-1.7175,-0.5216,0.4888,2.668,0.5728,-10.2563,21.4125,35.0063,,adl
7.929005,-1.7077,-1.7175,-0.5216,0.4888,2.668,0.5728,-8.9625,23.9625,34.275,,adl
7.968956,-1.7077,-1.7175,-0.5216,-1.1815,-0.6595,-0.6846,-8.9625,23.9625,34.275,,adl
7.989716,-1.7077,-1.7175,-0.5216,-1.1815,-0.6595,-0.6846,-8.0438,25.7063,33.6938,,adl
7.994161,-1.7077,-1.7175,-0.5216,-1.1815,-0.6595,-0.6846,-8.0438,25.7063,33.6938,,adl
8.008272,-0.6598,0.284,-0.2622,-1.1815,-0.6595,-0.6846,-8.0438,25.7063,33.6938,,adl
8.036316,-0.6598,0.284,-0.2622,-0.6202,0.3151,-0.6842,-8.0438,25.7063,33.6938,,adl
8.050378,-0.6598,0.284,-0.2622,-0.6202,0.3151,-0.6842,-7.5375,26.2875,33.1313,,adl
8.051273,-0.6598,0.284,-0.2622,-0.6202,0.3151,-0.6842,-7.5375,26.2875,33.1313,,adl
8.069994,-0.4841,0.604,0.3506,-0.6202,0.3151,-0.6842,-7.5375,26.2875,33.1313,,adl
8.090139,-0.4841,0.604,0.3506,-0.3356,0.5393,-0.1862,-7.5375,26.2875,33.1313,,adl
8.109808,-0.4841,0.604,0.3506,-0.3356,0.5393,-0.1862,-7.5375,26.2875,33.1313,,adl
8.110733,-0.4841,0.604,0.3506,-0.3356,0.5393,-0.1862,-7.4063,26.025,32.925,,adl
8.133545,-0.9989,0.21,0.0603,-0.3356,0.5393,-0.1862,-7.4063,26.025,32.925,,adl
8.149866,-0.9989,0.21,0.0603,-0.3,0.0324,-0.545,-7.4063,26.025,32.925,,adl
8.169027,-0.9989,0.21,0.0603,-0.3,0.0324,-0.545,-7.95,25.2,32.7563,,adl
8.172238,-0.9989,0.21,0.0603,-0.3,0.0324,-0.545,-7.95,25.2,32.7563,,adl
8.194632,-1.074,0.6242,0.5195,-0.3,0.0324,-0.545,-7.95,25.2,32.7563,,adl
8.2105,-1.074,0.6242,0.5195,-0.0149,0.6029,-0.398,-7.95,25.2,32.7563,,adl
8.229504,-1.074,0.6242,0.5195,-0.0149,0.6029,-0.398,-8.8688,24.225,32.775,,adl
8.231789,-1.074,0.6242,0.5195,-0.0149,0.6029,-0.398,-8.8688,24.225,32.775,,adl
8.272669,-0.858,0.5757,0.4662,-0.0149,0.6029,-0.398,-8.8688,24.225,32.775,,adl
8.274557,-0.858,0.5757,0.4662,-0.3625,-0.006,-0.6784,-8.8688,24.225,32.775,,adl
8.290266,-0.858,0.5757,0.4662,-0.3625,-0.006,-0.6784,-10.2938,23.1562,32.775,,adl
8.292979,-0.858,0.5757,0.4662,-0.3625,-0.006,-0.6784,-10.2938,23.1562,32.775,,adl
8.333862,-0.858,0.5757,0.4662,-0.3228,0.1712,-0.643,-10.2938,23.1562,32.775,,adl
8.336082,-0.658,0.2736,0.3488,-0.3228,0.1712,-0.643,-10.2938,23.1562,32.775,,adl
8.349066,-0.658,0.2736,0.3488,-0.3228,0.1712,-0.643,-11.4938,21.8063,32.7938,,adl
8.352485,-0.658,0.2736,0.3488,-0.3228,0.1712,-0.643,-11.4938,21.8063,32.7938,,adl
8.394644,-0.658,0.2736,0.3488,-0.3153,-0.0826,-0.8397,-11.4938,21.8063,32.7938,,adl
8.400175,-0.8571,0.4574,0.1145,-0.3153,-0.0826,-0.8397,-11.4938,21.8063,32.7938,,adl
8.409639,-0.8571,0.4574,0.1145,-0.3153,-0.0826,-0.8397,-12.15,20.3813,33.0,,adl
8.414213,-0.8571,0.4574,0.1145,-0.3153,-0.0826,-0.8397,-12.15,20.3813,33.0,,adl
8.455112,-0.8571,0.4574,0.1145,-0.2471,0.1474,-0.8989,-12.15,20.3813,33.0,,adl
8.469553,-0.8571,0.4574,0.1145,-0.2471,0.1474,-0.8989,-12.975,18.9563,33.1313,,adl
8.475354,-0.8571,0.4574,0.1145,-0.2471,0.1474,-0.8989,-12.975,18.9563,33.1313,,adl
8.4766,-0.7184,-0.2337,0.7439,-0.2471,0.1474,-0.8989,-12.975,18.9563,33.1313,,adl
8.516523,-0.7184,-0.2337,0.7439,-0.1911,0.3193,-1.0792,-12.975,18.9563,33.1313,,adl
8.530729,-0.7184,-0.2337,0.7439,-0.1911,0.3193,-1.0792,-13.95,17.5875,33.0938,,adl
8.535167,-0.786,-0.4427,0.1718,-0.1911,0.3193,-1.0792,-13.95,17.5875,33.0938,,adl
8.536306,-0.786,-0.4427,0.1718,-0.1911,0.3193,-1.0792,-13.95,17.5875,33.0938,,adl
8.577661,-0.786,-0.4427,0.1718,-0.0654,0.6458,-1.2816,-13.95,17.5875,33.0938,,adl
8.589727,-0.786,-0.4427,0.1718,-0.0654,0.6458,-1.2816,-15.1125,16.1063,32.9813,,adl
8.599065,-0.786,-0.4427,0.1718,-0.0654,0.6458,-1.2816,-15.1125,16.1063,32.9813,,adl
8.600477,-1.8968,-1.4747,0.5244,-0.0654,0.6458,-1.2816,-15.1125,16.1063,32.9813,,adl
8.638073,-1.8968,-1.4747,0.5244,0.039,0.4489,-1.7524,-15.1125,16.1063,32.9813,,adl
8.649645,-1.8968,-1.4747,0.5244,0.039,0.4489,-1.7524,-16.2563,14.5125,32.9813,,adl
8.658191,-1.8968,-1.4747,0.5244,0.039,0.4489,-1.7524,-16.2563,14.5125,32.9813,,adl
8.659038,-2.9997,-2.3637,1.0936,0.039,0.4489,-1.7524,-16.2563,14.5125,32.9813,,adl
8.699361,-2.9997,-2.3637,1.0936,0.2598,0.7495,-2.1336,-16.2563,14.5125,32.9813,,adl
8.709248,-2.9997,-2.3637,1.0936,0.2598,0.7495,-2.1336,-17.6063,12.5063,32.7,,adl
8.719827,-2.9997,-2.3637,1.0936,0.2598,0.7495,-2.1336,-17.6063,12.5063,32.7,,adl
8.739258,-7.0633,-1.4102,0.1301,0.2598,0.7495,-2.1336,-17.6063,12.5063,32.7,,adl
8.759488,-7.0633,-1.4102,0.1301,-0.3019,0.3246,-2.2689,-17.6063,12.5063,32.7,,adl
8.769838,-7.0633,-1.4102,0.1301,-0.3019,0.3246,-2.2689,-18.8438,10.3313,32.1375,,adl
8.780453,-7.0633,-1.4102,0.1301,-0.3019,0.3246,-2.2689,-18.8438,10.3313,32.1375,,adl
8.80079,-6.7639,2.9107,0.8227,-0.3019,0.3246,-2.2689,-18.8438,10.3313,32.1375,,adl
8.82006,-6.7639,2.9107,0.8227,-0.3937,-1.9176,-1.5316,-18.8438,10.3313,32.1375,,adl
8.82955,-6.7639,2.9107,0.8227,-0.3937,-1.9176,-1.5316,-20.325,7.9125,31.875,,adl
8.840192,-6.7639,2.9107,0.8227,-0.3937,-1.9176,-1.5316,-20.325,7.9125,31.875,,adl
8.861347,-4.231,5.106,1.1487,-0.3937,-1.9176,-1.5316,-20.325,7.9125,31.875,,adl
8.880717,-4.231,5.106,1.1487,0.8558,-0.4812,1.012,-20.325,7.9125,31.875,,adl
8.88998,-4.231,5.106,1.1487,0.8558,-0.4812,1.012,-21.1875,5.9813,31.875,,adl
8.902046,-4.231,5.106,1.1487,0.8558,-0.4812,1.012,-21.1875,5.9813,31.875,,adl
8.941263,-4.231,5.106,1.1487,1.0184,-1.3063,2.322,-21.1875,5.9813,31.875,,adl
8.942102,-2.4484,2.4397,-0.5428,1.0184,-1.3063,2.322,-21.1875,5.9813,31.875,,adl
8.948872,-2.4484,2.4397,-0.5428,1.0184,-1.3063,2.322,-22.3125,4.875,31.95,,adl
8.961623,-2.4484,2.4397,-0.5428,1.0184,-1.3063,2.322,-22.3125,4.875,31.95,,adl
9.002542,-2.4484,2.4397,-0.5428,1.0433,-1.5452,2.9333,-22.3125,4.875,31.95,,adl
9.004235,0.6726,-2.7923,-2.8739,1.0433,-1.5452,2.9333,-22.3125,4.875,31.95,,adl
9.008434,0.6726,-2.7923,-2.8739,1.0433,-1.5452,2.9333,-22.0125,5.0063,32.5125,,adl
9.024219,0.6726,-2.7923,-2.8739,1.0433,-1.5452,2.9333,-22.0125,5.0063,32.5125,,adl
9.064547,0.6726,-2.7923,-2.8739,0.9819,-0.7326,3.3557,-22.0125,5.0063,32.5125,,adl
9.066372,2.1417,-3.8383,-2.8505,0.9819,-0.7326,3.3557,-22.0125,5.0063,32.5125,,adl
9.070296,2.1417,-3.8383,-2.8505,0.9819,-0.7326,3.3557,-23.1562,6.4313,33.8063,,adl
9.084658,2.1417,-3.8383,-2.8505,0.9819,-0.7326,3.3557,-23.1562,6.4313,33.8063,,adl
9.126634,2.1417,-3.8383,-2.8505,0.5374,-0.7561,2.8228,-23.1562,6.4313,33.8063,,adl
9.128605,3.7294,-5.0001,-2.6782,0.5374,-0.7561,2.8228,-23.1562,6.4313,33.8063,,adl
9.129552,3.7294,-5.0001,-2.6782,0.5374,-0.7561,2.8228,-21.3188,8.8875,34.5,,adl
9.146029,3.7294,-5.0001,-2.6782,0.5374,-0.7561,2.8228,-21.3188,8.8875,34.5,,adl
9.185823,3.7294,-5.0001,-2.6782,0.0386,-0.9097,2.1058,-21.3188,8.8875,34.5,,adl
9.188658,3.7294,-5.0001,-2.6782,0.0386,-0.9097,2.1058,-18.5813,12.0,35.4188,,adl
9.205397,3.7294,-5.0001,-2.6782,0.0386,-0.9097,2.1058,-18.5813,12.0,35.4188,,adl
9.206784,4.8014,-4.0357,-1.6637,0.0386,-0.9097,2.1058,-18.5813,12.0,35.4188,,adl
9.246393,4.8014,-4.0357,-1.6637,-0.392,-1.5658,1.182,-18.5813,12.0,35.4188,,adl
9.24869,4.8014,-4.0357,-1.6637,-0.392,-1.5658,1.182,-16.275,16.0125,36.7313,,adl
9.266797,4.8014,-4.0357,-1.6637,-0.392,-1.5658,1.182,-16.275,16.0125,36.7313,,adl
9.268749,5.6052,-3.3352,-1.8208,-0.392,-1.5658,1.182,-16.275,16.0125,36.7313,,adl
9.308677,5.6052,-3.3352,-1.8208,-0.3047,-0.7326,0.3951,-16.275,16.0125,36.7313,,adl
9.310982,5.6052,-3.3352,-1.8208,-0.3047,-0.7326,0.3951,-11.9813,20.0438,37.6125,,adl
9.32946,5.6052,-3.3352,-1.8208,-0.3047,-0.7326,0.3951,-11.9813,20.0438,37.6125,,adl
9.331278,5.9858,-2.6607,-2.4082,-0.3047,-0.7326,0.3951,-11.9813,20.0438,37.6125,,adl
9.370385,5.9858,-2.6607,-2.4082,-0.4826,0.0104,-0.4285,-11.9813,20.0438,37.6125,,adl
9.372586,5.9858,-2.6607,-2.4082,-0.4826,0.0104,-0.4285,-7.65,23.6813,38.4188,,adl
9.390767,5.9858,-2.6607,-2.4082,-0.4826,0.0104,-0.4285,-7.65,23.6813,38.4188,,adl
9.410856,-0.3647,-1.1839,1.5583,-0.4826,0.0104,-0.4285,-7.65,23.6813,38.4188,,adl
9.430547,-0.3647,-1.1839,1.5583,-0.4826,0.0104,-0.4285,-3.7125,26.5313,39.0,,adl
9.433889,-0.3647,-1.1839,1.5583,0.2549,1.6079,0.2977,-3.7125,26.5313,39.0,,adl
9.452806,-0.3647,-1.1839,1.5583,0.2549,1.6079,0.2977,-3.7125,26.5313,39.0,,adl
9.470689,0.4778,-2.3609,1.4793,0.2549,1.6079,0.2977,-3.7125,26.5313,39.0,,adl
9.490645,0.4778,-2.3609,1.4793,0.2549,1.6079,0.2977,-0.5625,28.5,39.4313,,adl
9.49341,0.4778,-2.3609,1.4793,-0.7456,-0.0759,-0.8376,-0.5625,28.5,39.4313,,adl
9.511275,0.4778,-2.3609,1.4793,-0.7456,-0.0759,-0.8376,-0.5625,28.5,39.4313,,adl
9.531859,-2.2301,1.4786,-2.414,-0.7456,-0.0759,-0.8376,-0.5625,28.5,39.4313,,adl
9.548775,-2.2301,1.4786,-2.414,-0.7456,-0.0759,-0.8376,2.0438,29.2875,39.9,,adl
9.551291,-2.2301,1.4786,-2.414,-0.6167,-0.0009,-0.4943,2.0438,29.2875,39.9,,adl
9.573207,-2.2301,1.4786,-2.414,-0.6167,-0.0009,-0.4943,2.0438,29.2875,39.9,,adl
9.592195,-0.0725,0.358,0.7894,-0.6167,-0.0009,-0.4943,2.0438,29.2875,39.9,,adl
9.609632,-0.0725,0.358,0.7894,-0.6167,-0.0009,-0.4943,3.8813,29.1938,40.4813,,adl
9.611655,-0.0725,0.358,0.7894,-0.1722,0.8088,-0.2742,3.8813,29.1938,40.4813,,adl
9.632683,-0.0725,0.358,0.7894,-0.1722,0.8088,-0.2742,3.8813,29.1938,40.4813,,adl
9.669718,-0.0725,0.358,0.7894,-0.1722,0.8088,-0.2742,4.9125,28.7063,41.2125,,adl
9.673236,-0.0725,0.358,0.7894,-0.3661,-0.034,-0.5787,4.9125,28.7063,41.2125,,adl
9.674539,-1.4123,-0.1164,0.5796,-0.3661,-0.034,-0.5787,4.9125,28.7063,41.2125,,adl
9.693824,-1.4123,-0.1164,0.5796,-0.3661,-0.034,-0.5787,4.9125,28.7063,41.2125,,adl
9.731902,-1.4123,-0.1164,0.5796,-0.3661,-0.034,-0.5787,3.8438,27.7875,42.2625,,adl
9.738012,-0.9358,1.0323,0.3037,-0.3661,-0.034,-0.5787,3.8438,27.7875,42.2625,,adl
9.741479,-0.9358,1.0323,0.3037,-0.1037,0.3573,-0.3824,3.8438,27.7875,42.2625,,adl
9.755474,-0.9358,1.0323,0.3037,-0.1037,0.3573,-0.3824,3.8438,27.7875,42.2625,,adl
9.79328,-0.9358,1.0323,0.3037,-0.1037,0.3573,-0.3824,3.0563,27.0563,43.1063,,adl
9.796766,-0.9358,1.0323,0.3037,-0.4549,-0.3489,-0.6188,3.0563,27.0563,43.1063,,adl
9.797846,-0.4226,0.0863,0.6157,-0.4549,-0.3489,-0.6188,3.0563,27.0563,43.1063,,adl
9.817927,-0.4226,0.0863,0.6157,-0.4549,-0.3489,-0.6188,3.0563,27.0563,43.1063,,adl
9.851746,-0.4226,0.0863,0.6157,-0.4549,-0.3489,-0.6188,2.1375,26.3438,43.9688,,adl
9.855932,-0.4226,0.0863,0.6157,-0.2158,0.0598,-0.2798,2.1375,26.3438,43.9688,,adl
9.876794,-0.4226,0.0863,0.6157,-0.2158,0.0598,-0.2798,2.1375,26.3438,43.9688,,adl
9.878264,-0.41,0.2208,0.708,-0.2158,0.0598,-0.2798,2.1375,26.3438,43.9688,,adl
9.910199,-0.41,0.2208,0.708,-0.2158,0.0598,-0.2798,1.3313,25.5938,44.6063,,adl
9.918977,-0.41,0.2208,0.708,-0.4758,-0.2108,-0.7125,1.3313,25.5938,44.6063,,adl
9.938874,-0.41,0.2208,0.708,-0.4758,-0.2108,-0.7125,1.3313,25.5938,44.6063,,adl
9.940999,-1.3387,0.7049,0.2977,-0.4758,-0.2108,-0.7125,1.3313,25.5938,44.6063,,adl
9.971595,-1.3387,0.7049,0.2977,-0.4758,-0.2108,-0.7125,0.975,24.6563,45.3563,,adl
9.977129,-1.3387,0.7049,0.2977,-0.5286,-0.2253,-1.1027,0.975,24.6563,45.3563,,adl
9.998669,-1.3387,0.7049,0.2977,-0.5286,-0.2253,-1.1027,0.975,24.6563,45.3563,,adl
9.99991,-0.8405,0.1997,0.4483,-0.5286,-0.2253,-1.1027,0.975,24.6563,45.3563,,adl
10.029237,-0.8405,0.1997,0.4483,-0.5286,-0.2253,-1.1027,0.5063,23.8125,45.9,,adl
10.039651,-0.8405,0.1997,0.4483,-0.4097,-0.0876,-1.5259,0.5063,23.8125,45.9,,adl
10.059463,-0.8405,0.1997,0.4483,-0.4097,-0.0876,-1.5259,0.5063,23.8125,45.9,,adl
10.060925,-1.3426,-0.6018,0.0046,-0.4097,-0.0876,-1.5259,0.5063,23.8125,45.9,,adl
10.091049,-1.3426,-0.6018,0.0046,-0.4097,-0.0876,-1.5259,-0.1125,22.875,46.5,,adl
10.101176,-1.3426,-0.6018,0.0046,0.1117,0.4989,-1.5077,-0.1125,22.875,46.5,,adl
10.122442,-1.3426,-0.6018,0.0046,0.1117,0.4989,-1.5077,-0.1125,22.875,46.5,,adl
10.142693,-0.8291,-2.3294,2.0742,0.1117,0.4989,-1.5077,-0.1125,22.875,46.5,,adl
10.151156,-0.8291,-2.3294,2.0742,0.1117,0.4989,-1.5077,-0.8625,22.125,46.9875,,adl
10.163039,-0.8291,-2.3294,2.0742,0.3435,0.4364,-1.5659,-0.8625,22.125,46.9875,,adl
10.180648,-0.8291,-2.3294,2.0742,0.3435,0.4364,-1.5659,-0.8625,22.125,46.9875,,adl
10.203902,-4.9035,-2.0741,0.9973,0.3435,0.4364,-1.5659,-0.8625,22.125,46.9875,,adl
10.209859,-4.9035,-2.0741,0.9973,0.3435,0.4364,-1.5659,-1.8,21.4125,47.175,,adl
10.221691,-4.9035,-2.0741,0.9973,-0.0051,-0.2161,-2.4873,-1.8,21.4125,47.175,,adl
10.243786,-4.9035,-2.0741,0.9973,-0.0051,-0.2161,-2.4873,-1.8,21.4125,47.175,,adl
10.265289,-5.2503,1.5791,0.634,-0.0051,-0.2161,-2.4873,-1.8,21.4125,47.175,,adl
10.27042,-5.2503,1.5791,0.634,-0.0051,-0.2161,-2.4873,-2.55,20.7,47.3813,,adl
10.283027,-5.2503,1.5791,0.634,-0.6601,-2.2854,-2.2245,-2.55,20.7,47.3813,,adl
10.302883,-5.2503,1.5791,0.634,-0.6601,-2.2854,-2.2245,-2.55,20.7,47.3813,,adl
10.323519,-4.9315,4.1964,1.1661,-0.6601,-2.2854,-2.2245,-2.55,20.7,47.3813,,adl
10.329676,-4.9315,4.1964,1.1661,-0.6601,-2.2854,-2.2245,-1.9125,19.875,47.4188,,adl
10.343265,-4.9315,4.1964,1.1661,0.2534,-3.4618,-0.8979,-1.9125,19.875,47.4188,,adl
10.364517,-4.9315,4.1964,1.1661,0.2534,-3.4618,-0.8979,-1.9125,19.875,47.4188,,adl
10.390191,-4.9315,4.1964,1.1661,0.2534,-3.4618,-0.8979,0.1313,19.1813,46.95,,adl
10.406001,-4.9315,4.1964,1.1661,1.1072,-3.65,0.4245,0.1313,19.1813,46.95,,adl
10.408862,-4.2303,2.5902,-1.6963,1.1072,-3.65,0.4245,0.1313,19.1813,46.95,,adl
10.425615,-4.2303,2.5902,-1.6963,1.1072,-3.65,0.4245,0.1313,19.1813,46.95,,adl
10.451494,-4.2303,2.5902,-1.6963,1.1072,-3.65,0.4245,3.4688,18.825,45.1688,,adl
10.466383,-4.2303,2.5902,-1.6963,0.7245,-4.5709,0.9687,3.4688,18.825,45.1688,,adl
10.467866,-3.2032,1.2914,-7.0551,0.7245,-4.5709,0.9687,3.4688,18.825,45.1688,,adl
10.486586,-3.2032,1.2914,-7.0551,0.7245,-4.5709,0.9687,3.4688,18.825,45.1688,,adl
10.511914,-3.2032,1.2914,-7.0551,0.7245,-4.5709,0.9687,8.0063,17.925,41.9438,,adl
10.52777,-3.2032,1.2914,-7.0551,-0.02,-4.8758,1.1249,8.0063,17.925,41.9438,,adl
10.530255,-0.7691,-0.1618,-8.8323,-0.02,-4.8758,1.1249,8.0063,17.925,41.9438,,adl
10.54894,-0.7691,-0.1618,-8.8323,-0.02,-4.8758,1.1249,8.0063,17.925,41.9438,,adl
10.572085,-0.7691,-0.1618,-8.8323,-0.02,-4.8758,1.1249,12.0375,12.3563,19.3875,,adl
10.588739,-0.7691,-0.1618,-8.8323,-0.5772,-4.7985,1.1107,12.0375,12.3563,19.3875,,adl
10.607021,-0.7691,-0.1618,-8.8323,-0.5772,-4.7985,1.1107,12.0375,12.3563,19.3875,,adl
10.608679,0.556,-0.9483,-7.7673,-0.5772,-4.7985,1.1107,12.0375,12.3563,19.3875,,adl
10.628237,0.556,-0.9483,-7.7673,-0.5772,-4.7985,1.1107,17.625,10.125,12.7875,,adl
10.647468,0.556,-0.9483,-7.7673,-1.1044,-4.8765,1.4209,17.625,10.125,12.7875,,adl
10.66966,0.556,-0.9483,-7.7673,-1.1044,-4.8765,1.4209,17.625,10.125,12.7875,,adl
10.670685,1.0871,-0.5914,-5.7628,-1.1044,-4.8765,1.4209,17.625,10.125,12.7875,,adl
10.690369,1.0871,-0.5914,-5.7628,-1.1044,-4.8765,1.4209,22.7063,7.7625,4.4625,,adl
10.709988,1.0871,-0.5914,-5.7628,-1.6441,-5.2121,1.3273,22.7063,7.7625,4.4625,,adl
10.73085,1.0871,-0.5914,-5.7628,-1.6441,-5.2121,1.3273,22.7063,7.7625,4.4625,,adl
10.733412,2.8352,-1.2633,-5.7881,-1.6441,-5.2121,1.3273,22.7063,7.7625,4.4625,,adl
10.753975,2.8352,-1.2633,-5.7881,-1.6441,-5.2121,1.3273,28.1438,9.4688,12.5625,,adl
10.770668,2.8352,-1.2633,-5.7881,-1.2117,-3.1953,-0.0129,28.1438,9.4688,12.5625,,adl
10.792,2.8352,-1.2633,-5.7881,-1.2117,-3.1953,-0.0129,28.1438,9.4688,12.5625,,adl
10.810777,2.8352,-1.2633,-5.7881,-1.2117,-3.1953,-0.0129,30.2813,8.2125,2.6438,,adl
10.813532,10.8628,-7.2477,-8.6961,-1.2117,-3.1953,-0.0129,30.2813,8.2125,2.6438,,adl
10.830823,10.8628,-7.2477,-8.6961,-0.6891,-0.438,-4.1625,30.2813,8.2125,2.6438,,adl
10.851451,10.8628,-7.2477,-8.6961,-0.6891,-0.438,-4.1625,30.2813,8.2125,2.6438,,adl
10.871083,10.8628,-7.2477,-8.6961,-0.6891,-0.438,-4.1625,32.3813,3.2625,-12.8813,,adl
10.873206,0.0179,2.4674,4.0268,-0.6891,-0.438,-4.1625,32.3813,3.2625,-12.8813,,adl
10.891307,0.0179,2.4674,4.0268,-0.4296,-0.143,0.732,32.3813,3.2625,-12.8813,,adl
10.911347,0.0179,2.4674,4.0268,-0.4296,-0.143,0.732,32.3813,3.2625,-12.8813,,adl
10.929585,0.0179,2.4674,4.0268,-0.4296,-0.143,0.732,31.65,2.325,-21.2438,,adl
10.93224,1.041,-1.1986,-0.0292,-0.4296,-0.143,0.732,31.65,2.325,-21.2438,,adl
10.95226,1.041,-1.1986,-0.0292,-0.496,-0.1362,1.9926,31.65,2.325,-21.2438,,adl
10.972898,1.041,-1.1986,-0.0292,-0.496,-0.1362,1.9926,31.65,2.325,-21.2438,,adl
10.989306,1.041,-1.1986,-0.0292,-0.496,-0.1362,1.9926,29.8313,1.7438,-28.0688,,adl
10.992999,-0.7345,0.001,0.4257,-0.496,-0.1362,1.9926,29.8313,1.7438,-28.0688,,adl
11.014175,-0.7345,0.001,0.4257,-0.0352,0.1282,1.6659,29.8313,1.7438,-28.0688,,adl
11.03409,-0.7345,0.001,0.4257,-0.0352,0.1282,1.6659,29.8313,1.7438,-28.0688,,adl
11.050128,-0.7345,0.001,0.4257,-0.0352,0.1282,1.6659,27.5625,1.6875,-33.1313,,adl
11.07543,-0.7345,0.001,0.4257,-0.5418,-0.5392,-0.6902,27.5625,1.6875,-33.1313,,adl
11.079365,-0.9368,-0.3409,1.0562,-0.5418,-0.5392,-0.6902,27.5625,1.6875,-33.1313,,adl
11.094445,-0.9368,-0.3409,1.0562,-0.5418,-0.5392,-0.6902,27.5625,1.6875,-33.1313,,adl
11.109741,-0.9368,-0.3409,1.0562,-0.5418,-0.5392,-0.6902,25.3125,2.4188,-36.675,,adl
11.135977,-0.9368,-0.3409,1.0562,-0.1265,-0.0137,-0.1055,25.3125,2.4188,-36.675,,adl
11.139871,0.419,-0.0267,0.3691,-0.1265,-0.0137,-0.1055,25.3125,2.4188,-36.675,,adl
11.155512,0.419,-0.0267,0.3691,-0.1265,-0.0137,-0.1055,25.3125,2.4188,-36.675,,adl
11.170197,0.419,-0.0267,0.3691,-0.1265,-0.0137,-0.1055,23.7938,3.3938,-38.3438,,adl
11.198117,0.419,-0.0267,0.3691,-0.1148,-0.1089,-0.3192,23.7938,3.3938,-38.3438,,adl
11.20151,-0.181,0.0485,0.5691,-0.1148,-0.1089,-0.3192,23.7938,3.3938,-38.3438,,adl
11.217948,-0.181,0.0485,0.5691,-0.1148,-0.1089,-0.3192,23.7938,3.3938,-38.3438,,adl
11.230331,-0.181,0.0485,0.5691,-0.1148,-0.1089,-0.3192,23.0625,4.5563,-39.0375,,adl
11.258264,-0.181,0.0485,0.5691,-0.0309,-0.0908,-0.2245,23.0625,4.5563,-39.0375,,adl
11.260565,0.0342,-0.0622,0.5608,-0.0309,-0.0908,-0.2245,23.0625,4.5563,-39.0375,,adl
11.278618,0.0342,-0.0622,0.5608,-0.0309,-0.0908,-0.2245,23.0625,4.5563,-39.0375,,adl
11.291755,0.0342,-0.0622,0.5608,-0.0309,-0.0908,-0.2245,22.7438,4.9313,-39.1875,,adl
11.320157,0.0342,-0.0622,0.5608,0.0237,-0.0589,-0.4342,22.7438,4.9313,-39.1875,,adl
11.339953,0.0342,-0.0622,0.5608,0.0237,-0.0589,-0.4342,22.7438,4.9313,-39.1875,,adl
11.341091,-0.1468,0.0687,0.3409,0.0237,-0.0589,-0.4342,22.7438,4.9313,-39.1875,,adl
11.349509,-0.1468,0.0687,0.3409,0.0237,-0.0589,-0.4342,22.425,4.65,-39.3563,,adl
11.378721,-0.1468,0.0687,0.3409,0.0893,0.0153,-0.4811,22.425,4.65,-39.3563,,adl
11.400968,-0.1468,0.0687,0.3409,0.0893,0.0153,-0.4811,22.425,4.65,-39.3563,,adl
11.402997,0.1087,-0.0302,0.453,0.0893,0.0153,-0.4811,22.425,4.65,-39.3563,,adl
11.409742,0.1087,-0.0302,0.453,0.0893,0.0153,-0.4811,22.2188,4.6688,-39.3188,,adl
11.445055,0.1087,-0.0302,0.453,0.1381,0.0345,-0.3895,22.2188,4.6688,-39.3188,,adl
11.462936,0.1087,-0.0302,0.453,0.1381,0.0345,-0.3895,22.2188,4.6688,-39.3188,,adl
11.464744,-0.1652,-0.1012,0.4154,0.1381,0.0345,-0.3895,22.2188,4.6688,-39.3188,,adl
11.472523,-0.1652,-0.1012,0.4154,0.1381,0.0345,-0.3895,21.9938,4.9875,-39.3375,,adl
11.502861,-0.1652,-0.1012,0.4154,0.2566,0.0438,-0.5226,21.9938,4.9875,-39.3375,,adl
11.52318,-0.1652,-0.1012,0.4154,0.2566,0.0438,-0.5226,21.9938,4.9875,-39.3375,,adl
11.530309,-0.1652,-0.1012,0.4154,0.2566,0.0438,-0.5226,21.6562,5.5312,-39.4125,,adl
11.541994,-0.075,-0.3773,0.8039,0.2566,0.0438,-0.5226,21.6562,5.5312,-39.4125,,adl
11.562118,-0.075,-0.3773,0.8039,0.439,-0.1686,-0.7764,21.6562,5.5312,-39.4125,,adl
11.581446,-0.075,-0.3773,0.8039,0.439,-0.1686,-0.7764,21.6562,5.5312,-39.4125,,adl
11.590833,-0.075,-0.3773,0.8039,0.439,-0.1686,-0.7764,21.3938,5.9438,-39.4875,,adl
11.602273,-1.3018,-1.5398,1.2367,0.439,-0.1686,-0.7764,21.3938,5.9438,-39.4875,,adl
11.620756,-1.3018,-1.5398,1.2367,0.2779,-1.0987,-1.1986,21.3938,5.9438,-39.4875,,adl
11.641368,-1.3018,-1.5398,1.2367,0.2779,-1.0987,-1.1986,21.3938,5.9438,-39.4875,,adl
11.65031,-1.3018,-1.5398,1.2367,0.2779,-1.0987,-1.1986,20.9813,6.825,-39.9,,adl
11.661699,-2.1541,-0.8599,-1.5895,0.2779,-1.0987,-1.1986,20.9813,6.825,-39.9,,adl
11.681999,-2.1541,-0.8599,-1.5895,0.635,-0.1618,-1.4055,20.9813,6.825,-39.9,,adl
11.70235,-2.1541,-0.8599,-1.5895,0.635,-0.1618,-1.4055,20.9813,6.825,-39.9,,adl
11.711331,-2.1541,-0.8599,-1.5895,0.635,-0.1618,-1.4055,20.4563,7.8375,-40.4625,,adl
11.722704,-3.7833,-0.3934,-1.5796,0.635,-0.1618,-1.4055,20.4563,7.8375,-40.4625,,adl
11.742878,-3.7833,-0.3934,-1.5796,0.4015,0.069,-1.802,20.4563,7.8375,-40.4625,,adl
11.767017,-3.7833,-0.3934,-1.5796,0.4015,0.069,-1.802,20.4563,7.8375,-40.4625,,adl
11.769537,-3.7833,-0.3934,-1.5796,0.4015,0.069,-1.802,19.9875,8.9813,-41.1,,adl
11.806797,-3.7833,-0.3934,-1.5796,-0.3699,-1.6809,-1.9377,19.9875,8.9813,-41.1,,adl
11.808613,-4.8621,1.4303,-1.3896,-0.3699,-1.6809,-1.9377,19.9875,8.9813,-41.1,,adl
11.826382,-4.8621,1.4303,-1.3896,-0.3699,-1.6809,-1.9377,19.9875,8.9813,-41.1,,adl
11.829185,-4.8621,1.4303,-1.3896,-0.3699,-1.6809,-1.9377,19.1625,10.4438,-41.5688,,adl
11.867291,-4.8621,1.4303,-1.3896,-1.1368,-3.6319,-0.8542,19.1625,10.4438,-41.5688,,adl
11.869551,-4.7772,2.9524,-1.7036,-1.1368,-3.6319,-0.8542,19.1625,10.4438,-41.5688,,adl
11.88611,-4.7772,2.9524,-1.7036,-1.1368,-3.6319,-0.8542,19.1625,10.4438,-41.5688,,adl
11.890806,-4.7772,2.9524,-1.7036,-1.1368,-3.6319,-0.8542,17.325,12.4125,-42.375,,adl
11.927698,-4.7772,2.9524,-1.7036,0.0535,-1.608,0.3957,17.325,12.4125,-42.375,,adl
11.929507,-2.1869,2.5815,-0.0323,0.0535,-1.608,0.3957,17.325,12.4125,-42.375,,adl
11.948322,-2.1869,2.5815,-0.0323,0.0535,-1.608,0.3957,17.325,12.4125,-42.375,,adl
11.950488,-2.1869,2.5815,-0.0323,0.0535,-1.608,0.3957,15.1688,14.5875,-43.35,,adl
11.987606,-2.1869,2.5815,-0.0323,0.6346,-0.3173,2.1104,15.1688,14.5875,-43.35,,adl
12.009765,-1.0551,1.1269,-1.0503,0.6346,-0.3173,2.1104,15.1688,14.5875,-43.35,,adl
12.012636,-1.0551,1.1269,-1.0503,0.6346,-0.3173,2.1104,15.1688,14.5875,-43.35,,adl
12.013681,-1.0551,1.1269,-1.0503,0.6346,-0.3173,2.1104,13.4625,16.575,-44.2875,,adl
12.051935,-1.0551,1.1269,-1.0503,0.2208,-0.804,2.7143,13.4625,16.575,-44.2875,,adl
12.072726,-1.0551,1.1269,-1.0503,0.2208,-0.804,2.7143,13.4625,16.575,-44.2875,,adl
12.07465,-1.0551,1.1269,-1.0503,0.2208,-0.804,2.7143,12.3188,18.0,-45.2812,,adl
12.075513,1.5734,-2.1435,-0.1466,0.2208,-0.804,2.7143,12.3188,18.0,-45.2812,,adl
12.111789,1.5734,-2.1435,-0.1466,-0.0643,-1.7476,2.8982,12.3188,18.0,-45.2812,,adl
12.130775,1.5734,-2.1435,-0.1466,-0.0643,-1.7476,2.8982,11.325,18.3188,-46.2938,,adl
12.133338,4.454,-4.3383,-2.0276,-0.0643,-1.7476,2.8982,11.325,18.3188,-46.2938,,adl
12.135075,4.454,-4.3383,-2.0276,-0.0643,-1.7476,2.8982,11.325,18.3188,-46.2938,,adl
12.172668,4.454,-4.3383,-2.0276,0.0149,-0.9549,2.7725,11.325,18.3188,-46.2938,,adl
12.192977,4.454,-4.3383,-2.0276,0.0149,-0.9549,2.7725,11.325,18.3188,-46.2938,,adl
12.194669,4.454,-4.3383,-2.0276,0.0149,-0.9549,2.7725,10.1063,17.6813,-47.4188,,adl
12.196,4.4218,-4.0466,-1.6781,0.0149,-0.9549,2.7725,10.1063,17.6813,-47.4188,,adl
12.232914,4.4218,-4.0466,-1.6781,-0.1864,-1.1412,2.0384,10.1063,17.6813,-47.4188,,adl
12.252156,4.4218,-4.0466,-1.6781,-0.1864,-1.1412,2.0384,8.5312,16.6313,-48.4688,,adl
12.25396,4.4218,-4.0466,-1.6781,-0.1864,-1.1412,2.0384,8.5312,16.6313,-48.4688,,adl
12.273558,5.5551,-4.1502,-1.3407,-0.1864,-1.1412,2.0384,8.5312,16.6313,-48.4688,,adl
12.292533,5.5551,-4.1502,-1.3407,0.0987,-0.2775,1.5942,8.5312,16.6313,-48.4688,,adl
12.313466,5.5551,-4.1502,-1.3407,0.0987,-0.2775,1.5942,7.125,15.225,-49.5375,,adl
12.316126,5.5551,-4.1502,-1.3407,0.0987,-0.2775,1.5942,7.125,15.225,-49.5375,,adl
12.333116,6.7929,-3.6953,-1.0044,0.0987,-0.2775,1.5942,7.125,15.225,-49.5375,,adl
12.354458,6.7929,-3.6953,-1.0044,0.0997,0.4023,0.53,7.125,15.225,-49.5375,,adl
12.370177,6.7929,-3.6953,-1.0044,0.0997,0.4023,0.53,6.7125,13.05,-50.3438,,adl
12.37413,6.7929,-3.6953,-1.0044,0.0997,0.4023,0.53,6.7125,13.05,-50.3438,,adl
12.394831,6.0546,-3.2553,-0.0102,0.0997,0.4023,0.53,6.7125,13.05,-50.3438,,adl
12.416122,6.0546,-3.2553,-0.0102,-0.0366,0.4101,-0.3914,6.7125,13.05,-50.3438,,adl
12.43091,6.0546,-3.2553,-0.0102,-0.0366,0.4101,-0.3914,6.6563,10.6125,-51.0563,,adl
12.433978,6.0546,-3.2553,-0.0102,-0.0366,0.4101,-0.3914,6.6563,10.6125,-51.0563,,adl
12.477455,6.0546,-3.2553,-0.0102,0.432,1.2213,0.5566,6.6563,10.6125,-51.0563,,adl
12.481428,-3.995,0.8575,3.5368,0.432,1.2213,0.5566,6.6563,10.6125,-51.0563,,adl
12.491745,-3.995,0.8575,3.5368,0.432,1.2213,0.5566,6.6,8.1938,-51.7125,,adl
12.495457,-3.995,0.8575,3.5368,0.432,1.2213,0.5566,6.6,8.1938,-51.7125,,adl
12.538856,-3.995,0.8575,3.5368,-0.8798,-0.745,-0.8155,6.6,8.1938,-51.7125,,adl
12.542803,-1.5668,-0.5326,-1.8696,-0.8798,-0.745,-0.8155,6.6,8.1938,-51.7125,,adl
12.551575,-1.5668,-0.5326,-1.8696,-0.8798,-0.745,-0.8155,5.8688,6.45,-52.125,,adl
12.558163,-1.5668,-0.5326,-1.8696,-0.8798,-0.745,-0.8155,5.8688,6.45,-52.125,,adl
12.596668,-1.5668,-0.5326,-1.8696,-0.4001,0.1808,-0.5177,5.8688,6.45,-52.125,,adl
12.59746,-0.2706,0.394,0.0244,-0.4001,0.1808,-0.5177,5.8688,6.45,-52.125,,adl
12.608997,-0.2706,0.394,0.0244,-0.4001,0.1808,-0.5177,5.1938,5.7938,-52.35,,adl
12.617033,-0.2706,0.394,0.0244,-0.4001,0.1808,-0.5177,5.1938,5.7938,-52.35,,adl
12.658436,-0.2706,0.394,0.0244,-0.4257,0.0664,-0.4012,5.1938,5.7938,-52.35,,adl
12.66199,-1.1369,0.4468,0.4675,-0.4257,0.0664,-0.4012,5.1938,5.7938,-52.35,,adl
12.669497,-1.1369,0.4468,0.4675,-0.4257,0.0664,-0.4012,4.725,5.8125,-52.275,,adl
12.67785,-1.1369,0.4468,0.4675,-0.4257,0.0664,-0.4012,4.725,5.8125,-52.275,,adl
12.720191,-1.1369,0.4468,0.4675,-0.2734,0.0579,-0.3658,4.725,5.8125,-52.275,,adl
12.729335,-1.1369,0.4468,0.4675,-0.2734,0.0579,-0.3658,4.7812,6.2625,-52.0688,,adl
12.738955,-0.3825,0.4297,-0.1325,-0.2734,0.0579,-0.3658,4.7812,6.2625,-52.0688,,adl
12.740606,-0.3825,0.4297,-0.1325,-0.2734,0.0579,-0.3658,4.7812,6.2625,-52.0688,,adl
12.780893,-0.3825,0.4297,-0.1325,-0.0739,0.1911,-0.3724,4.7812,6.2625,-52.0688,,adl
12.793455,-0.3825,0.4297,-0.1325,-0.0739,0.1911,-0.3724,5.2688,6.7688,-51.8625,,adl
12.801139,-0.3825,0.4297,-0.1325,-0.0739,0.1911,-0.3724,5.2688,6.7688,-51.8625,,adl
12.802531,-1.0202,0.6442,0.1901,-0.0739,0.1911,-0.3724,5.2688,6.7688,-51.8625,,adl
12.840618,-1.0202,0.6442,0.1901,-0.1637,0.1056,-0.5045,5.2688,6.7688,-51.8625,,adl
12.849871,-1.0202,0.6442,0.1901,-0.1637,0.1056,-0.5045,5.6063,7.4625,-51.825,,adl
12.860411,-1.0202,0.6442,0.1901,-0.1637,0.1056,-0.5045,5.6063,7.4625,-51.825,,adl
12.861409,-0.6147,0.4378,0.2565,-0.1637,0.1056,-0.5045,5.6063,7.4625,-51.825,,adl
12.901792,-0.6147,0.4378,0.2565,-0.1854,0.1461,-0.5045,5.6063,7.4625,-51.825,,adl
12.909729,-0.6147,0.4378,0.2565,-0.1854,0.1461,-0.5045,5.9062,8.3813,-51.7875,,adl
12.921903,-0.6147,0.4378,0.2565,-0.1854,0.1461,-0.5045,5.9062,8.3813,-51.7875,,adl
12.942452,-0.5128,0.1385,0.1275,-0.1854,0.1461,-0.5045,5.9062,8.3813,-51.7875,,adl
12.963939,-0.5128,0.1385,0.1275,-0.0266,0.3416,-0.4087,5.9062,8.3813,-51.7875,,adl
12.969385,-0.5128,0.1385,0.1275,-0.0266,0.3416,-0.4087,5.7375,9.4125,-51.7875,,adl
12.98288,-0.5128,0.1385,0.1275,-0.0266,0.3416,-0.4087,5.7375,9.4125,-51.7875,,adl
13.005114,-0.8198,0.46,0.2399,-0.0266,0.3416,-0.4087,5.7375,9.4125,-51.7875,,adl
13.022739,-0.8198,0.46,0.2399,-0.2081,0.1925,-0.5898,5.7375,9.4125,-51.7875,,adl
13.029163,-0.8198,0.46,0.2399,-0.2081,0.1925,-0.5898,5.9438,10.3875,-51.675,,adl
13.042963,-0.8198,0.46,0.2399,-0.2081,0.1925,-0.5898,5.9438,10.3875,-51.675,,adl
13.064155,-0.8227,0.2802,0.1333,-0.2081,0.1925,-0.5898,5.9438,10.3875,-51.675,,adl
13.084674,-0.8227,0.2802,0.1333,-0.3416,0.0473,-0.8195,5.9438,10.3875,-51.675,,adl
13.091056,-0.8227,0.2802,0.1333,-0.3416,0.0473,-0.8195,6.1125,11.0813,-51.3563,,adl
13.10447,-0.8227,0.2802,0.1333,-0.3416,0.0473,-0.8195,6.1125,11.0813,-51.3563,,adl
13.126074,-0.4742,-0.0891,0.186,-0.3416,0.0473,-0.8195,6.1125,11.0813,-51.3563,,adl
13.144868,-0.4742,-0.0891,0.186,-0.2489,0.2035,-0.8687,6.1125,11.0813,-51.3563,,adl
13.150198,-0.4742,-0.0891,0.186,-0.2489,0.2035,-0.8687,6.45,12.0188,-51.1688,,adl
13.166271,-0.4742,-0.0891,0.186,-0.2489,0.2035,-0.8687,6.45,12.0188,-51.1688,,adl
13.206331,-0.4742,-0.0891,0.186,-0.1882,0.3792,-0.9533,6.45,12.0188,-51.1688,,adl
13.210195,-0.6617,-0.325,0.111,-0.1882,0.3792,-0.9533,6.45,12.0188,-51.1688,,adl
13.212766,-0.6617,-0.325,0.111,-0.1882,0.3792,-0.9533,6.6,12.9375,-50.925,,adl
13.225999,-0.6617,-0.325,0.111,-0.1882,0.3792,-0.9533,6.6,12.9375,-50.925,,adl
13.269768,-0.6617,-0.325,0.111,0.0224,0.8116,-0.9774,6.6,12.9375,-50.925,,adl
13.273721,-0.9848,-0.3234,-0.1981,0.0224,0.8116,-0.9774,6.6,12.9375,-50.925,,adl
13.275997,-0.9848,-0.3234,-0.1981,0.0224,0.8116,-0.9774,6.675,13.9313,-50.7188,,adl
13.287327,-0.9848,-0.3234,-0.1981,0.0224,0.8116,-0.9774,6.675,13.9313,-50.7188,,adl
13.329884,-0.9848,-0.3234,-0.1981,0.1579,1.2113,-1.2646,6.675,13.9313,-50.7188,,adl
13.333456,-2.5645,-1.5436,0.0411,0.1579,1.2113,-1.2646,6.675,13.9313,-50.7188,,adl
13.335352,-2.5645,-1.5436,0.0411,0.1579,1.2113,-1.2646,7.0875,14.9625,-50.1563,,adl
13.34765,-2.5645,-1.5436,0.0411,0.1579,1.2113,-1.2646,7.0875,14.9625,-50.1563,,adl
13.392072,-2.5645,-1.5436,0.0411,0.0642,1.2735,-1.6309,7.0875,14.9625,-50.1563,,adl
13.396193,-2.5645,-1.5436,0.0411,0.0642,1.2735,-1.6309,7.575,15.9188,-49.575,,adl
13.409521,-2.5645,-1.5436,0.0411,0.0642,1.2735,-1.6309,7.575,15.9188,-49.575,,adl
13.411038,-2.708,-1.285,1.0872,0.0642,1.2735,-1.6309,7.575,15.9188,-49.575,,adl
13.453377,-2.708,-1.285,1.0872,0.0642,1.2735,-1.6309,8.4,17.1,-48.675,,adl
13.457591,-2.708,-1.285,1.0872,0.1356,1.5767,-1.2987,8.4,17.1,-48.675,,adl
13.471252,-2.708,-1.285,1.0872,0.1356,1.5767,-1.2987,8.4,17.1,-48.675,,adl
13.473299,-3.0671,1.7535,0.03,0.1356,1.5767,-1.2987,8.4,17.1,-48.675,,adl
13.514083,-3.0671,1.7535,0.03,0.1356,1.5767,-1.2987,9.15,18.1125,-47.7,,adl
13.517806,-3.0671,1.7535,0.03,0.3514,1.49,-0.6273,9.15,18.1125,-47.7,,adl
13.530932,-3.0671,1.7535,0.03,0.3514,1.49,-0.6273,9.15,18.1125,-47.7,,adl
13.532548,-4.6221,5.2757,0.3573,0.3514,1.49,-0.6273,9.15,18.1125,-47.7,,adl
13.572282,-4.6221,5.2757,0.3573,0.3514,1.49,-0.6273,10.4625,18.3563,-46.6875,,adl
13.575619,-4.6221,5.2757,0.3573,1.1015,2.1291,2.0022,10.4625,18.3563,-46.6875,,adl
13.593959,-4.6221,5.2757,0.3573,1.1015,2.1291,2.0022,10.4625,18.3563,-46.6875,,adl
13.596805,-2.209,3.3079,1.8486,1.1015,2.1291,2.0022,10.4625,18.3563,-46.6875,,adl
13.632783,-2.209,3.3079,1.8486,1.1015,2.1291,2.0022,12.2813,17.7563,-45.5625,,adl
13.635525,-2.209,3.3079,1.8486,0.5914,0.6029,3.2351,12.2813,17.7563,-45.5625,,adl
13.654078,-2.209,3.3079,1.8486,0.5914,0.6029,3.2351,12.2813,17.7563,-45.5625,,adl
13.674765,0.64,-2.0653,1.5382,0.5914,0.6029,3.2351,12.2813,17.7563,-45.5625,,adl
13.692971,0.64,-2.0653,1.5382,0.5914,0.6029,3.2351,14.0813,16.1625,-44.6438,,adl
13.695657,0.64,-2.0653,1.5382,0.4085,-0.5509,3.7686,14.0813,16.1625,-44.6438,,adl
13.714747,0.64,-2.0653,1.5382,0.4085,-0.5509,3.7686,14.0813,16.1625,-44.6438,,adl
13.735805,5.0715,-7.6025,-0.4436,0.4085,-0.5509,3.7686,14.0813,16.1625,-44.6438,,adl
13.753225,5.0715,-7.6025,-0.4436,0.4085,-0.5509,3.7686,15.4313,14.025,-44.0625,,adl
13.754714,5.0715,-7.6025,-0.4436,0.0827,-1.2988,1.8311,15.4313,14.025,-44.0625,,adl
13.774782,5.0715,-7.6025,-0.4436,0.0827,-1.2988,1.8311,15.4313,14.025,-44.0625,,adl
13.796671,11.086,-8.5367,-3.6303,0.0827,-1.2988,1.8311,15.4313,14.025,-44.0625,,adl
13.811683,11.086,-8.5367,-3.6303,0.0827,-1.2988,1.8311,16.5,12.15,-43.7063,,adl
13.814995,11.086,-8.5367,-3.6303,0.1903,-0.2012,-4.291,16.5,12.15,-43.7063,,adl
13.83554,11.086,-8.5367,-3.6303,0.1903,-0.2012,-4.291,16.5,12.15,-43.7063,,adl
13.871754,11.086,-8.5367,-3.6303,0.1903,-0.2012,-4.291,17.4938,10.35,-43.3125,,adl
13.87708,11.086,-8.5367,-3.6303,0.0478,0.287,1.2694,17.4938,10.35,-43.3125,,adl
13.878917,-1.2672,4.4364,2.3261,0.0478,0.287,1.2694,17.4938,10.35,-43.3125,,adl
13.896055,-1.2672,4.4364,2.3261,0.0478,0.287,1.2694,17.4938,10.35,-43.3125,,adl
13.931939,-1.2672,4.4364,2.3261,0.0478,0.287,1.2694,18.2438,7.8188,-43.0125,,adl
13.939222,-0.4288,-0.6469,-0.7905,0.0478,0.287,1.2694,18.2438,7.8188,-43.0125,,adl
13.941264,-0.4288,-0.6469,-0.7905,0.221,0.5354,2.7735,18.2438,7.8188,-43.0125,,adl
13.957321,-0.4288,-0.6469,-0.7905,0.221,0.5354,2.7735,18.2438,7.8188,-43.0125,,adl
13.988313,-0.4288,-0.6469,-0.7905,0.221,0.5354,2.7735,18.9938,4.8375,-43.125,,adl
13.998349,-0.4288,-0.6469,-0.7905,0.4735,0.6171,1.088,18.9938,4.8375,-43.125,,adl
13.999747,-2.1391,0.325,0.1035,0.4735,0.6171,1.088,18.9938,4.8375,-43.125,,adl
14.018246,-2.1391,0.325,0.1035,0.4735,0.6171,1.088,18.9938,4.8375,-43.125,,adl
14.051078,-2.1391,0.325,0.1035,0.4735,0.6171,1.088,19.125,2.5312,-43.275,,adl
14.060611,-2.1391,0.325,0.1035,-0.3752,-0.6129,-0.5678,19.125,2.5312,-43.275,,adl
14.064255,-0.0727,0.6198,0.0808,-0.3752,-0.6129,-0.5678,19.125,2.5312,-43.275,,adl
14.07837,-0.0727,0.6198,0.0808,-0.3752,-0.6129,-0.5678,19.125,2.5312,-43.275,,adl
14.112009,-0.0727,0.6198,0.0808,-0.3752,-0.6129,-0.5678,18.675,0.9,-43.5375,,adl
14.121404,-0.0727,0.6198,0.0808,-0.0558,0.0459,-0.0502,18.675,0.9,-43.5375,,adl
14.139982,-0.0727,0.6198,0.0808,-0.0558,0.0459,-0.0502,18.675,0.9,-43.5375,,adl
14.141792,-0.5634,0.1886,0.0909,-0.0558,0.0459,-0.0502,18.675,0.9,-43.5375,,adl
14.171762,-0.5634,0.1886,0.0909,-0.0558,0.0459,-0.0502,18.3375,0.1125,-43.575,,adl
14.181559,-0.5634,0.1886,0.0909,-0.157,-0.1458,-0.2113,18.3375,0.1125,-43.575,,adl
14.201327,-0.5634,0.1886,0.0909,-0.157,-0.1458,-0.2113,18.3375,0.1125,-43.575,,adl
14.203831,-0.1021,0.2295,0.0317,-0.157,-0.1458,-0.2113,18.3375,0.1125,-43.575,,adl
14.231864,-0.1021,0.2295,0.0317,-0.157,-0.1458,-0.2113,18.3938,-0.2438,-43.5,,adl
14.242283,-0.1021,0.2295,0.0317,-0.0224,0.0374,-0.0012,18.3938,-0.2438,-43.5,,adl
14.261884,-0.3699,0.2594,-0.0755,-0.0224,0.0374,-0.0012,18.3938,-0.2438,-43.5,,adl
14.264872,-0.3699,0.2594,-0.0755,-0.0224,0.0374,-0.0012,18.3938,-0.2438,-43.5,,adl
14.29132,-0.3699,0.2594,-0.0755,-0.0224,0.0374,-0.0012,18.525,-0.7688,-43.5,,adl
14.303969,-0.3699,0.2594,-0.0755,-0.0234,-0.0009,-0.0012,18.525,-0.7688,-43.5,,adl
14.32328,-0.3699,0.2594,-0.0755,-0.0234,-0.0009,-0.0012,18.525,-0.7688,-43.5,,adl
14.343123,-0.2874,0.2589,0.015,-0.0234,-0.0009,-0.0012,18.525,-0.7688,-43.5,,adl
14.349695,-0.2874,0.2589,0.015,-0.0234,-0.0009,-0.0012,18.6562,-1.575,-43.3688,,adl
14.363525,-0.2874,0.2589,0.015,-0.033,-0.0269,0.0081,18.6562,-1.575,-43.3688,,adl
14.385178,-0.2874,0.2589,0.015,-0.033,-0.0269,0.0081,18.6562,-1.575,-43.3688,,adl
14.40664,-0.1887,0.1942,0.0217,-0.033,-0.0269,0.0081,18.6562,-1.575,-43.3688,,adl
14.409926,-0.1887,0.1942,0.0217,-0.033,-0.0269,0.0081,18.7875,-1.8375,-43.5,,adl
14.424325,-0.1887,0.1942,0.0217,-0.0036,0.02,0.0617,18.7875,-1.8375,-43.5,,adl
14.444988,-0.1887,0.1942,0.0217,-0.0036,0.02,0.0617,18.7875,-1.8375,-43.5,,adl
14.465495,-0.2374,0.1924,-0.0328,-0.0036,0.02,0.0617,18.7875,-1.8375,-43.5,,adl
14.470021,-0.2374,0.1924,-0.0328,-0.0036,0.02,0.0617,18.6938,-1.5938,-43.4062,,adl
14.484973,-0.2374,0.1924,-0.0328,-0.0,0.0015,0.0531,18.6938,-1.5938,-43.4062,,adl
14.506215,-0.2374,0.1924,-0.0328,-0.0,0.0015,0.0531,18.6938,-1.5938,-43.4062,,adl
14.525445,-0.2363,0.2042,-0.0469,-0.0,0.0015,0.0531,18.6938,-1.5938,-43.4062,,adl
14.53018,-0.2363,0.2042,-0.0469,-0.0,0.0015,0.0531,18.6562,-1.4625,-43.5563,,adl
14.54565,-0.2363,0.2042,-0.0469,0.0077,0.0097,0.0457,18.6562,-1.4625,-43.5563,,adl
14.566616,-0.2363,0.2042,-0.0469,0.0077,0.0097,0.0457,18.6562,-1.4625,-43.5563,,adl
14.590266,-0.2363,0.2042,-0.0469,0.0077,0.0097,0.0457,18.6938,-1.3688,-43.6313,,adl
14.60673,-0.2363,0.2042,-0.0469,-0.0317,-0.0397,-0.0083,18.6938,-1.3688,-43.6313,,adl
14.609517,-0.2203,0.1938,0.0134,-0.0317,-0.0397,-0.0083,18.6938,-1.3688,-43.6313,,adl
14.628095,-0.2203,0.1938,0.0134,-0.0317,-0.0397,-0.0083,18.6938,-1.3688,-43.6313,,adl
14.651502,-0.2203,0.1938,0.0134,-0.0317,-0.0397,-0.0083,18.7875,-1.275,-43.7625,,adl
14.666938,-0.2203,0.1938,0.0134,-0.0394,-0.0365,-0.0356,18.7875,-1.275,-43.7625,,adl
14.668803,-0.1857,0.1584,-0.0102,-0.0394,-0.0365,-0.0356,18.7875,-1.275,-43.7625,,adl
14.689265,-0.1857,0.1584,-0.0102,-0.0394,-0.0365,-0.0356,18.7875,-1.275,-43.7625,,adl
14.712163,-0.1857,0.1584,-0.0102,-0.0394,-0.0365,-0.0356,18.6938,-1.2,-43.8563,,adl
14.731097,-0.1857,0.1584,-0.0102,-0.0483,-0.0457,-0.0909,18.6938,-1.2,-43.8563,,adl
14.733782,-0.3565,0.3132,0.0416,-0.0483,-0.0457,-0.0909,18.6938,-1.2,-43.8563,,adl
14.748742,-0.3565,0.3132,0.0416,-0.0483,-0.0457,-0.0909,18.6938,-1.2,-43.8563,,adl
14.771945,-0.3565,0.3132,0.0416,-0.0483,-0.0457,-0.0909,18.6562,-1.35,-43.875,,adl
14.791208,-0.3565,0.3132,0.0416,-0.2173,-0.3613,-0.1943,18.6562,-1.35,-43.875,,adl
14.811791,-0.3565,0.3132,0.0416,-0.2173,-0.3613,-0.1943,18.6562,-1.35,-43.875,,adl
14.813302,0.2902,-0.0835,-0.0705,-0.2173,-0.3613,-0.1943,18.6562,-1.35,-43.875,,adl
14.831236,0.2902,-0.0835,-0.0705,-0.2173,-0.3613,-0.1943,18.4875,-1.2563,-44.1375,,adl
14.850943,0.2902,-0.0835,-0.0705,0.0301,0.0647,0.1362,18.4875,-1.2563,-44.1375,,adl
14.870645,0.2902,-0.0835,-0.0705,0.0301,0.0647,0.1362,18.4875,-1.2563,-44.1375,,adl
14.872128,-0.3362,0.0309,-0.0143,0.0301,0.0647,0.1362,18.4875,-1.2563,-44.1375,,adl
14.89132,-0.3362,0.0309,-0.0143,0.0301,0.0647,0.1362,18.2063,-0.9938,-44.2125,,adl
14.910699,-0.3362,0.0309,-0.0143,-0.0622,-0.1188,-0.1123,18.2063,-0.9938,-44.2125,,adl
14.93212,-0.3362,0.0309,-0.0143,-0.0622,-0.1188,-0.1123,18.2063,-0.9938,-44.2125,,adl
14.933727,-0.0974,0.2412,0.0416,-0.0622,-0.1188,-0.1123,18.2063,-0.9938,-44.2125,,adl
14.949241,-0.0974,0.2412,0.0416,-0.0622,-0.1188,-0.1123,18.075,-0.7313,-44.6063,,adl
14.971702,-0.0974,0.2412,0.0416,-0.021,-0.0876,-0.0449,18.075,-0.7313,-44.6063,,adl
14.991425,-0.0974,0.2412,0.0416,-0.021,-0.0876,-0.0449,18.075,-0.7313,-44.6063,,adl
14.992951,0.0241,-0.0669,0.0038,-0.021,-0.0876,-0.0449,18.075,-0.7313,-44.6063,,adl
15.009251,0.0241,-0.0669,0.0038,-0.021,-0.0876,-0.0449,17.925,-0.3563,-44.8688,,adl
15.033114,0.0241,-0.0669,0.0038,-0.0285,-0.041,0.0599,17.925,-0.3563,-44.8688,,adl
15.055412,0.0241,-0.0669,0.0038,-0.0285,-0.041,0.0599,17.925,-0.3563,-44.8688,,adl
15.069557,0.0241,-0.0669,0.0038,-0.0285,-0.041,0.0599,17.7563,-0.0375,-45.075,,adl
15.073052,0.018,0.1746,-0.069,-0.0285,-0.041,0.0599,17.7563,-0.0375,-45.075,,adl
15.094223,0.018,0.1746,-0.069,0.1352,0.2198,0.0329,17.7563,-0.0375,-45.075,,adl
15.11313,0.018,0.1746,-0.069,0.1352,0.2198,0.0329,17.7563,-0.0375,-45.075,,adl
15.130286,0.018,0.1746,-0.069,0.1352,0.2198,0.0329,17.6625,0.1313,-45.2625,,adl
15.133277,-0.2643,-0.1183,0.0816,0.1352,0.2198,0.0329,17.6625,0.1313,-45.2625,,adl
15.157156,-0.2643,-0.1183,0.0816,-0.1097,-0.1827,-0.1559,17.6625,0.1313,-45.2625,,adl
